"Time (s)","Linear Acceleration x (m/s^2)","Linear Acceleration y (m/s^2)","Linear Acceleration z (m/s^2)","Absolute acceleration (m/s^2)"
1.035766250E-1,0.000000000E0,0.000000000E0,0.000000000E0,0.000000000E0
1.135761040E-1,1.999999955E-2,1.000022888E-2,-1.717650890E-2,2.819640080E-2
1.235750620E-1,3.999999911E-2,1.999950409E-2,-2.821958065E-2,5.288028767E-2
1.335784480E-1,5.999999866E-2,2.999973297E-2,-4.503023624E-2,8.079422005E-2
1.435763640E-1,-4.999999702E-2,-2.500057220E-2,-9.278380871E-2,1.083229591E-1
1.535758430E-1,-8.571428247E-3,-4.285812378E-3,-1.004948616E-1,1.009507542E-1
1.635789680E-1,2.749999985E-2,1.374912262E-2,-1.109530926E-1,1.151341701E-1
1.735860000E-1,5.999999866E-2,2.999973297E-2,-1.060047150E-1,1.254471339E-1
1.835669890E-1,-8.999999613E-2,-4.500007629E-2,-9.311151505E-2,1.370939838E-1
1.935856870E-1,-4.545454308E-2,-2.272796631E-2,-7.816052437E-2,9.322952059E-2
2.035674580E-1,-4.999998957E-3,-2.500534058E-3,-5.243301392E-2,5.273019636E-2
2.135698020E-1,3.230769187E-2,1.615333557E-2,-3.599822521E-2,5.099597457E-2
2.235698540E-1,6.714285910E-2,3.357124329E-2,-2.251112461E-2,7.837054699E-2
2.335695930E-1,-8.666666597E-2,-4.333305359E-2,-6.831169128E-3,9.713665320E-2
2.435662080E-1,-4.374999925E-2,-2.187538147E-2,-3.140687943E-3,4.901488213E-2
2.535711560E-1,-3.529411042E-3,-1.764297485E-3,-4.706501961E-3,6.141713818E-3
2.635682910E-1,3.444444388E-2,1.722240448E-2,-5.982041359E-3,3.897198672E-2
2.735695930E-1,7.052631676E-2,3.526401520E-2,2.279162407E-3,7.888413469E-2
2.835672500E-1,-8.499999344E-2,-4.249954224E-2,4.476904869E-3,9.513807152E-2
2.935698540E-1,-4.285714030E-2,-2.142906189E-2,1.096379757E-2,4.915428797E-2
3.035677710E-1,-2.727271756E-3,-1.363754272E-3,2.570736408E-2,2.588757240E-2
3.135667290E-1,3.565217555E-2,1.782512665E-2,3.326117992E-2,5.191453410E-2
3.235688120E-1,7.249999791E-2,3.624916077E-2,5.828344822E-2,9.983592385E-2
3.335682910E-1,-8.399999887E-2,-4.200077057E-2,8.380913734E-2,1.258730950E-1
3.435740210E-1,-4.230768979E-2,-2.115535736E-2,1.097168922E-1,1.194792292E-1
3.535875620E-1,-2.222221578E-3,-1.111984253E-3,1.311808825E-1,1.312044157E-1
3.635640210E-1,3.642857075E-2,1.821327209E-2,1.630553007E-1,1.680648540E-1
3.735952710E-1,7.379310578E-2,3.689575195E-2,1.894631386E-1,2.066470417E-1
3.835691250E-1,-8.333332837E-2,-4.166698456E-2,2.112077475E-1,2.308447396E-1
3.935825620E-1,-4.193548113E-2,-2.096843719E-2,2.289743423E-1,2.337252862E-1
4.035657910E-1,-1.874999260E-3,-9.374618530E-4,2.481012344E-1,2.481100905E-1
4.135690730E-1,3.696969524E-2,1.848411560E-2,2.636024952E-1,2.668233430E-1
4.235677710E-1,7.470588386E-2,3.735256195E-2,2.712484598E-1,2.838166837E-1
4.335654270E-1,-4.403594509E-2,-2.201843262E-2,2.794809341E-1,2.837843695E-1
4.435669890E-1,-3.926867153E-3,-1.963615417E-3,2.882355452E-1,2.882689813E-1
4.535703750E-1,3.512383997E-2,1.756095886E-2,2.805999517E-1,2.833344390E-1
4.635688120E-1,7.319758832E-2,3.659820557E-2,2.781411409E-1,2.899306984E-1
4.735693330E-1,-8.463235199E-2,-4.231643677E-2,2.657676935E-1,2.821095226E-1
4.835662080E-1,-4.354375601E-2,-2.177238464E-2,2.545402050E-1,2.591540302E-1
4.935675100E-1,-3.459382802E-3,-1.729965210E-3,2.395359278E-1,2.395671530E-1
5.035677710E-1,3.569083661E-2,1.784420013E-2,2.213431597E-1,2.249111950E-1
5.135808960E-1,7.397058606E-2,3.698444366E-2,2.004678249E-1,2.168567396E-1
5.235664680E-1,-8.411764354E-2,-4.205989838E-2,1.773446798E-1,2.007385077E-1
5.335839160E-1,-4.315856472E-2,-2.158069611E-2,1.571465731E-1,1.643880579E-1
5.435721980E-1,-3.091363469E-3,-1.546859741E-3,1.298933029E-1,1.299392914E-1
5.537443330E-1,3.613970429E-2,1.806831360E-2,1.062566042E-1,1.136794094E-1
5.635683960E-1,7.458583266E-2,3.729152679E-2,9.537756443E-2,1.266909002E-1
5.735714160E-1,-8.370587975E-2,-4.185390472E-2,9.546065331E-2,1.336830579E-1
5.835683430E-1,-4.284890369E-2,-2.142620087E-2,9.533143044E-2,1.066920440E-1
5.935669890E-1,-2.794116968E-3,-1.398086548E-3,1.046465635E-1,1.046931946E-1
6.035664680E-1,3.650388494E-2,1.825046539E-2,1.076172590E-1,1.150959927E-1
6.135706350E-1,7.508714497E-2,3.754234314E-2,1.243982315E-1,1.500747376E-1
6.234996980E-1,-8.336897939E-2,-4.168605804E-2,1.482027769E-1,1.750776320E-1
6.335735000E-1,-3.309878288E-3,-1.656532288E-3,1.926127672E-1,1.926483259E-1
6.435682910E-1,3.605753183E-2,1.802635193E-2,2.014222145E-1,2.054166582E-1
6.535677710E-1,7.476842403E-2,3.738212585E-2,2.134484053E-1,2.292334231E-1
6.635901660E-1,-8.381105214E-2,-4.190731049E-2,2.234047651E-1,2.422606122E-1
6.735690730E-1,-4.308086634E-2,-2.154254913E-2,2.266818285E-1,2.317427320E-1
6.835667290E-1,-3.029518761E-3,-1.516342163E-3,2.242051363E-1,2.242307303E-1
6.935667290E-1,3.635430709E-2,1.817512512E-2,2.167828083E-1,2.205600979E-1
7.035667290E-1,7.508173585E-2,3.753948212E-2,2.195931673E-1,2.350907036E-1
7.135656870E-1,-8.350295573E-2,-4.175281525E-2,2.215539217E-1,2.404208423E-1
7.235875100E-1,-4.277791083E-2,-2.139091492E-2,2.179551125E-1,2.231411032E-1
7.335895930E-1,-2.731612884E-3,-1.367568970E-3,2.095804214E-1,2.096026837E-1
7.435617810E-1,3.664724529E-2,1.832103729E-2,1.874655485E-1,1.918906274E-1
7.535682390E-1,7.536979020E-2,3.768253326E-2,1.728711128E-1,1.923148466E-1
7.635888640E-1,-8.321969956E-2,-4.161167145E-2,1.503053904E-1,1.767731879E-1
7.735695930E-1,-4.249937460E-2,-2.125167847E-2,1.305763721E-1,1.389533002E-1
7.835698540E-1,-2.457718598E-3,-1.230239868E-3,1.036808491E-1,1.037172712E-1
7.935682910E-1,3.691657633E-2,1.845645905E-2,7.549929619E-2,8.604428054E-2
8.035701140E-1,7.563462853E-2,3.781604767E-2,5.591833591E-2,1.013780587E-1
8.135675100E-1,-4.362594336E-2,-2.181434631E-2,4.844343662E-2,6.874485574E-2
8.235675100E-1,-3.565510735E-3,-1.783370972E-3,5.171823502E-2,5.187166001E-2
8.335706350E-1,3.582724556E-2,1.791286469E-2,5.925238132E-2,7.152137400E-2
8.435685520E-1,7.456345856E-2,3.728103638E-2,6.561136246E-2,1.060869262E-1
8.535680310E-1,-8.401259780E-2,-4.200649261E-2,6.129777431E-2,1.121609520E-1
8.635888640E-1,-4.327905178E-2,-2.163982391E-2,5.745863914E-2,7.511892914E-2
8.735690730E-1,-3.224403132E-3,-1.611709595E-3,5.885970592E-2,5.896998698E-2
8.835677710E-1,3.616267070E-2,1.808166504E-2,6.476676464E-2,7.635063304E-2
8.935669890E-1,7.489328831E-2,3.744697571E-2,6.489026546E-2,1.059340700E-1
9.036023540E-1,-8.368825912E-2,-4.184341431E-2,6.003713608E-2,1.111712811E-1
9.135690210E-1,-4.296012223E-2,-2.147960663E-2,5.091214180E-2,6.999279810E-2
9.235889680E-1,-2.910789335E-3,-1.454353333E-3,3.330636024E-2,3.346492897E-2
9.335703230E-1,3.647105768E-2,1.823616028E-2,2.773714066E-2,4.931576383E-2
9.435698540E-1,7.519653440E-2,3.759956360E-2,2.771162987E-2,8.852220285E-2
9.535701140E-1,-8.339006454E-2,-4.169368744E-2,8.335232735E-3,9.360418014E-2
9.635901660E-1,-4.266690090E-2,-2.133274078E-2,-1.800215244E-2,5.098654484E-2
9.735716770E-1,-2.622453496E-3,-1.310348511E-3,-3.580164909E-2,3.592147482E-2
9.835701140E-1,3.675458580E-2,1.837730408E-2,-3.656959534E-2,5.500872827E-2
9.935669890E-1,-8.185798675E-2,-4.092884064E-2,3.409624100E-3,9.158343478E-2
1.003567510E0,-4.116035625E-2,-2.058029175E-2,3.100669384E-2,5.548998467E-2
1.013567771E0,-1.141016721E-3,-5.702972412E-4,5.468726158E-2,5.470213650E-2
1.023568812E0,3.821133077E-2,1.910495758E-2,6.530010700E-2,7.803338502E-2
1.033569854E0,7.690780610E-2,3.845405579E-2,6.464707851E-2,1.075768089E-1
1.043571677E0,-8.170731366E-2,-4.085350037E-2,4.465389252E-2,1.016811866E-1
1.053564646E0,-4.101219773E-2,-2.050685883E-2,-1.586675644E-3,4.588081474E-2
1.063589125E0,-9.953269036E-4,-4.978179932E-4,-7.996296883E-2,7.997071265E-2
1.073569073E0,3.835459426E-2,1.917648315E-2,-1.568809748E-1,1.626359513E-1
1.083637250E0,7.704868168E-2,3.852367401E-2,-2.372082472E-1,2.523654599E-1
1.093581000E0,-8.156879246E-2,-4.078483582E-2,-1.778233051E0,1.780570037E0
1.103555218E0,-4.087597877E-2,-2.043914795E-2,-1.709262371E0,1.709873229E0
1.113567093E0,-8.613799000E-4,-4.310607910E-4,-1.641441345E0,1.641441628E0
1.123568239E0,3.848630935E-2,1.924228668E-2,-1.574750662E0,1.575338411E0
1.133571937E0,7.717820257E-2,3.858852386E-2,-1.509171367E0,1.511636121E0
1.143569073E0,-8.144143224E-2,-4.072093964E-2,-1.641351938E0,1.643875630E0
1.153568031E0,-9.977075458E-1,-2.037620544E-2,-1.574662685E0,1.864241966E0
1.163592510E0,-1.028693080E0,-3.719329834E-4,-1.520960331E0,1.836172628E0
1.173580791E0,-1.093640447E0,3.928089142E-2,-4.760845900E-1,1.193419018E0
1.183574281E0,-1.100072026E0,-4.036521912E-2,1.400622129E-1,1.109687000E0
1.193580010E0,-1.046174765E0,-2.019023895E-2,1.763259172E-1,1.061122101E0
1.203576885E0,-9.643200040E-1,-1.878738403E-4,2.465206385E-1,9.953318696E-1
1.213578448E0,1.006146818E-1,1.964378357E-2,3.363612890E-1,3.516363309E-1
1.223575323E0,1.394330412E-1,3.931140900E-2,9.583499432E-1,9.692376248E-1
1.233574021E0,-2.039556205E-2,-4.034900665E-2,9.867616892E-1,9.877968681E-1
1.243574541E0,1.944241673E-2,-2.018165588E-2,1.005591750E0,1.005982144E0
1.253575843E0,5.895518139E-2,-1.792907715E-4,1.035559893E0,1.037236731E0
1.263708239E0,9.815067053E-2,1.965904236E-2,1.045979142E0,1.050758011E0
1.273559802E0,1.370365471E-1,3.934001923E-2,1.044295788E0,1.053983086E0
1.283557354E0,-2.277974039E-2,-4.033470154E-2,9.980494976E-1,9.991239184E-1
1.293571625E0,1.708358899E-2,-2.017402649E-2,9.277689457E-1,9.281454934E-1
1.303571312E0,1.088177919E0,-1.726150513E-4,8.464264870E-1,1.378611262E0
1.313575583E0,1.725994825E0,-1.048928261E0,7.360863686E-1,2.149681785E0
1.323578448E0,1.755895376E0,-1.116373062E0,-7.678627968E-3,2.080748987E0
1.333577146E0,1.770524740E0,-1.193391800E0,-8.888876438E-2,2.137017327E0
1.343584958E0,1.728076577E0,-1.786673546E0,-1.982728243E-1,2.493544291E0
1.353578968E0,3.386436775E-2,-1.703733444E0,-3.493772745E-1,1.739516865E0
1.363616989E0,7.331313938E-2,-1.562976837E0,-4.288851023E-1,1.622409887E0
1.373575583E0,-1.471002340E0,2.427959442E-2,-1.662358284E0,2.219881179E0
1.383578968E0,-2.247751474E0,4.395389557E-2,-1.610429049E0,2.765465667E0
1.393575583E0,-2.363886595E0,6.348800659E-2,-1.558966160E0,2.832378161E0
1.403575583E0,-3.087428093E0,8.288288116E-2,-1.507959247E0,3.437007840E0
1.413577666E0,-3.093484640E0,1.021432877E-1,-1.457398295E0,3.421124122E0
1.423566729E0,-3.047415495E0,2.198505402E-2,-1.605845571E0,3.444700936E0
1.433566729E0,-2.907402277E0,4.168701172E-2,-1.554740191E0,3.297262936E0
1.443566156E0,-1.878320217E0,6.125259399E-2,-1.504073024E0,2.407088361E0
1.453562354E0,-1.175610185E0,8.068370819E-2,-1.453834772E0,1.871417835E0
1.463588083E0,-1.042270184E0,9.998512268E-2,-1.404016376E0,1.751452581E0
1.473568239E0,7.433857024E-2,1.984691620E-2,-1.553230166E0,1.555134744E0
1.483569854E0,1.135554239E-1,3.957366943E-2,-1.502865553E0,1.507668989E0
1.493567510E0,1.525108218E-1,5.916881561E-2,-1.452914119E0,1.462094366E0
1.503574802E0,1.912100613E-1,7.863330841E-2,2.142548561E-2,2.078546034E-1
1.513576052E0,2.296583205E-1,9.797191620E-2,4.750394821E-2,2.541614952E-1
1.523567250E0,6.919392943E-2,1.785182953E-2,9.449899197E-2,1.184759350E-1
1.533568031E0,1.482123882E-1,-9.729051590E-1,2.330349684E-1,1.011343985E0
1.543569073E0,1.869822443E-1,-9.715671539E-1,3.188799620E-1,1.039514081E0
1.553574021E0,2.255083323E-1,-9.501552582E-1,3.932597637E-1,1.052759357E0
1.563570375E0,6.508569419E-2,3.665828705E-2,4.722423553E-1,4.781138147E-1
1.573566989E0,1.044120714E-1,5.629444122E-2,5.502967834E-1,5.629364925E-1
1.583568812E0,1.434922516E-1,7.580852509E-2,5.982424021E-1,6.198636386E-1
1.593568291E0,1.823309064E-1,9.520149231E-2,6.443520784E-1,6.763856034E-1
1.603567250E0,2.209326029E-1,1.144771576E-1,6.888355017E-1,7.324005618E-1
1.613566989E0,6.055177748E-2,3.426170349E-2,7.318761349E-1,7.351755293E-1
1.624523604E0,9.992722422E-2,5.392456055E-2,7.931369543E-1,8.012237744E-1
1.633579229E0,1.390634775E-1,7.346916199E-2,8.702024221E-1,8.843012066E-1
1.643568239E0,1.779649258E-1,9.289550781E-2,1.498263240E0,1.511652680E0
1.653569125E0,2.166358829E-1,-9.497928619E-1,1.530431390E0,1.814182412E0
1.663569073E0,5.629263818E-2,-9.647674561E-1,1.601184130E0,1.870223442E0
1.673583916E0,9.571256489E-2,-9.770965576E-1,1.666441917E0,1.934142508E0
1.683570114E0,1.348999143E-1,-9.676132202E-1,1.717129588E0,1.975603035E0
1.693568552E0,1.738588512E-1,-9.391679764E-1,1.759993553E0,2.002458663E0
1.703571156E0,2.125934064E-1,-9.235134125E-1,1.786276460E0,2.022092127E0
1.713569593E0,9.205193073E-2,8.696460724E-2,1.803119540E0,1.807560919E0
1.723567510E0,1.312841922E-1,1.063432693E-1,1.792074084E0,1.800020543E0
1.733569593E0,1.702941060E-1,1.256122589E-1,1.781223178E0,1.793748737E0
1.743570375E0,2.090855241E-1,1.447753906E-1,1.775433302E0,1.793555151E0
1.753567771E0,4.880504310E-2,6.440544128E-2,1.798446894E0,1.800261432E0
1.763566989E0,8.830047399E-2,8.392524719E-2,1.822121501E0,1.826189252E0
1.773567250E0,1.275756061E-1,1.033382416E-1,1.865875602E0,1.873084645E0
1.783566729E0,1.666341722E-1,1.226444244E-1,1.927078962E0,1.938154258E0
1.793570635E0,2.054797858E-1,1.418476105E-1,2.008311272E0,2.023772925E0
1.803587041E0,4.522712529E-2,6.150436401E-2,2.677688122E0,2.678776205E0
1.813569750E0,8.475625515E-2,8.105373383E-2,2.721753120E0,2.724278506E0
1.823695271E0,1.240707785E-1,1.004991531E-1,2.792454481E0,2.797015493E0
1.833573708E0,1.631742120E-1,1.198406219E-1,2.871663094E0,2.878790809E0
1.843572406E0,2.020700127E-1,1.390810013E-1,3.512314320E0,3.520870304E0
1.853570635E0,4.184260964E-2,5.876159668E-2,3.518355608E0,3.519095042E0
1.863570114E0,8.140259236E-2,7.833766937E-2,3.511579752E0,3.513396580E0
1.873568031E0,1.207533777E-1,9.781265259E-2,3.488784552E0,3.492243740E0
1.883571156E0,1.598983109E-1,1.171855927E-1,3.461833000E0,3.467504528E0
1.893570635E0,3.968831152E-2,5.688476562E-2,3.406659365E0,3.407365414E0
1.903570375E0,7.927109301E-2,7.648181915E-2,3.371456385E0,3.373255331E0
1.913572718E0,1.186498851E-1,9.597969055E-2,3.338699818E0,3.342185867E0
1.923571156E0,1.578278542E-1,1.153783798E-1,3.312984228E0,3.318747700E0
1.933567250E0,1.968081295E-1,1.346807480E-1,3.293422699E0,3.302045641E0
1.943568291E0,3.661937267E-2,5.440044403E-2,3.274359226E0,3.275015836E0
1.953566989E0,7.622845471E-2,7.402038574E-2,3.245989084E0,3.247727656E0
1.963568812E0,1.156384647E-1,9.354400635E-2,3.204662561E0,3.208112353E0
1.973568031E0,1.548524201E-1,1.129703522E-1,3.142327785E0,3.148168592E0
1.983566989E0,1.938732564E-1,1.323022842E-1,3.042223930E0,3.051264849E0
1.993577718E0,3.370389342E-2,-1.276179314E0,2.382699966E0,2.703151628E0
2.003584021E0,7.333720475E-2,-1.320725441E0,2.279978037E0,2.635904756E0
2.013568760E0,1.127761304E-1,-1.392892838E0,1.580022812E0,2.109346107E0
2.023568031E0,1.520235389E-1,-2.013011932E0,1.447004318E0,2.483777303E0
2.033569333E0,1.910822392E-1,-2.071751118E0,5.989165306E-1,2.165032592E0
2.043568812E0,3.093063086E-2,-2.150969505E0,4.841315746E-1,2.204996576E0
2.053569073E0,7.058630884E-2,-2.243099213E0,-1.751921177E-1,2.251037268E0
2.063568812E0,1.100520715E-1,-2.915971756E0,-2.340476513E-1,2.927418836E0
2.073574021E0,1.493306756E-1,-2.945299625E0,-2.851626873E-1,2.962837709E0
2.083569593E0,3.054625541E-2,-3.018197536E0,-3.434728384E-1,3.037831963E0
2.093567771E0,7.224937528E-2,-3.024405956E0,-2.963891029E-1,3.039752928E0
2.103569593E0,1.150257587E-1,-3.014309406E0,-2.117855549E-1,3.023928776E0
2.113566989E0,1.580690742E-1,-2.994003773E0,-6.046330929E-2,2.998783126E0
2.123567250E0,2.003713846E-1,-2.958727837E0,7.048823833E-1,3.048127011E0
2.133566989E0,4.165761918E-2,-2.912160873E0,8.078005314E-1,3.022409305E0
2.143568291E0,8.371428400E-2,-2.850907326E0,9.290283918E-1,2.999629046E0
2.153568031E0,1.251092851E-1,-2.781849861E0,1.612765312E0,3.217973421E0
2.163568291E0,1.659506559E-1,-2.715797424E0,1.693255186E0,3.204716586E0
2.173621208E0,2.061436921E-1,-2.647197247E0,1.792964339E0,3.203883519E0
2.183576833E0,4.434556514E-2,-2.576202869E0,1.877482653E0,3.188060361E0
2.193564646E0,8.346885443E-2,-2.497631550E0,2.469624758E0,3.513428077E0
2.203568135E0,1.213148981E-1,-2.427118778E0,2.472144842E0,3.466572225E0
2.213570375E0,1.587967575E-1,-2.349396229E0,2.461647987E0,3.406551022E0
2.223570635E0,1.941502243E-1,-2.264657974E0,2.451257706E0,3.342908074E0
2.233569593E0,3.051088750E-2,-2.163853645E0,2.435242176E0,3.257851741E0
2.243569333E0,6.739960611E-2,-2.063455105E0,2.395703793E0,3.162560092E0
2.253571677E0,1.043504179E-1,-1.968352318E0,2.354531050E0,3.070686620E0
2.263571937E0,1.811160743E-1,-1.827020645E0,2.314442158E0,2.954225782E0
2.273566468E0,1.671257615E-2,-1.757070541E0,2.241111279E0,2.847833556E0
2.283570114E0,5.249904096E-2,-1.693705559E0,2.151882648E0,2.738976744E0
2.293572458E0,8.979672939E-2,-1.641021729E0,2.058788538E0,2.634316991E0
2.303567510E0,1.268692315E-1,-1.607821465E0,1.973547220E0,2.548739746E0
2.313568552E0,1.638546586E-1,-1.577016354E0,1.905118704E0,2.478569387E0
2.323567250E0,2.412423491E-4,-1.548377037E0,1.846616030E0,2.409867687E0
2.333566729E0,3.822024167E-2,-1.526559830E0,1.796969175E0,2.358165371E0
2.343572979E0,7.656671852E-2,-1.510747910E0,1.760048866E0,2.320774379E0
2.353685218E0,1.147223264E-1,-1.490434647E0,1.734293699E0,2.289613785E0
2.363561052E0,1.529707313E-1,-1.480963230E0,1.733252048E0,2.284910238E0
2.373584489E0,-7.779255509E-3,-1.475967407E0,1.738763094E0,2.280753691E0
2.383573448E0,3.075424582E-2,-1.474868298E0,1.745052814E0,2.285036465E0
2.393568552E0,6.904524565E-2,-1.482078075E0,1.742342472E0,2.288466726E0
2.403568239E0,1.072712615E-1,-1.486779213E0,1.726999521E0,2.281347606E0
2.413572979E0,1.446603239E-1,-1.489340782E0,1.705676317E0,2.269007332E0
2.423580791E0,-1.749005914E-2,-1.484575748E0,1.677383184E0,2.240063705E0
2.433580010E0,2.035325021E-2,-1.483240128E0,1.638335228E0,2.210103584E0
2.443578968E0,1.097167492E0,-1.466587543E0,1.558647156E0,2.405002388E0
2.453576625E0,1.136446476E0,-1.439403057E0,1.482997894E0,2.358532278E0
2.463581573E0,1.170166969E0,-1.394495964E0,1.394226551E0,2.292984388E0
2.473577146E0,1.206863403E0,-1.348976612E0,1.299375534E0,2.228145855E0
2.483580531E0,1.228143215E0,-1.293197632E0,1.204251289E0,2.151956561E0
2.493578708E0,1.238784909E0,-1.228540421E0,1.118799210E0,2.072585653E0
2.503576104E0,1.188333988E0,-1.161015511E0,1.046734571E0,1.963605853E0
2.513580427E0,1.123548269E0,-1.086217880E0,9.920265675E-1,1.851039359E0
2.523577927E0,1.051704645E0,-1.015308380E0,9.487907887E-1,1.742738571E0
2.533581989E0,9.826711416E-1,-9.238166809E-1,9.217159748E-1,1.633597310E0
2.543580948E0,9.083989859E-1,-8.245096207E-1,9.143762589E-1,1.530061690E0
2.553584021E0,8.346387148E-1,-1.802854538E-1,9.345645905E-1,1.265912952E0
2.563572146E0,7.567800283E-1,8.165721893E-1,9.739296436E-1,1.479204213E0
2.573569281E0,6.801607609E-1,8.353919983E-1,1.018586636E0,1.482571140E0
2.583575843E0,6.102697849E-1,8.537683487E-1,1.067885637E0,1.497240575E0
2.593575843E0,-3.875683248E-1,8.715839386E-1,1.121739149E0,1.472469520E0
2.603578968E0,-3.770989180E-1,8.841743469E-1,1.191912889E0,1.531216577E0
2.613576885E0,-5.600218177E-1,7.903699875E-1,1.282120705E0,1.606904681E0
2.623506625E0,5.140985847E-1,8.175077438E-1,1.427211046E0,1.723237545E0
2.633574021E0,5.363172889E-1,8.257493973E-1,1.502805948E0,1.796642430E0
2.643578187E0,5.829879642E-1,8.352546692E-1,1.577823400E0,1.878044731E0
2.653577406E0,6.417133808E-1,7.461700439E-1,1.647441149E0,1.919017492E0
2.663579229E0,7.109361291E-1,7.581987381E-1,1.706794977E0,1.998360478E0
2.673566729E0,7.746743560E-1,7.712793350E-1,1.776437283E0,2.085838342E0
2.683567771E0,1.420412064E0,7.852220535E-1,1.855077028E0,2.464843785E0
2.693566729E0,1.443227530E0,8.000049591E-1,1.951229334E0,2.555427469E0
2.703565948E0,1.498030424E0,7.159585953E-1,2.711434603E0,3.179397658E0
2.713591208E0,2.104580164E0,7.329282761E-1,2.786339760E0,3.567930882E0
2.723566989E0,2.171527147E0,2.042840004E0,3.451527834E0,4.560895726E0
2.733664385E0,2.931978226E0,2.102952957E0,3.553199053E0,5.064003452E0
2.743568500E0,3.011302471E0,2.181591034E0,4.241374969E0,5.640615538E0
2.753570583E0,3.969178677E0,2.265610695E0,4.263849258E0,6.250422521E0
2.763568812E0,4.052864075E0,2.888873100E0,4.227660179E0,6.530268416E0
2.773570375E0,4.848276615E0,2.933332443E0,4.142091751E0,7.019056164E0
2.783570114E0,4.811668396E0,2.961855888E0,3.974218607E0,6.907905369E0
2.793574281E0,4.766686916E0,2.943785667E0,2.814011097E0,6.269436711E0
2.803570114E0,4.603866577E0,2.070264816E0,7.762439251E-1,5.107263308E0
2.813569073E0,4.337449074E0,8.021221161E-1,-2.483210564E-1,4.417977784E0
2.823569073E0,3.017795086E0,8.479375839E-1,-1.270558596E0,3.382366697E0
2.833571156E0,1.881677628E0,-3.806257248E-1,-2.250955343E0,2.958443272E0
2.843566208E0,5.332760811E-1,-1.562375546E0,-3.499952555E0,3.869763379E0
2.853568291E0,-9.922010899E-1,-2.845550537E0,-3.439065933E0,4.572613624E0
2.863566729E0,-2.113261223E0,-4.184365273E0,-3.351194382E0,5.762403102E0
2.873567250E0,-4.630565643E0,-5.571966171E0,-3.237674952E0,7.935457409E0
2.883568552E0,-6.539163113E0,-6.938183784E0,-3.116266489E0,1.003046187E1
2.893585218E0,-8.353097916E0,-8.875187874E0,-3.171947002E0,1.259382596E1
2.903570218E0,-1.013228130E1,-8.828067780E0,-3.023153782E0,1.377451865E1
2.913583812E0,-1.209895992E1,-1.084261036E1,-2.865253448E0,1.649717273E1
2.923568500E0,-1.312378883E1,-1.194029236E1,-2.730805874E0,1.795164939E1
2.933567198E0,-1.421959591E1,-1.289230156E1,-2.619208813E0,1.937185077E1
2.943571677E0,-1.486343002E1,-1.377908897E1,-4.208953381E0,2.070024477E1
2.953571677E0,-1.477612782E1,-1.455258369E1,-4.320624352E0,2.118441503E1
2.963569854E0,-1.513137722E1,-1.470757103E1,-5.389740467E0,2.177890090E1
2.973567250E0,-1.464880848E1,-1.566267300E1,-5.575367928E0,2.215833123E1
2.983570114E0,-1.319661427E1,-1.568815041E1,-6.453909874E0,2.149236245E1
2.993569073E0,-9.823011398E0,-1.562329102E1,-6.500082970E0,1.956603827E1
3.003570114E0,-5.503314972E0,-1.543003178E1,-6.381817818E0,1.758123872E1
3.013566208E0,-1.617088437E0,-1.434620190E1,-5.152396679E0,1.532891632E1
3.023569593E0,2.998470783E0,-1.301945305E1,-3.836942196E0,1.390032770E1
3.033566729E0,7.950599194E0,-1.110956192E1,-2.814199924E0,1.394826566E1
3.043570375E0,1.293016052E1,-7.857339859E0,1.679506302E-1,1.513126063E1
3.053567250E0,1.775001335E1,-6.252518177E0,2.279761076E0,1.895664179E1
3.063567510E0,2.174559021E1,-3.709155798E0,4.116078377E0,2.244037949E1
3.073569333E0,2.474986649E1,-1.292124748E0,5.634779930E0,2.541606229E1
3.083590531E0,2.655125618E1,8.381533623E-1,7.140029907E0,2.750730326E1
3.093563604E0,2.741777039E1,2.676861286E0,6.948741913E0,2.841099670E1
3.103576989E0,2.659607124E1,3.851039410E0,8.149132729E0,2.808184243E1
3.113567198E0,2.503051758E1,4.520570755E0,7.676283836E0,2.656854726E1
3.123570114E0,2.362939835E1,4.594648838E0,8.434137344E0,2.550674297E1
3.133569854E0,2.213002968E1,4.623275280E0,8.496761322E0,2.415176683E1
3.143570635E0,1.907591248E1,4.663527489E0,8.796989441E0,2.151803775E1
3.153570896E0,1.641450500E1,4.714784145E0,8.767332077E0,1.919716843E1
3.163571937E0,1.406342888E1,4.720993996E0,9.502294540E0,1.761707744E1
3.173572979E0,1.027949142E1,4.034469604E0,9.431379318E0,1.452225206E1
3.183571156E0,7.491525650E0,2.669235706E0,9.229059219E0,1.218291057E1
3.193567250E0,7.254925728E0,2.791018486E0,7.986316681E0,1.114472905E1
3.203568552E0,5.180502415E0,2.887001038E0,7.109644413E0,9.258478489E0
3.213567250E0,3.941015720E0,2.960399151E0,6.224662781E0,7.939898915E0
3.223567250E0,2.926385641E0,1.615705967E0,4.779675007E0,5.832626498E0
3.233568031E0,2.108556271E0,1.543124676E0,4.719805241E0,5.394794233E0
3.243568812E0,1.998152733E0,8.305416107E-1,4.655546188E0,5.133860538E0
3.253567510E0,1.131674528E0,7.676148415E-1,3.193020821E0,3.473514322E0
3.263658343E0,1.125579596E0,6.773433685E-1,3.036579132E0,3.308555015E0
3.273558864E0,1.132728815E0,-7.191276550E-2,2.876562595E0,3.092387165E0
3.283576573E0,1.150086641E0,-1.331400871E-1,2.208755016E0,2.493797162E0
3.293570062E0,6.287109852E-1,-2.043876648E-1,2.095960140E0,2.197749014E0
3.303567979E0,7.107930183E-1,-2.900104523E-1,1.978958130E0,2.122641764E0
3.313567771E0,7.782318592E-1,-3.767104149E-1,1.849018097E0,2.041181885E0
3.323568291E0,8.322377205E-1,-1.033345699E0,1.729292870E0,2.179650611E0
3.333569333E0,8.867198229E-1,-1.074877262E0,1.071777344E0,1.757936247E0
3.343574281E0,9.198484421E-1,-1.116106987E0,1.013315201E0,1.765962530E0
3.353568031E0,9.236012697E-1,-1.207391739E0,8.987331390E-1,1.765943196E0
3.363568552E0,9.646141529E-1,-1.243255138E0,8.188300133E-1,1.773878912E0
3.373591729E0,1.001559734E0,-1.270050049E0,7.196521759E-1,1.770324344E0
3.383570896E0,1.022998929E0,-1.291229725E0,5.602693558E-2,1.648314299E0
3.393567510E0,1.041316032E0,-1.312926292E0,-8.230209351E-4,1.675743180E0
3.403569333E0,1.032275915E0,-1.335215569E0,-8.085680008E-2,1.689654403E0
3.413568291E0,1.010324359E0,-1.345051765E0,-1.753392220E-1,1.691349581E0
3.423572198E0,9.799894094E-1,-1.357805729E0,-8.302412033E-1,1.869041491E0
3.433567250E0,9.394003153E-1,-1.364189148E0,-8.680310249E-1,1.870016803E0
3.443689125E0,3.319886923E-1,-1.377899647E0,-8.967914581E-1,1.677217591E0
3.453562198E0,3.343391418E-1,-1.405784130E0,-9.183526039E-1,1.712128263E0
3.463571521E0,3.310346603E-1,-1.422710896E0,-9.242091179E-1,1.728540637E0
3.473595583E0,3.236653805E-1,-1.429714680E0,-9.364848137E-1,1.739496235E0
3.483568812E0,3.273267746E-1,-1.434271812E0,-9.428954124E-1,1.747378095E0
3.493570375E0,3.261941671E-1,-1.438035488E0,-9.405031204E-1,1.748969645E0
3.503568291E0,3.309334517E-1,-1.435389042E0,-9.333362579E-1,1.743839219E0
3.513565531E0,3.527263999E-1,-1.434417248E0,-9.316043854E-1,1.746383545E0
3.523568031E0,3.706152439E-1,-1.416724682E0,-9.361672401E-1,1.738066047E0
3.533566468E0,3.392269611E-1,-1.328085423E0,-9.879069328E-1,1.689628932E0
3.543569073E0,3.484893441E-1,-1.292071342E0,-9.991626740E-1,1.670095574E0
3.553568812E0,3.495450616E-1,-1.248988152E0,-1.004367352E0,1.640398406E0
3.563567510E0,3.583655357E-1,-1.204098701E0,-1.000009537E0,1.605708135E0
3.573587041E0,-5.967956781E-1,-1.160054684E0,-9.887213707E-1,1.636906198E0
3.583568812E0,-4.963980019E-1,-1.111308575E0,-9.671263695E-1,1.554590344E0
3.593566729E0,-3.948166370E-1,-1.061604023E0,-9.388675690E-1,1.471174901E0
3.603566989E0,-4.926999211E-1,-1.008252144E0,-8.968243599E-1,1.436530379E0
3.613568552E0,-3.895606101E-1,-4.295172691E-1,-8.490710258E-1,1.028184886E0
3.624659750E0,-2.855576277E-1,-4.351658821E-1,-7.905421257E-1,9.465037539E-1
3.633581416E0,-1.807069182E-1,-4.243869781E-1,-7.278561592E-1,8.617040594E-1
3.643573812E0,-4.341973364E-2,-4.102625847E-1,-6.653528214E-1,7.828761323E-1
3.653567979E0,-1.072302461E-1,-3.718118668E-1,-5.938310623E-1,7.087860894E-1
3.663571625E0,2.900683135E-2,-3.264803886E-1,-5.146827698E-1,6.101878350E-1
3.673594593E0,1.705932170E-1,-2.883911133E-1,-4.206051826E-1,5.377547764E-1
3.683575843E0,3.076385260E-1,-2.487835884E-1,-3.297796249E-1,5.150624598E-1
3.693580271E0,4.410002232E-1,-2.090940475E-1,-2.250156403E-1,5.374323733E-1
3.703579750E0,3.714079857E-1,-1.585407257E-1,-1.192569733E-1,4.210715844E-1
3.713579229E0,5.392720103E-1,4.648356438E-1,2.920961380E-2,7.125585438E-1
3.723579229E0,6.644467711E-1,4.734210968E-1,1.426043510E-1,8.282228248E-1
3.733575583E0,7.871668935E-1,4.835605621E-1,2.536892891E-1,9.580296399E-1
3.743578448E0,2.309953928E0,5.050354004E-1,3.624677658E-1,2.392139374E0
3.753576104E0,2.432020426E0,5.413899422E-1,4.736580849E-1,2.536173969E0
3.763575062E0,2.564643383E0,5.944824219E-1,5.990052223E-1,2.699928201E0
3.773618031E0,2.720184803E0,6.536288261E-1,7.298908234E-1,2.891258657E0
3.783574281E0,3.389144659E0,7.032542229E-1,8.652987480E-1,3.567857893E0
3.793576364E0,3.497015238E0,7.547535896E-1,9.943218231E-1,3.713144818E0
3.803603812E0,3.571319580E0,8.096480370E-1,1.103330612E0,3.824551206E0
3.813579437E0,3.664020538E0,1.932961464E0,1.192702532E0,4.310907776E0
3.823591937E0,4.310175896E0,1.924396038E0,1.259325743E0,4.885367713E0
3.833566625E0,4.347997665E0,1.916514397E0,1.287467241E0,4.922975018E0
3.843569333E0,4.372248173E0,1.808191299E0,1.269200325E0,4.898671179E0
3.853571885E0,4.385502815E0,1.801200867E0,1.202667713E0,4.891152127E0
3.863582093E0,4.378011227E0,1.794866562E0,4.627435207E-1,4.754225472E0
3.873613083E0,4.334287643E0,1.777777672E0,4.189600945E-1,4.703410506E0
3.883576364E0,4.251720428E0,1.762809753E0,-2.913587093E-1,4.611888412E0
3.893580010E0,3.418782234E0,3.310928345E-1,-1.246325731E0,3.653905070E0
3.903577927E0,3.250093460E0,1.880569458E-1,-1.299175739E0,3.505186231E0
3.913580531E0,2.256207943E0,-8.094043732E-1,-1.998142242E0,3.120606054E0
3.923572198E0,8.694244027E-1,-1.004947186E0,-2.028400898E0,2.424918110E0
3.933566989E0,6.797958016E-1,-2.312588692E0,-3.420096159E0,4.184166169E0
3.943569073E0,-5.210255384E-1,-3.144575119E0,-3.289411783E0,4.580398473E0
3.953566208E0,-1.702362537E0,-4.022154808E0,-3.159480572E0,5.390555165E0
3.963566729E0,-2.858181953E0,-4.998404503E0,-3.029655695E0,6.506309652E0
3.973623500E0,-4.119510651E0,-6.061132431E0,-2.901159286E0,7.881904564E0
3.983582875E0,-5.350351334E0,-7.203841209E0,-2.969001770E0,9.451801896E0
3.993572562E0,-6.628996372E0,-8.349475861E0,-2.834595680E0,1.103142206E1
4.003700271E0,-7.862202168E0,-9.512607574E0,-4.172814369E0,1.302752108E1
4.013570114E0,-8.789709091E0,-1.060884476E1,-4.109025478E0,1.437674036E1
4.023572406E0,-9.915413857E0,-1.161163425E1,-4.070354462E0,1.580231842E1
4.033569854E0,-1.055539322E1,-1.252053070E1,-4.079155922E0,1.687659705E1
4.043581052E0,-1.044854832E1,-1.335269070E1,-4.752992630E0,1.760844825E1
4.053572718E0,-1.022484875E1,-1.409511280E1,-4.768041611E0,1.805419501E1
4.063567510E0,-9.769981384E0,-1.415979767E1,-4.731038094E0,1.784194854E1
4.073612562E0,-6.014638901E0,-1.503044701E1,-4.447622299E0,1.678903102E1
4.083566989E0,-2.319788456E0,-1.485855865E1,-1.973495841E0,1.516749385E1
4.093569333E0,2.412120104E0,-1.451489639E1,-6.121551991E-1,1.472668580E1
4.103570635E0,7.983626842E0,-1.257847786E1,1.939418793E0,1.502390589E1
4.113567771E0,1.436548615E1,-1.015804577E1,4.755973816E0,1.822559664E1
4.123570896E0,1.998272514E1,-6.694662094E0,8.381046295E0,2.267972094E1
4.133569333E0,2.561754608E1,-3.995010138E0,9.813334465E0,2.772219880E1
4.143570375E0,3.020994949E1,-8.618459702E-1,1.157524109E1,3.236309678E1
4.153567771E0,3.340370941E1,2.094580173E0,1.261555672E1,3.576796527E1
4.163571156E0,3.496544647E1,3.919954777E0,1.279518127E1,3.743881884E1
4.173635114E0,3.439435959E1,6.316986561E0,1.194928074E1,3.695485896E1
4.183574906E0,3.413618469E1,7.393445492E0,1.192983055E1,3.690884716E1
4.193566989E0,3.191394424E1,7.442982197E0,1.186997604E1,3.485389724E1
4.203568864E0,2.928543282E1,7.386018753E0,1.180913162E1,3.242908321E1
4.213571416E0,2.520730209E1,6.884582996E0,1.116420174E1,2.841557605E1
4.223572979E0,2.138110733E1,5.551136971E0,1.083626938E1,2.460470700E1
4.233569593E0,1.800940514E1,4.556157589E0,1.062422180E1,2.140026482E1
4.243570114E0,1.493633652E1,2.923990726E0,1.038504791E1,1.842533827E1
4.253569593E0,1.118525982E1,2.919235229E0,9.128427505E0,1.472956755E1
4.263566729E0,7.348405838E0,7.300934792E-1,6.918016911E0,1.011884691E1
4.273607875E0,5.377827644E0,-1.048359871E-1,5.504150867E0,7.695953322E0
4.283569333E0,3.869327307E0,-8.392515182E-1,5.471670628E0,6.753903788E0
4.293568552E0,2.766569376E0,-9.734687805E-1,3.472743034E0,4.545491366E0
4.303566989E0,1.144486547E0,-1.881128788E0,2.662850380E0,3.455324459E0
4.313569593E0,1.085633636E0,-1.925582886E0,2.503219604E0,3.339547608E0
4.323570114E0,1.217493176E0,-1.973860264E0,1.728947163E0,2.892692909E0
4.333566989E0,1.360943913E0,-2.003213406E0,1.647078991E0,2.928805471E0
4.343575583E0,1.507566094E0,-2.019090652E0,1.583914280E0,2.976284099E0
4.353617771E0,1.665435433E0,-2.020259380E0,1.514285564E0,3.024596488E0
4.363573968E0,1.625618577E0,-2.015207767E0,1.451862335E0,2.968434325E0
4.373590166E0,1.796557665E0,-2.007489204E0,1.399603367E0,3.035872516E0
4.383572562E0,1.962031126E0,-1.993267536E0,1.364214897E0,3.111874659E0
4.393570896E0,2.118332148E0,-1.971657753E0,1.331529140E0,3.185551010E0
4.403569593E0,2.273658991E0,-1.939634800E0,1.306354046E0,3.261635979E0
4.413577146E0,2.223835945E0,-1.902362347E0,1.293368340E0,3.199567232E0
4.423574802E0,2.370893717E0,-1.858137608E0,1.269078732E0,3.268695950E0
4.433568812E0,2.514866352E0,-1.801032543E0,1.241970062E0,3.333280760E0
4.443568812E0,2.694381475E0,-1.645140648E0,1.173678875E0,3.368041180E0
4.453567250E0,2.630980968E0,-1.529603958E0,1.138678551E0,3.249359624E0
4.463571677E0,2.764747620E0,-8.846116066E-1,1.099686146E0,3.104138643E0
4.473613083E0,2.895276070E0,-8.300209045E-1,1.065378666E0,3.194775410E0
4.483566989E0,3.021423578E0,-7.640161514E-1,1.040202141E0,3.285535209E0
4.493568812E0,3.145709038E0,-6.950502396E-1,1.015566826E0,3.377862662E0
4.503568812E0,3.068232536E0,-6.182785034E-1,1.005372047E0,3.287414205E0
4.513571260E0,3.190093994E0,-5.499877930E-1,1.005078316E0,3.389597127E0
4.523571416E0,3.315429211E0,-4.886660576E-1,1.019113064E0,3.502778441E0
4.533645479E0,3.438138962E0,-4.336800575E-1,1.044405222E0,3.619345270E0
4.543577875E0,3.558823586E0,-3.786592484E-1,1.074052095E0,3.736602206E0
4.553562302E0,3.477442503E0,-3.196697235E-1,1.108555555E0,3.663835492E0
4.563567718E0,3.593194962E0,-2.677416801E-1,1.138388634E0,3.778711992E0
4.573615166E0,3.705991745E0,-2.024979591E-1,1.178815365E0,3.894224686E0
4.583567250E0,3.815483809E0,-1.360912323E-1,1.224241495E0,4.009389574E0
4.593569073E0,3.921880245E0,-6.838035583E-2,1.268679380E0,4.122543863E0
4.603569073E0,3.826567411E0,1.060009003E-2,1.307560205E0,4.043815551E0
4.613570635E0,3.928812504E0,9.511995316E-2,1.330452442E0,4.149062448E0
4.623494281E0,4.067633152E0,2.155189514E-1,1.301816702E0,4.276308525E0
4.633568031E0,4.164098263E0,2.735972404E-1,1.325384617E0,4.378494510E0
4.643567510E0,4.058985710E0,3.251414299E-1,1.354451180E0,4.291342441E0
4.653569073E0,4.152029037E0,3.809318542E-1,1.388201237E0,4.394491652E0
4.663573239E0,4.242455006E0,4.391093254E-1,1.427507401E0,4.497668157E0
4.673613864E0,4.330898762E0,4.907193184E-1,1.479850292E0,4.602982340E0
4.683567510E0,4.417215824E0,5.510296822E-1,1.543710232E0,4.711525297E0
4.693566729E0,4.301089287E0,6.188664436E-1,1.616297007E0,4.636246406E0
4.703566989E0,4.383932590E0,6.985669136E-1,1.683456421E0,4.747724319E0
4.713703396E0,5.473881245E0,7.734346390E-1,1.764809847E0,5.803113890E0
4.723570583E0,5.574875832E0,8.541140556E-1,1.838528872E0,5.932026616E0
4.733556573E0,5.684305191E0,9.393877983E-1,1.914238691E0,6.071085958E0
4.743568812E0,5.791971684E0,1.541590214E0,1.982621431E0,6.313020205E0
4.753567979E0,5.902130127E0,1.559593201E0,2.038258314E0,6.435990051E0
4.763569073E0,6.519344330E0,1.570012093E0,2.089671612E0,7.023782165E0
4.773612823E0,6.531447411E0,1.578935623E0,2.116097212E0,7.044906698E0
4.783568552E0,6.538668633E0,1.583961487E0,2.147404671E0,7.062185802E0
4.793570114E0,6.545225143E0,1.594406605E0,2.192857027E0,7.084541378E0
4.803571677E0,6.555187225E0,1.615585327E0,2.247224331E0,7.115519145E0
4.813569073E0,6.540678024E0,1.602711201E0,2.292518616E0,7.113704648E0
4.823571937E0,6.525429726E0,1.594624043E0,2.348908663E0,7.116279284E0
4.833569593E0,6.514136791E0,1.609927654E0,2.415385962E0,7.131615142E0
4.843566729E0,6.516598225E0,1.626717091E0,2.499670744E0,7.166632036E0
4.853565687E0,6.521187782E0,1.644718647E0,2.579938173E0,7.203268043E0
4.863569073E0,6.528359890E0,1.664752960E0,2.660194397E0,7.243446659E0
4.873609437E0,6.532483101E0,1.695895672E0,2.735929489E0,7.282493238E0
4.883566989E0,6.548333645E0,1.721761703E0,2.803000450E0,7.328161325E0
4.893572041E0,6.554572105E0,1.757297516E0,2.858235836E0,7.363424620E0
4.903586781E0,6.552390099E0,1.796761513E0,2.896966457E0,7.386107405E0
4.913588135E0,6.552636147E0,1.820141792E0,2.925909996E0,7.403438790E0
4.923576833E0,6.554595470E0,1.843792915E0,2.941659212E0,7.417253738E0
4.933570323E0,6.558189392E0,1.867586613E0,2.951388836E0,7.430237137E0
4.943578187E0,6.557906628E0,1.881556988E0,2.945689917E0,7.431250576E0
4.953578968E0,6.569205284E0,1.882154465E0,2.941542625E0,7.439733632E0
4.963578968E0,6.570937634E0,1.875647545E0,2.944529057E0,7.440801466E0
4.973608916E0,6.564673424E0,1.853750706E0,2.957504511E0,7.434928498E0
4.983577927E0,6.563183308E0,1.784487247E0,2.972897530E0,7.422795268E0
4.993577666E0,6.517374039E0,1.741499901E0,2.973499775E0,7.372291854E0
5.003576104E0,6.454252243E0,1.692412853E0,2.959399223E0,7.299292914E0
5.013580531E0,6.381545544E0,1.652863503E0,2.943063736E0,7.219259341E0
5.023576625E0,6.300551891E0,1.621696472E0,2.910091400E0,7.127095168E0
5.033575583E0,6.211982727E0,1.597383022E0,2.863439560E0,7.024218678E0
5.043576885E0,6.132081032E0,1.570000172E0,2.803659916E0,6.922992651E0
5.053574802E0,6.040215492E0,1.554765701E0,2.732008696E0,6.809212223E0
5.063576364E0,5.946387291E0,1.543694973E0,2.662301064E0,6.695547994E0
5.073643552E0,5.862125874E0,1.518548489E0,2.586174965E0,6.584740710E0
5.083566364E0,5.782049656E0,1.490701199E0,2.521375656E0,6.481637408E0
5.093582666E0,5.700813293E0,1.450398445E0,2.462831497E0,6.377183300E0
5.103569802E0,5.609887123E0,1.405107498E0,2.413547039E0,6.266607529E0
5.113571833E0,5.515210629E0,1.350334644E0,2.372771740E0,6.153941636E0
5.123574021E0,5.422383308E0,1.306613445E0,2.340822697E0,6.048878436E0
5.133576885E0,5.332327843E0,1.259109020E0,2.314568281E0,5.947798086E0
5.143581052E0,3.911992550E0,1.217679024E0,2.284136295E0,4.690810861E0
5.153578708E0,3.948823452E0,1.181880474E0,2.256620884E0,4.699189922E0
5.163578187E0,3.827229977E0,1.136280060E0,2.177832603E0,4.547722124E0
5.173591468E0,3.867075920E0,1.116053104E0,2.134958744E0,4.556083794E0
5.183573500E0,3.909593821E0,1.110128880E0,2.087475777E0,4.568901957E0
5.193568031E0,3.954436064E0,1.101992130E0,2.026257038E0,4.577954655E0
5.203568552E0,4.031265259E0,1.099184513E0,1.980454564E0,4.624014107E0
5.213568812E0,3.906235933E0,1.107769966E0,1.934288859E0,4.497477833E0
5.223573500E0,3.979577065E0,1.126194954E0,1.894329906E0,4.549047645E0
5.233567510E0,4.051117897E0,1.138819218E0,1.862726450E0,4.601979493E0
5.243566208E0,4.121984959E0,1.151704311E0,1.843976259E0,4.660196483E0
5.253567510E0,4.192065239E0,1.170136929E0,1.824498296E0,4.719261111E0
5.263576312E0,4.059503555E0,1.186435223E0,1.806777239E0,4.599091393E0
5.273615791E0,4.126371861E0,1.207057476E0,1.796005130E0,4.659352628E0
5.283568239E0,4.191555977E0,1.240557671E0,1.796071529E0,4.725885925E0
5.293569281E0,4.254821301E0,1.275117874E0,1.801325321E0,4.793141225E0
5.303573760E0,4.315440178E0,1.310235500E0,1.819770813E0,4.863260923E0
5.313569333E0,4.174945354E0,1.351098537E0,1.830653310E0,4.754674280E0
5.323569854E0,4.235266209E0,1.403835773E0,1.842368960E0,4.827272327E0
5.333572198E0,4.293676376E0,1.469282150E0,1.863949299E0,4.905991628E0
5.343571937E0,4.351932526E0,1.537967682E0,1.894353867E0,4.989312364E0
5.353571416E0,4.248369217E0,1.666518688E0,1.978567958E0,4.973998060E0
5.363568291E0,4.303437710E0,1.725219727E0,2.040707588E0,5.065614147E0
5.373612041E0,4.358676434E0,1.772913933E0,2.098348379E0,5.152120921E0
5.383568812E0,4.412881374E0,1.824905396E0,2.152009010E0,5.237837770E0
5.393568291E0,4.466840744E0,1.871602535E0,2.195580959E0,5.317531197E0
5.403566156E0,4.319069386E0,1.907162189E0,2.231759548E0,5.222296301E0
5.413567250E0,4.371346951E0,1.939203262E0,2.257060051E0,5.288052905E0
5.423570896E0,4.422749519E0,1.962900162E0,2.266456842E0,5.343268379E0
5.433568291E0,4.472899914E0,1.993589401E0,2.267344713E0,5.396488153E0
5.443586625E0,4.522006989E0,2.025512695E0,2.275597095E0,5.452484849E0
5.453569541E0,4.369780540E0,2.053121090E0,2.274593830E0,5.337046493E0
5.463554333E0,4.417622089E0,2.073058605E0,2.276576042E0,5.384770690E0
5.473610427E0,4.464570999E0,2.080868721E0,2.280356407E0,5.427930930E0
5.483569333E0,4.510632515E0,2.092728138E0,2.290454388E0,5.474623096E0
5.493568552E0,4.554826736E0,2.107427120E0,2.305538893E0,5.522970691E0
5.503569073E0,4.398514748E0,2.129810810E0,2.321071625E0,5.410212524E0
5.513565791E0,4.442980766E0,2.125885487E0,2.341391087E0,5.453584089E0
5.523573500E0,4.486740112E0,2.127345085E0,2.371246576E0,5.502657928E0
5.533569854E0,4.570270538E0,2.151896954E0,2.428362370E0,5.604906519E0
5.543566468E0,4.412647724E0,2.174590588E0,2.447818756E0,5.494735737E0
5.553568812E0,5.861943245E0,2.174164772E0,2.457552195E0,6.717807221E0
5.563570635E0,5.888564110E0,2.163944244E0,2.452259779E0,6.735831054E0
5.573606833E0,5.832268715E0,2.110219479E0,2.388882399E0,6.646438424E0
5.583567771E0,5.758306026E0,2.050296783E0,2.297304630E0,6.529886198E0
5.593570114E0,5.663071156E0,1.960068703E0,2.172181845E0,6.374215105E0
5.603566729E0,5.560847282E0,1.820955276E0,1.326821566E0,5.999946340E0
5.613568291E0,5.474256516E0,8.450193405E-1,1.215569973E0,5.670904023E0
5.624336260E0,5.351012707E0,1.119623184E-1,4.277975559E-1,5.369253514E0
5.633577354E0,4.119225979E0,-7.687811852E-1,3.024230003E-1,4.201250629E0
5.643588552E0,3.929337502E0,-1.897836208E0,-8.662103415E-1,4.448797122E0
5.653573448E0,3.940727472E0,-3.207587957E0,-8.262194991E-1,5.147872587E0
5.663567979E0,2.206824303E0,-4.625595093E0,-1.987909436E0,5.497088993E0
5.673613604E0,5.322942734E-1,-6.480388641E0,-2.793596745E0,7.076931320E0
5.683573760E0,-1.779266119E0,-6.436015129E0,-3.475211382E0,7.527627303E0
5.693569073E0,-4.424757004E0,-8.551066399E0,-3.522734880E0,1.025226181E1
5.703568291E0,-7.023675442E0,-9.435157776E0,-3.462977886E0,1.226158370E1
5.713569593E0,-1.114339066E1,-1.132147789E1,-2.475340605E0,1.607726121E1
5.723571937E0,-1.193610001E1,-1.242186260E1,-1.623865962E0,1.730347059E1
5.733569073E0,-1.168532562E1,-1.349493027E1,-5.725509524E-1,1.786022935E1
5.743573760E0,-8.969604492E0,-1.451922798E1,-4.215010703E-1,1.707159773E1
5.753567510E0,-5.107069492E0,-1.570508385E1,-2.345041335E-1,1.651625895E1
5.763568031E0,1.376005650E0,-1.540688324E1,-6.725270301E-3,1.546820894E1
5.773605271E0,8.956474304E0,-1.507965755E1,2.435697168E-1,1.754063369E1
5.783566208E0,1.740341187E1,-1.222727203E1,1.826168537E0,2.134759512E1
5.793568031E0,2.579958916E1,-9.102214813E0,3.789585114E0,2.761937853E1
5.803566208E0,3.313523865E1,-5.331766129E0,5.926727295E0,3.408075508E1
5.813560687E0,3.886360550E1,-1.377434254E0,7.962657928E0,3.969484952E1
5.823576521E0,4.246384048E1,2.362528086E0,9.760084152E0,4.363506079E1
5.833570583E0,4.399016571E1,5.738071918E0,1.099462891E1,4.570494517E1
5.843565896E0,4.362446213E1,7.294541359E0,1.321879673E1,4.616319548E1
5.853566208E0,4.118403244E1,8.870956421E0,1.502157021E1,4.472656892E1
5.863568552E0,3.744174194E1,8.979598999E0,1.590192604E1,4.165799431E1
5.873611000E0,3.292503357E1,8.885657310E0,1.582520580E1,3.759587584E1
5.883570896E0,2.778264618E1,7.201924801E0,1.494163322E1,3.235731066E1
5.893566208E0,1.933082962E1,4.343893051E0,1.337436485E1,2.390447690E1
5.903568031E0,1.563973331E1,2.877906322E0,1.195021915E1,1.989199188E1
5.913568812E0,1.312766552E1,1.465370655E0,1.057772923E1,1.692250775E1
5.923571156E0,9.360076904E0,1.449365616E-1,8.522214890E0,1.265939149E1
5.933566468E0,6.686434746E0,-9.888195992E-1,6.945124626E0,9.691281127E0
5.943572198E0,4.447287560E0,-1.867720127E0,5.219203949E0,7.106816092E0
5.953566468E0,2.975657940E0,-2.006528616E0,3.762129784E0,5.199453603E0
5.963566729E0,1.241244912E0,-2.933218002E0,2.713864565E0,4.184437556E0
5.973611000E0,3.105843067E-1,-2.957045555E0,2.535206318E0,3.907409897E0
5.983577771E0,2.190210819E-1,-2.961164474E0,1.768674612E0,3.456106937E0
5.993580843E0,1.854844093E-1,-2.942502975E0,1.749555349E0,3.428362896E0
6.003587198E0,2.416260242E-1,-2.884403229E0,1.777657747E0,3.396797343E0
6.013569021E0,3.730530739E-1,-2.786259651E0,1.847388625E0,3.363815716E0
6.023570323E0,5.718412399E-1,-2.659894466E0,1.959331870E0,3.352763391E0
6.033569802E0,1.543577194E0,-2.502195835E0,2.639711857E0,3.951163530E0
6.043572718E0,1.748869061E0,-1.686348438E0,2.703001738E0,3.634354474E0
6.053572198E0,3.639588356E0,-1.557767868E0,2.765142918E0,4.829001914E0
6.063572979E0,3.754058838E0,-1.406313419E0,2.820348978E0,4.901534816E0
6.073613343E0,3.706856012E0,-5.244965553E-1,2.875034332E0,4.720349621E0
6.083568812E0,3.817289591E0,-3.780741692E-1,2.924933910E0,4.823886221E0
6.093573500E0,3.935714960E0,3.266825676E-1,2.990867138E0,4.953974161E0
6.103569593E0,4.030838490E0,3.992571831E-1,3.036105633E0,5.062114444E0
6.113568812E0,3.924876690E0,4.908480644E-1,3.089997292E0,5.019329847E0
6.123571156E0,4.026647568E0,5.799665451E-1,3.170386314E0,5.157674012E0
6.133566729E0,4.127168655E0,6.829876900E-1,3.264753103E0,5.306468328E0
6.143565948E0,4.226196289E0,7.933754921E-1,3.370510101E0,5.463562765E0
6.153567250E0,4.331351757E0,8.956370354E-1,3.494339943E0,5.636770829E0
6.163593812E0,4.233620167E0,1.005230427E0,3.630609512E0,5.667040970E0
6.173621416E0,4.333866119E0,1.117114544E0,3.764421225E0,5.848179854E0
6.183584958E0,4.431801796E0,1.240863800E0,3.904156685E0,6.035151162E0
6.193575791E0,4.527152061E0,1.364766598E0,4.044713020E0,6.222330518E0
6.203573187E0,4.619185925E0,1.502754688E0,4.175575733E0,6.405511920E0
6.213577666E0,6.055533886E0,1.628622055E0,4.308020592E0,7.607952541E0
6.223572979E0,6.134066582E0,1.737461090E0,4.428934097E0,7.762795959E0
6.233579229E0,6.221479416E0,1.853817940E0,4.532129765E0,7.917300505E0
6.243581573E0,6.308895588E0,1.959239006E0,4.630065918E0,8.067111715E0
6.253580271E0,6.445539474E0,2.109733105E0,4.740532875E0,8.274575810E0
6.263575583E0,6.530977249E0,2.180878162E0,4.794813633E0,8.390478602E0
6.273618291E0,6.600753784E0,2.239983559E0,4.849619865E0,8.491542245E0
6.283580531E0,6.671321392E0,2.298141479E0,4.899686813E0,8.590396629E0
6.293578708E0,6.732414246E0,2.355062485E0,4.955157280E0,8.684774295E0
6.303575062E0,6.789156437E0,2.390202045E0,5.021286011E0,8.776048322E0
6.313576364E0,6.843300819E0,2.417521000E0,5.084261417E0,8.861426976E0
6.323578187E0,6.893858910E0,2.441399097E0,5.140453815E0,8.939238538E0
6.333577927E0,6.946301937E0,2.452610970E0,5.185419083E0,9.008606009E0
6.343582875E0,6.985626221E0,2.462453842E0,5.215330124E0,9.058825582E0
6.353586521E0,7.023445129E0,2.476162910E0,5.236587524E0,9.103955906E0
6.363566468E0,7.059715271E0,2.502758503E0,5.249834061E0,9.146810236E0
6.373616885E0,7.094443321E0,2.530583382E0,5.251025677E0,9.181952349E0
6.383568760E0,7.108159065E0,2.569146633E0,5.241475582E0,9.197798976E0
6.393574281E0,7.123269081E0,2.612342358E0,5.212182999E0,9.205006605E0
6.403580271E0,7.129679680E0,2.659412861E0,5.185639381E0,9.208456162E0
6.413578708E0,7.138070583E0,2.694919109E0,5.161594868E0,9.211769767E0
6.423567771E0,7.143197536E0,2.729993343E0,5.138954639E0,9.213413563E0
6.433570896E0,7.155780792E0,2.765251160E0,5.118656635E0,9.222388979E0
6.443569854E0,7.192141533E0,2.807882309E0,5.113300800E0,9.260504736E0
6.453566989E0,7.210042953E0,2.828060627E0,5.124541283E0,9.286741606E0
6.463569073E0,7.219120979E0,2.845433712E0,5.138740063E0,9.306924850E0
6.473576104E0,7.220362186E0,2.855308056E0,5.146007061E0,9.314923664E0
6.483566989E0,7.208685398E0,2.872012615E0,5.163519859E0,9.320704854E0
6.493568812E0,7.180552959E0,2.884573460E0,5.180210114E0,9.312125518E0
6.503566989E0,7.144953251E0,2.890808582E0,5.192508698E0,9.293507292E0
6.513566729E0,7.102254868E0,2.890863895E0,5.201678276E0,9.265882319E0
6.523571416E0,7.058764458E0,2.881165981E0,5.198436737E0,9.227730901E0
6.533613448E0,7.008706093E0,2.861874104E0,5.195727348E0,9.181931559E0
6.543576573E0,6.957744122E0,2.834128857E0,5.203395367E0,9.138808072E0
6.553556156E0,6.911326885E0,2.804366589E0,5.218874454E0,9.103162190E0
6.563567718E0,6.863989353E0,2.772844315E0,5.236405849E0,9.067687779E0
6.573573760E0,6.815386295E0,2.744176388E0,5.256441116E0,9.033834602E0
6.583572458E0,6.774061203E0,2.721714973E0,5.268637657E0,9.003009516E0
6.593567771E0,6.741602898E0,2.702109337E0,5.278415203E0,8.978433692E0
6.603570896E0,6.722156048E0,2.685393810E0,5.275657654E0,8.957191833E0
6.613568812E0,6.709383965E0,2.676310539E0,5.262048721E0,8.936869028E0
6.623492093E0,6.676619530E0,2.656386375E0,5.240627766E0,8.893695312E0
6.633568552E0,6.657598495E0,2.641510963E0,5.213675499E0,8.859097590E0
6.643566989E0,6.540492058E0,2.591064453E0,5.110716343E0,8.695462776E0
6.653568552E0,6.422188759E0,2.533273697E0,5.006824970E0,8.528204991E0
6.663564906E0,6.293765068E0,2.488927841E0,4.901244640E0,8.356341278E0
6.673569333E0,6.146815777E0,2.446116924E0,4.800069809E0,8.173585650E0
6.683566989E0,6.003734589E0,2.395262241E0,4.697976112E0,7.990812835E0
6.693568031E0,5.873590469E0,2.346870422E0,4.590973854E0,7.815619407E0
6.703569333E0,5.745644093E0,2.306012154E0,4.488684177E0,7.647117348E0
6.713686104E0,5.624277592E0,2.271233559E0,4.396519661E0,7.491354046E0
6.723563968E0,5.522984505E0,2.236574650E0,4.308998108E0,7.353440603E0
6.733560010E0,5.425252438E0,2.212182999E0,4.239952087E0,7.232171965E0
6.743573448E0,5.335930824E0,2.182339191E0,4.187335491E0,7.125204602E0
6.753567510E0,5.259211540E0,2.162685394E0,4.138594151E0,7.033098583E0
6.763568291E0,5.188703537E0,2.156628132E0,4.098169327E0,6.954759602E0
6.773574802E0,5.124276161E0,2.153275013E0,4.063724041E0,6.885394146E0
6.783568552E0,5.059515953E0,2.156141758E0,4.021337986E0,6.813134973E0
6.793570896E0,4.994071007E0,2.154369354E0,3.981659889E0,6.740598490E0
6.803568552E0,4.935114861E0,2.193033695E0,3.959366322E0,6.696367459E0
6.813567510E0,4.872678757E0,2.201420784E0,3.917861938E0,6.628641935E0
6.823571416E0,4.809636116E0,2.204234600E0,3.893773079E0,6.569072882E0
6.833571677E0,4.760566711E0,2.206876755E0,3.880294085E0,6.526100107E0
6.843568291E0,4.724171162E0,2.214974403E0,3.874338627E0,6.498800241E0
6.853569073E0,4.707862854E0,2.227074623E0,3.890537262E0,6.500777970E0
6.863567510E0,4.704477310E0,2.243055820E0,3.915342331E0,6.518689419E0
6.873570375E0,4.726304054E0,2.266757011E0,4.462383270E0,6.883967011E0
6.883566989E0,5.332550049E0,2.292640686E0,4.428288937E0,7.300824217E0
6.893572510E0,5.319351196E0,2.329254150E0,4.385170937E0,7.276719466E0
6.903577406E0,5.340512276E0,2.370470047E0,4.333716393E0,7.274702563E0
6.913567041E0,5.960405350E0,2.410883427E0,4.269667149E0,7.718085798E0
6.923578916E0,5.935620308E0,2.962900162E0,4.179817200E0,7.840997234E0
6.933568031E0,6.015480042E0,2.993933678E0,4.115079880E0,7.879309704E0
6.943569333E0,6.617167473E0,3.036525726E0,4.012248039E0,8.312973486E0
6.953567250E0,6.618894100E0,3.062319756E0,3.881859303E0,8.261742736E0
6.963576104E0,6.601743221E0,3.076590061E0,3.045525551E0,7.894532655E0
6.973571156E0,6.574959755E0,3.056514263E0,2.935396433E0,7.822335165E0
6.983568291E0,6.444306850E0,2.909545422E0,2.010025263E0,7.350833075E0
6.993568812E0,6.264270306E0,2.048914433E0,7.705659866E-1,6.635729406E0
7.003569593E0,5.050962925E0,1.876287937E0,-1.292109489E-1,5.389747523E0
7.013569333E0,4.041780472E0,5.203051567E-1,-1.226691961E0,4.255758453E0
7.023572198E0,2.733734131E0,-5.458006859E-1,-2.347553253E0,3.644476226E0
7.033568552E0,1.627364039E0,-1.903737068E0,-3.450015068E0,4.263230291E0
7.043569073E0,-1.244207025E0,-3.409712553E0,-4.324776649E0,5.646050290E0
7.053568291E0,-3.904527664E0,-5.309791565E0,-4.431064606E0,7.941886192E0
7.063569854E0,-7.064479351E0,-6.592649937E0,-4.469611168E0,1.064647010E1
7.073598604E0,-1.044387627E1,-8.136589050E0,-4.364276409E0,1.394006963E1
7.083579802E0,-1.365769005E1,-9.645281792E0,-3.469604254E0,1.707636120E1
7.093583500E0,-1.622295189E1,-1.123047543E1,-2.075217009E0,1.983971451E1
7.103567718E0,-1.779162407E1,-1.280559540E1,-2.002584696E0,2.201216723E1
7.113573239E0,-1.772260666E1,-1.510064888E1,-2.888643742E-1,2.328527058E1
7.123578448E0,-1.628740692E1,-1.500000000E1,5.020878315E-1,2.214795061E1
7.133580271E0,-1.266602230E1,-1.605426788E1,6.947877407E-1,2.046094739E1
7.143579229E0,-7.187659264E0,-1.592310905E1,1.917075872E0,1.757506835E1
7.153579750E0,1.655123234E-1,-1.450885010E1,2.939543724E0,1.480456155E1
7.163576885E0,1.523722649E1,-9.340610504E0,5.701622009E0,1.875975930E1
7.173590166E0,2.217738342E1,-5.692744255E0,6.722629547E0,2.386288794E1
7.183579229E0,2.799250221E1,-1.881119490E0,7.819201469E0,2.912488115E1
7.193578968E0,3.222889328E1,1.934249401E0,7.852519512E0,3.322807466E1
7.203577406E0,3.449578476E1,6.051858902E0,7.594211578E0,3.583652064E1
7.213588864E0,3.433192444E1,7.900591850E0,8.293601036E0,3.619232246E1
7.223577666E0,3.356124115E1,9.249092102E0,7.800530434E0,3.567563436E1
7.233579229E0,3.042210960E1,9.209097862E0,7.219459057E0,3.259498160E1
7.243577927E0,2.693359756E1,9.012472153E0,5.869211674E0,2.900156854E1
7.253608656E0,2.316547585E1,7.975528717E0,5.755869865E0,2.516700950E1
7.263568500E0,1.943516350E1,6.911696911E0,5.907693386E0,2.145688644E1
7.273577146E0,1.585149097E1,5.601942062E0,6.064842224E0,1.787271194E1
7.283573448E0,1.241444588E1,5.576822281E0,6.207675934E0,1.495843086E1
7.293576104E0,8.190304756E0,3.433657169E0,6.325687408E0,1.090345884E1
7.303582093E0,5.988630295E0,2.329555988E0,6.324533463E0,9.016110438E0
7.313567979E0,3.192159891E0,1.313234329E0,4.976887703E0,6.056721917E0
7.323577666E0,7.839143276E-1,4.092383385E-1,4.237154961E0,4.328450052E0
7.333578968E0,-2.037864923E0,-2.901792526E-1,4.090063095E0,4.578833210E0
7.343587823E0,-3.746079206E0,-1.116497993E0,3.184238672E0,5.041731162E0
7.353579489E0,-4.445551872E0,-1.160836697E0,3.095687151E0,5.540194240E0
7.363581573E0,-4.466980934E0,-1.167459011E0,2.995805979E0,5.503792572E0
7.373577146E0,-4.439183235E0,-1.157974243E0,2.905943871E0,5.430631816E0
7.383579489E0,-4.343548775E0,-1.132313013E0,2.805830479E0,5.293508609E0
7.393575323E0,-4.167047977E0,-1.084079742E0,2.702166319E0,5.083426064E0
7.403577406E0,-3.945124626E0,-1.021360874E0,2.606104374E0,4.837247808E0
7.413576104E0,-3.057919502E0,-9.483528137E-1,2.509717226E0,4.068037032E0
7.423581573E0,-2.821267128E0,-8.653144836E-1,2.423312902E0,3.818476501E0
7.433590687E0,-9.658400416E-1,-7.658326626E-1,2.334650755E0,2.640064545E0
7.443566937E0,-9.919443727E-1,-6.579065323E-1,2.250618219E0,2.545992343E0
7.453690010E0,-8.178765774E-1,3.156471252E-2,2.180095911E0,2.328677008E0
7.463568760E0,-6.437943578E-1,1.012740135E-1,2.121712446E0,2.219547545E0
7.473571104E0,-4.694627225E-1,1.732573509E-1,2.070423603E0,2.130039261E0
7.483568031E0,-2.965376377E-1,2.531781197E-1,2.029792786E0,2.066904082E0
7.493570375E0,-3.550545573E-1,3.407273293E-1,1.995203018E0,2.054992442E0
7.503569333E0,-2.085777521E-1,4.194412231E-1,1.963477135E0,2.018583186E0
7.513574854E0,-6.433955580E-2,4.976105690E-1,1.937461376E0,2.001377636E0
7.523571416E0,1.163880825E-1,6.212625504E-1,1.921053410E0,2.022364840E0
7.533565427E0,5.562774837E-2,6.817712784E-1,1.915070057E0,2.033568254E0
7.543571416E0,1.924317181E-1,7.526321411E-1,1.898405075E0,2.051201339E0
7.553567771E0,3.264282644E-1,8.219995499E-1,1.887922287E0,2.084823550E0
7.563568812E0,4.580280483E-1,8.958005905E-1,1.872321606E0,2.125520309E0
7.573571677E0,5.872983932E-1,9.739060402E-1,1.871495724E0,2.189956306E0
7.583566208E0,5.135267973E-1,1.050612450E0,1.859270573E0,2.196447895E0
7.593567771E0,6.382154226E-1,1.632452965E0,1.837320805E0,2.539285204E0
7.603567250E0,7.605064511E-1,1.642402172E0,1.806958199E0,2.557528668E0
7.613578448E0,8.802637458E-1,1.654394150E0,1.764583588E0,2.574031760E0
7.624126833E0,9.975200891E-1,1.658276081E0,1.731477261E0,2.596717041E0
7.633756677E0,9.121446609E-1,1.663460732E0,1.698038101E0,2.546064194E0
7.643584802E0,1.024335027E0,1.666124821E0,1.673012018E0,2.573752781E0
7.653567510E0,1.137345076E0,1.654985428E0,1.658545971E0,2.604477937E0
7.663571156E0,1.247086048E0,1.643600941E0,1.664757013E0,2.651049524E0
7.673573760E0,1.353472114E0,1.626367569E0,1.679943562E0,2.701697356E0
7.683570635E0,1.256890535E0,1.618638515E0,1.707835436E0,2.667670583E0
7.693567771E0,1.357229710E0,1.614804745E0,1.736532688E0,2.732254129E0
7.703569333E0,1.454255342E0,1.618711472E0,1.766376019E0,2.802707560E0
7.713568291E0,1.588373899E0,1.651408672E0,1.774588585E0,2.898145423E0
7.723571156E0,1.480359316E0,1.676679134E0,1.792656898E0,2.866415075E0
7.733570375E0,1.569936037E0,1.702204704E0,1.797298670E0,2.931293661E0
7.743568291E0,1.657193065E0,1.732842445E0,1.799950361E0,2.998141607E0
7.753567771E0,1.742260814E0,1.763033867E0,1.815518379E0,3.072436841E0
7.763568552E0,1.825209498E0,1.787924767E0,1.837418318E0,3.147089252E0
7.773570114E0,1.705778956E0,1.813288689E0,1.873888731E0,3.115951972E0
7.783567771E0,1.785224438E0,1.838261127E0,1.919892550E0,3.201908441E0
7.793568031E0,1.862618685E0,1.862890244E0,1.973730803E0,3.291704985E0
7.803589385E0,1.938152790E0,1.877476215E0,2.029453039E0,3.376393463E0
7.813565739E0,2.011903763E0,1.893271923E0,2.091417551E0,3.465005440E0
7.823591625E0,1.884243011E0,1.900104046E0,2.158956766E0,3.438293389E0
7.833575896E0,1.955155253E0,1.904768944E0,2.220735788E0,3.518869738E0
7.843575323E0,2.024334192E0,1.906952381E0,2.268213034E0,3.588758375E0
7.853570635E0,3.074545383E0,1.906096935E0,2.304028988E0,4.288890814E0
7.863573760E0,3.111291409E0,1.908126831E0,2.353309155E0,4.342711850E0
7.873573760E0,3.144178152E0,1.898896217E0,2.393157482E0,4.383932690E0
7.883574541E0,3.159345627E0,1.894148350E0,2.445056677E0,4.421262819E0
7.893571677E0,3.153065205E0,1.901454926E0,2.535642624E0,4.470663769E0
7.903568552E0,3.135827065E0,1.896010876E0,2.576082706E0,4.479338202E0
7.913570375E0,2.038448095E0,1.889673233E0,2.626847982E0,3.824456287E0
7.923575062E0,2.074149370E0,1.882780075E0,2.676526070E0,3.874370687E0
7.933569593E0,2.110270739E0,1.876319885E0,2.714434385E0,3.916883064E0
7.943568291E0,2.146342039E0,1.869670391E0,2.747499466E0,3.956160365E0
7.953569333E0,2.182345629E0,1.857946396E0,2.761657000E0,3.980118922E0
7.963569333E0,2.018766165E0,1.841808796E0,2.769063711E0,3.890422895E0
7.973577146E0,2.055361748E0,1.826912880E0,2.765560389E0,3.900057288E0
7.983672041E0,2.115054369E0,1.812079906E0,2.766963959E0,3.925962063E0
7.993571885E0,2.143752098E0,1.773622513E0,2.719780684E0,3.890837550E0
8.003560687E0,2.170885324E0,1.736341953E0,2.665728569E0,3.851458850E0
8.013570896E0,2.001288176E0,1.691387177E0,2.619893789E0,3.705372911E0
8.023575323E0,2.030130386E0,1.643913269E0,2.571909428E0,3.665869382E0
8.033571156E0,2.057901621E0,1.595046043E0,2.531013489E0,3.631137596E0
8.043571677E0,2.084416151E0,1.554396152E0,2.472483873E0,3.588051643E0
8.053573239E0,2.109820127E0,1.516252995E0,2.417938232E0,3.549195600E0
8.063570114E0,1.937293887E0,1.484765053E0,2.372187614E0,3.403661109E0
8.073575583E0,2.002857447E0,1.436485767E0,2.305407047E0,3.374882363E0
8.083570375E0,2.027395964E0,1.405061245E0,2.262819290E0,3.347369510E0
8.093573239E0,2.050686121E0,1.374829769E0,2.227388859E0,3.325166400E0
8.103569593E0,1.876066208E0,1.340499401E0,2.188995838E0,3.179349908E0
8.113571677E0,1.900094986E0,1.302516460E0,2.167620420E0,3.163145329E0
8.123574021E0,1.923146009E0,1.276390553E0,2.145929575E0,3.151615008E0
8.133566729E0,1.945143580E0,1.255529881E0,2.124152184E0,3.141967748E0
8.143569854E0,1.965999126E0,1.234264374E0,2.097633600E0,3.128678288E0
8.153568812E0,1.788012385E0,1.207622528E0,2.066829443E0,2.987829380E0
8.163689489E0,1.810330868E0,1.177148819E0,2.032543421E0,2.965503322E0
8.173579125E0,1.832037330E0,1.148543358E0,1.994484425E0,2.941679918E0
8.183565635E0,1.852936029E0,1.116527081E0,1.963142395E0,2.921289564E0
8.193566677E0,1.871767282E0,1.081149578E0,1.932857752E0,2.899713134E0
8.203579177E0,1.693277001E0,1.043349743E0,1.903555870E0,2.753051151E0
8.213568812E0,1.715171695E0,1.003625393E0,1.880372286E0,2.735850472E0
8.223570896E0,1.736348033E0,9.623003006E-1,1.866871357E0,2.725093581E0
8.233570375E0,1.757108331E0,9.345102310E-1,1.861333132E0,2.724940382E0
8.243570896E0,1.776208878E0,9.136223793E-1,1.857217312E0,2.727431021E0
8.253570375E0,1.637313247E0,9.048519135E-1,1.856633663E0,2.635647968E0
8.263571937E0,1.658960342E0,8.990139961E-1,1.836553097E0,2.633116568E0
8.273571677E0,1.680087805E0,8.973493576E-1,1.815258503E0,2.631177367E0
8.283572718E0,1.700242162E0,8.983898163E-1,1.793997049E0,2.629896021E0
8.293567771E0,1.521704316E0,9.066343307E-1,1.777073860E0,2.509095722E0
8.303567771E0,1.543924093E0,9.171109200E-1,1.763784170E0,2.517087333E0
8.313566468E0,1.565480947E0,9.242739677E-1,1.748833895E0,2.522584579E0
8.323572979E0,1.586211085E0,9.282259941E-1,1.737699509E0,2.529282247E0
8.333567771E0,1.606344461E0,9.296855927E-1,1.729545116E0,2.536924149E0
8.343568396E0,1.427843809E0,9.283590317E-1,1.729131222E0,2.427031771E0
8.353586781E0,1.449912310E0,9.249320030E-1,1.721395016E0,2.433299348E0
8.363572771E0,1.471213818E0,9.098577499E-1,1.712009907E0,2.433780833E0
8.373574229E0,1.491785288E0,8.943734169E-1,1.696480751E0,2.429686007E0
8.383568812E0,1.510630131E0,8.788509369E-1,1.679761887E0,2.424042565E0
8.393569333E0,1.332325339E0,8.682589531E-1,1.662282944E0,2.300467127E0
8.403570635E0,1.354670525E0,8.572726250E-1,1.649181843E0,2.299967246E0
8.413570114E0,1.376524568E0,8.510046005E-1,1.629596233E0,2.296652477E0
8.423574541E0,1.397861004E0,8.534789085E-1,1.609485626E0,2.296276467E0
8.433578968E0,1.260102153E0,8.590893745E-1,1.595658302E0,2.207264689E0
8.443578448E0,1.281900287E0,8.567028046E-1,1.568810940E0,2.199630834E0
8.453580531E0,1.304484844E0,8.384857178E-1,1.542784214E0,2.187446488E0
8.463588083E0,1.326550484E0,8.161149025E-1,1.512622356E0,2.171130146E0
8.473582354E0,1.348237514E0,7.998876572E-1,1.469319820E0,2.148596145E0
8.483578968E0,1.171380758E0,7.839970589E-1,1.424216747E0,2.003790811E0
8.493578187E0,1.195489287E0,7.589826584E-1,1.382996082E0,1.979375527E0
8.503575843E0,1.219092369E0,7.358698845E-1,1.339936256E0,1.955279996E0
8.513573864E0,1.242132425E0,7.191743851E-1,1.300302029E0,1.936721488E0
8.523611781E0,1.264638424E0,7.032313347E-1,1.263670921E0,1.921121769E0
8.533568187E0,1.088673830E0,6.975340843E-1,1.219812393E0,1.777556407E0
8.543591312E0,1.113580227E0,6.909813881E-1,1.180190563E0,1.763622966E0
8.553577875E0,1.137939453E0,6.738295555E-1,1.144260406E0,1.748795113E0
8.563569073E0,1.161745310E0,6.573863029E-1,1.121033669E0,1.743136656E0
8.573578448E0,1.183586359E0,6.508111954E-1,1.094502449E0,1.738495756E0
8.583576885E0,1.008248448E0,6.528635025E-1,1.079804420E0,1.615169735E0
8.593574021E0,1.033681750E0,6.479759216E-1,1.065837860E0,1.619994167E0
8.603577927E0,1.058533669E0,6.414198875E-1,1.057749271E0,1.628111335E0
8.613576885E0,1.122156620E0,6.486840248E-1,1.048204422E0,1.666960994E0
8.623493552E0,9.473209977E-1,6.479158401E-1,1.053824902E0,1.558126738E0
8.633576885E0,9.720441699E-1,6.406154633E-1,1.052262306E0,1.569239944E0
8.643575062E0,9.977844954E-1,6.183724403E-1,1.058911324E0,1.580902137E0
8.653575843E0,1.023013592E0,5.831027031E-1,1.062944412E0,1.586321656E0
8.663575583E0,1.047740221E0,5.414652824E-1,1.069612503E0,1.592173084E0
8.673567510E0,8.739885092E-1,5.090217590E-1,1.078109264E0,1.478268802E0
8.683591729E0,9.011024237E-1,4.752793312E-1,1.088210583E0,1.490663709E0
8.693566729E0,9.276527166E-1,4.451699257E-1,1.094770908E0,1.502411118E0
8.703580010E0,9.536934495E-1,4.184589386E-1,1.088359833E0,1.506375187E0
8.713566260E0,9.795627594E-1,3.951721191E-1,1.079944134E0,1.510623558E0
8.723600791E0,8.079788685E-1,3.838186264E-1,1.060965538E0,1.387729968E0
8.733571625E0,8.357267380E-1,3.882446289E-1,1.041766167E0,1.390845002E0
8.743568448E0,8.630070686E-1,4.016361237E-1,1.017346859E0,1.393229130E0
8.753568291E0,8.897643089E-1,4.033565521E-1,9.933791161E-1,1.393262036E0
8.763566989E0,9.159510136E-1,4.089159966E-1,9.657583237E-1,1.392432293E0
8.773567510E0,7.449721694E-1,4.177532196E-1,9.447255135E-1,1.273580614E0
8.783590948E0,7.735503912E-1,4.293613434E-1,9.246368408E-1,1.279720539E0
8.793568291E0,8.409063816E-1,4.653768539E-1,9.213018417E-1,1.331351284E0
8.803566468E0,8.676757812E-1,4.879479408E-1,9.052667618E-1,1.345534230E0
8.813571156E0,6.974395514E-1,5.162501335E-1,9.037904739E-1,1.252905962E0
8.823571677E0,7.268108130E-1,5.541272163E-1,9.246444702E-1,1.300107044E0
8.833568552E0,7.553918362E-1,5.946912766E-1,9.702339172E-1,1.365880081E0
8.843568291E0,7.836437225E-1,6.475691795E-1,1.055828094E0,1.465679464E0
8.853566729E0,8.111733198E-1,7.201437950E-1,1.861506939E0,2.154487717E0
8.863569073E0,6.401357055E-1,1.379149437E0,1.943129539E0,2.467302028E0
8.873566989E0,2.157094479E0,1.440524101E0,2.741028786E0,3.773778621E0
8.883624281E0,2.864289284E0,1.528596401E0,2.845876694E0,4.317380481E0
8.893563343E0,3.859466314E0,2.380422592E0,4.687835217E0,6.522092530E0
8.903704958E0,5.172811985E0,2.499932766E0,4.696499348E0,7.420562902E0
8.913568760E0,6.680885315E0,3.522033691E0,4.589427471E0,8.837521962E0
8.923566573E0,8.167653084E0,3.536530018E0,4.593644142E0,1.001594569E1
8.933569073E0,1.029439926E1,3.562463760E0,4.578879356E0,1.181659597E1
8.943571416E0,1.021294594E1,4.636858463E0,4.563132763E0,1.210895957E1
8.953567250E0,1.124763966E1,4.727223873E0,3.463177681E0,1.268265126E1
8.963569333E0,1.113309383E1,4.768523693E0,2.529639244E0,1.237269862E1
8.973570896E0,1.083165932E1,4.651090145E0,3.152632713E-1,1.179223787E1
8.983588083E0,9.242128372E0,3.571342945E0,-8.168730736E-1,9.941765884E0
8.993570114E0,8.973666191E0,3.600901604E0,-1.878943443E0,9.850056128E0
9.003568812E0,6.774246216E0,1.726117611E0,-2.785222530E0,7.525115171E0
9.013567771E0,5.115679741E0,4.313116074E-1,-3.534012794E0,6.232612241E0
9.023567510E0,3.342103004E0,-1.015267372E0,-3.644518852E0,5.048062796E0
9.033569593E0,1.360484719E0,-2.621305704E0,-5.048990726E0,5.849313603E0
9.043569854E0,-9.729119539E-1,-4.446725368E0,-4.914929867E0,6.698989459E0
9.053566729E0,-3.691896915E0,-6.250247002E0,-4.961127281E0,8.792523774E0
9.063585739E0,-6.969395638E0,-9.045504570E0,-4.789885998E0,1.238291712E1
9.073571364E0,-1.079613400E1,-1.160309601E1,-6.356580257E0,1.707613712E1
9.083611573E0,-1.519775009E1,-1.406859398E1,-6.287942886E0,2.164336319E1
9.093593135E0,-2.000060463E1,-1.588990688E1,-6.182389736E0,2.628184296E1
9.103569541E0,-2.463530350E1,-1.858487701E1,-6.008646011E0,3.143882407E1
9.113570635E0,-2.862253380E1,-2.075924683E1,-4.382659435E0,3.562868891E1
9.123572718E0,-3.132774734E1,-2.283704758E1,-4.346062660E0,3.901085434E1
9.133573239E0,-3.238877106E1,-2.480960655E1,-4.368568420E0,4.103210277E1
9.143571416E0,-3.088331985E1,-2.676485062E1,-4.521434307E0,4.111666380E1
9.153568552E0,-2.003641129E1,-2.926588058E1,-3.077290773E0,3.560083232E1
9.163568552E0,-1.010661411E1,-2.888935852E1,-2.086511135E0,3.067722630E1
9.173567510E0,-7.199101448E-1,-2.639845085E1,-5.563392639E-1,2.641412485E1
9.183590166E0,9.936018944E0,-2.253666115E1,1.371743202E0,2.466793967E1
9.193567250E0,1.919232750E1,-1.836691093E1,3.830857754E0,2.683960363E1
9.203568291E0,2.758241272E1,-1.391188431E1,6.042171001E0,3.147757689E1
9.213569593E0,3.429677582E1,-7.204891205E0,7.936446667E0,3.593280499E1
9.223570375E0,3.940523911E1,-1.134703159E-1,8.924358368E0,4.040334042E1
9.233566989E0,4.160102081E1,6.255054474E0,9.347518921E0,4.309462552E1
9.243566208E0,4.100558090E1,1.122726536E1,8.979844093E0,4.345281064E1
9.253590166E0,3.938951492E1,1.450262260E1,8.111951828E0,4.275118373E1
9.263580114E0,3.673561859E1,1.578767967E1,6.946273327E0,4.058333668E1
9.273569385E0,3.364350891E1,1.582528782E1,5.749391556E0,3.762154874E1
9.283591156E0,2.988647079E1,1.565252686E1,4.773340702E0,3.407326687E1
9.293573500E0,2.566547775E1,1.400690651E1,4.026097298E0,2.951473594E1
9.303572979E0,2.026146507E1,1.127151871E1,4.191848278E0,2.356152993E1
9.313570896E0,1.544520378E1,8.690563202E0,3.094088554E0,1.799037500E1
9.323569073E0,1.126870632E1,6.795696259E0,3.485082150E0,1.361289930E1
9.333573239E0,6.800855637E0,4.254355907E0,2.648211956E0,8.447733906E0
9.343570896E0,2.133929253E0,1.212134361E0,1.130818367E0,2.702160977E0
9.353570375E0,9.315347672E-2,5.455017090E-2,4.412064552E-1,4.542206815E-1
9.363567510E0,-1.464390635E0,-2.881169319E-1,-2.594408989E-1,1.514846817E0
9.373568031E0,-3.072492838E0,-1.380344629E0,-8.543834686E-1,3.474986999E0
9.383590166E0,-3.151495218E0,-1.571892500E0,-9.470887184E-1,3.646881570E0
9.393565166E0,-4.164901733E0,-1.708050489E0,-1.709101915E0,4.815067215E0
9.403568552E0,-4.220414639E0,-1.810634851E0,-1.725910187E0,4.906023263E0
9.413566729E0,-4.911942959E0,-1.864889383E0,-1.736060619E0,5.533434965E0
9.423567250E0,-4.885666847E0,-1.889033794E0,-1.688610077E0,5.503598206E0
9.433596885E0,-4.850908756E0,-1.896544933E0,-1.556377649E0,5.436038064E0
9.443569281E0,-4.790982246E0,-1.868705273E0,-5.053811073E-1,5.167299134E0
9.453563864E0,-4.710459709E0,-1.815866232E0,-4.007477760E-1,5.064227446E0
9.463559437E0,-4.596097946E0,-1.739907026E0,4.028167725E-1,4.930887764E0
9.473585739E0,-4.444822311E0,-1.131549358E0,4.460501671E-1,4.608232859E0
9.483595896E0,-4.242082596E0,-1.103182077E0,4.706788063E-1,4.408379973E0
9.493568812E0,-4.008371353E0,-1.042808056E0,4.668216705E-1,4.168022555E0
9.503570635E0,-3.744235992E0,-9.649724960E-1,4.143967628E-1,3.888727268E0
9.513577041E0,-2.928941727E0,-2.806634903E-1,2.914705276E-1,2.956759493E0
9.523570114E0,-2.601506710E0,-1.358504295E-1,-5.592751503E-1,2.664410103E0
9.533566989E0,-2.304200888E0,5.037875175E-1,-6.178984642E-1,2.438225196E0
9.543569073E0,-7.892196178E-1,5.458631516E-1,-6.595988274E-1,1.164433252E0
9.553568031E0,-5.453417301E-1,5.989203453E-1,-6.653175354E-1,1.048213054E0
9.563568291E0,-3.103559613E-1,6.602058411E-1,-6.282787323E-1,9.627703468E-1
9.573569073E0,-2.777837515E-1,7.154917717E-1,-5.540256500E-1,9.465921555E-1
9.583588083E0,-5.029689893E-2,7.633366585E-1,-4.446616173E-1,8.848370393E-1
9.593567250E0,1.710680276E-1,7.837128639E-1,-3.188881874E-1,8.632263893E-1
9.603570635E0,3.517728746E-1,8.109169006E-1,-1.997003555E-1,9.062067132E-1
9.613633239E0,5.280346274E-1,8.339390755E-1,-9.051084518E-2,9.911948156E-1
9.623806416E0,5.019753575E-1,8.487734795E-1,5.156993866E-3,9.861147365E-1
9.633556000E0,6.730743051E-1,8.670854568E-1,8.369493484E-2,1.100850150E0
9.643566937E0,8.391599655E-1,8.779153824E-1,1.529054642E-1,1.224052673E0
9.653571677E0,1.002362490E0,8.937740326E-1,2.078204155E-1,1.358952504E0
9.663571156E0,1.162433386E0,9.190945625E-1,2.649559975E-1,1.505386287E0
9.673573760E0,1.120556951E0,9.474363327E-1,3.247795105E-1,1.502918898E0
9.683617250E0,1.274306417E0,9.590616226E-1,3.865075111E-1,1.641049693E0
9.693579229E0,1.423608780E0,9.711236954E-1,4.593520164E-1,1.783465016E0
9.703577666E0,1.608659387E0,1.029253006E0,5.631852150E-1,1.991061114E0
9.713575062E0,1.549782157E0,1.022026062E0,6.657257080E-1,1.972194900E0
9.723579489E0,1.686406612E0,1.012589931E0,7.694363594E-1,2.112187952E0
9.733579489E0,1.818673730E0,9.971299171E-1,8.634181023E-1,2.246627033E0
9.743577146E0,1.946666837E0,9.765462875E-1,9.584574699E-1,2.379452699E0
9.753576104E0,2.070719957E0,9.566717148E-1,1.049187183E0,2.510755993E0
9.763575843E0,1.990971923E0,9.394927025E-1,1.128282547E0,2.473790056E0
9.773577146E0,2.108492613E0,9.186148643E-1,1.194307327E0,2.591517771E0
9.783614385E0,2.222369671E0,9.147386551E-1,1.252414227E0,2.710021246E0
9.793563968E0,2.332130671E0,9.152021408E-1,1.304085255E0,2.824370155E0
9.803562458E0,2.438226461E0,9.054989815E-1,1.354009151E0,2.932271724E0
9.813563916E0,2.340604782E0,8.956398964E-1,1.413097858E0,2.877055288E0
9.823568239E0,2.439531088E0,8.914241791E-1,1.459517002E0,2.979284960E0
9.833579750E0,2.534987211E0,8.919692039E-1,1.504616261E0,3.079876509E0
9.843584177E0,2.627179384E0,8.915557861E-1,1.553628445E0,3.179733413E0
9.853580271E0,2.716466665E0,8.857445717E-1,1.610433340E0,3.279821662E0
9.863577406E0,2.603466749E0,8.851137161E-1,1.668825150E0,3.216588687E0
9.873580531E0,2.687597990E0,8.740544319E-1,1.718920946E0,3.307845723E0
9.883611260E0,2.808928967E0,8.766360283E-1,1.781409502E0,3.439766341E0
9.893580010E0,2.887926817E0,8.754143715E-1,1.848813772E0,3.539008899E0
9.903576625E0,2.764865637E0,8.687348366E-1,1.916049242E0,3.474251992E0
9.913571677E0,2.839535236E0,8.624801636E-1,1.982646227E0,3.568994039E0
9.923569333E0,2.911956072E0,8.565664291E-1,2.043621778E0,3.659178075E0
9.933568552E0,2.982238293E0,8.460946083E-1,2.104372263E0,3.746732435E0
9.943572198E0,3.050578117E0,8.463730812E-1,2.169674873E0,3.837950403E0
9.953564646E0,2.916179895E0,8.410177231E-1,2.223514557E0,3.762370659E0
9.963577406E0,2.981812477E0,8.373475075E-1,2.262002230E0,3.835232794E0
9.973568812E0,3.045674562E0,8.438758850E-1,2.277545214E0,3.895570850E0
9.983612146E0,3.107922792E0,8.496150970E-1,2.297297478E0,3.957095601E0
9.993577927E0,3.123488188E0,8.326931000E-1,2.283010721E0,3.957485845E0
1.000356715E1,2.940917015E0,8.165001869E-1,2.262717009E0,3.799414916E0
1.001357084E1,2.956784487E0,8.005690575E-1,2.237789154E0,3.793571617E0
1.002357246E1,2.971294880E0,7.753539085E-1,2.208738089E0,3.782630155E0
1.003357064E1,2.984685659E0,7.521023750E-1,2.185467243E0,3.774953449E0
1.004356907E1,2.996830940E0,7.254915237E-1,2.162616491E0,3.766197515E0
1.005356829E1,2.811228275E0,6.913614273E-1,2.149581194E0,3.605784845E0
1.006356855E1,2.863540173E0,6.256551743E-1,2.106822491E0,3.609710199E0
1.007356777E1,2.874958515E0,5.828871727E-1,2.066965342E0,3.588521930E0
1.008359121E1,2.885093689E0,5.344820023E-1,2.030488968E0,3.568237948E0
1.009357064E1,2.697688103E0,4.915986061E-1,1.991314888E0,3.388882599E0
1.010356959E1,2.709457874E0,4.489688873E-1,1.935033798E0,3.359626592E0
1.011356829E1,2.720341444E0,4.162683487E-1,1.878540993E0,3.332034389E0
1.012356699E1,2.730052710E0,3.772845268E-1,1.822380543E0,3.304028186E0
1.013356621E1,2.739233971E0,3.336901665E-1,1.775452852E0,3.281308383E0
1.014356751E1,2.549715042E0,2.855448723E-1,1.736540556E0,3.098089052E0
1.015359157E1,2.560590267E0,2.485451698E-1,1.700572252E0,3.083884434E0
1.016357371E1,2.570664644E0,2.257995605E-1,1.661970854E0,3.069437941E0
1.017357662E1,2.580187082E0,2.010083199E-1,1.625921249E0,3.056368701E0
1.018359053E1,2.587909460E0,1.789188385E-1,1.596745729E0,3.046126105E0
1.019356829E1,2.398111105E0,1.541128159E-1,1.569624186E0,2.870262656E0
1.020356699E1,2.408797026E0,1.323890686E-1,1.544296265E0,2.864381422E0
1.021357194E1,2.418557167E0,1.275711060E-1,1.520115614E0,2.859448310E0
1.022357116E1,2.427817345E0,1.184515953E-1,1.501295567E0,2.856959261E0
1.023356829E1,2.435377359E0,1.005001068E-1,1.486862421E0,2.855157266E0
1.024357038E1,2.284701347E0,4.019260406E-2,1.493909121E0,2.730062298E0
1.025356777E1,2.294445992E0,2.944469452E-3,1.515378475E0,2.749702348E0
1.026356907E1,2.303682327E0,-4.358911514E-2,1.545505524E0,2.774425995E0
1.027356907E1,2.312601328E0,-8.350086212E-2,1.592677355E0,2.809220257E0
1.028358652E1,2.122597456E0,-9.461927414E-2,1.669488430E0,2.702140704E0
1.029356803E1,2.133144379E0,-7.538032532E-2,2.382546902E0,3.198830548E0
1.030356621E1,3.128555298E0,-3.695011139E-2,2.460683346E0,3.980475611E0
1.031356647E1,3.822106838E0,3.056573868E-2,3.375250340E0,5.099191093E0
1.032356699E1,4.759183407E0,1.338768005E-1,4.060337543E0,6.257322963E0
1.033358730E1,5.963772774E0,1.041656017E0,4.222214699E0,7.380970798E0
1.034357235E1,7.436631680E0,1.175371170E0,5.650400639E0,9.413395535E0
1.035367834E1,9.060993195E0,2.290555477E0,5.647614002E0,1.091988031E1
1.036358308E1,1.064922142E1,2.450208187E0,5.636533260E0,1.229552537E1
1.037357162E1,1.169038105E1,3.665899754E0,5.600773335E0,1.347117263E1
1.038358834E1,1.332729244E1,3.591689587E0,5.449129581E0,1.483947341E1
1.039357220E1,1.431909180E1,3.604804039E0,5.406161785E0,1.572442645E1
1.040356803E1,1.490208817E1,4.693741322E0,5.339435101E0,1.651099653E1
1.041356829E1,1.473330498E1,4.745011330E0,5.275052071E0,1.635272401E1
1.042357038E1,1.449303150E1,4.663419247E0,3.713576794E0,1.567118674E1
1.043356881E1,1.407918549E1,3.564133644E0,3.531995773E0,1.494662192E1
1.044356621E1,1.296913815E1,3.586195946E0,2.696824074E0,1.372341815E1
1.045357064E1,1.195581150E1,2.262042999E0,2.585031986E0,1.243947979E1
1.046356699E1,1.085250378E1,1.292479515E0,2.458483696E0,1.120229814E1
1.047356829E1,9.017415047E0,1.941289902E-1,1.670428276E0,9.172883451E0
1.048358808E1,8.805885315E0,-1.023669720E0,1.582541943E0,9.005329249E0
1.049357011E1,6.653095722E0,-2.354083776E0,8.866252899E-1,7.112770031E0
1.050356517E1,4.810436726E0,-3.809697151E0,2.141604424E-1,6.140029199E0
1.051358027E1,2.726336956E0,-5.980737686E0,-7.971358299E-1,6.620994034E0
1.052357470E1,2.254407406E-1,-7.080863953E0,-2.005046129E0,7.362721496E0
1.053374788E1,-1.897392869E0,-8.765343666E0,-3.487920523E0,9.622730322E0
1.054357423E1,-5.763838768E0,-1.044079018E1,-4.578146458E0,1.277463744E1
1.055358704E1,-9.015323639E0,-1.199430084E1,-6.427431107E0,1.632333249E1
1.056357116E1,-1.186303425E1,-1.352775192E1,-7.571074009E0,1.952057415E1
1.057357272E1,-1.561950302E1,-1.548158646E1,-8.334356308E0,2.351828839E1
1.058359329E1,-1.903053284E1,-1.535463333E1,-8.413692474E0,2.585954690E1
1.059356829E1,-2.239555931E1,-1.717589760E1,-8.373493195E0,2.943956391E1
1.060356907E1,-2.768892860E1,-1.884911156E1,-6.103438377E0,3.404728673E1
1.061356699E1,-2.892479706E1,-1.962579727E1,-4.959121704E0,3.530451376E1
1.062348616E1,-2.875703239E1,-2.044789886E1,-3.708629608E0,3.548009884E1
1.063356985E1,-2.765839767E1,-2.130672264E1,-2.845628738E0,3.502943041E1
1.064356673E1,-2.451140594E1,-2.210074234E1,-2.194155455E0,3.307667080E1
1.065356673E1,-1.918600082E1,-2.247245026E1,-1.795156002E0,2.960297676E1
1.066356829E1,-1.180015659E1,-2.186400414E1,-1.397404194E0,2.488435474E1
1.067356699E1,-2.896332264E0,-2.020744133E1,-6.585969925E-1,2.042457284E1
1.068358965E1,5.618263245E0,-1.809972000E1,8.221535683E-1,1.896946711E1
1.069356647E1,1.422305298E1,-1.479435444E1,2.440511703E0,2.066698470E1
1.070357225E1,2.231398010E1,-1.064132309E1,3.536739826E0,2.497318549E1
1.071358433E1,3.017802429E1,-5.111368656E0,4.934684753E0,3.100307006E1
1.072356360E1,3.595745850E1,6.387915015E-1,5.128754616E0,3.632700098E1
1.073356881E1,3.941717911E1,6.203906536E0,5.916553497E0,4.033866719E1
1.074357220E1,4.046056747E1,1.015469933E1,5.813149452E0,4.211850122E1
1.075357246E1,3.955604935E1,1.453810596E1,5.594609261E0,4.251278887E1
1.076356777E1,3.610327530E1,1.657626534E1,5.252096653E0,4.007247907E1
1.077357142E1,3.344951630E1,1.669984436E1,4.325891495E0,3.763599712E1
1.078358678E1,3.010709953E1,1.668503761E1,4.223289490E0,3.467944775E1
1.079357142E1,2.273320770E1,1.523238087E1,4.212012291E0,2.768691400E1
1.080356985E1,1.905877495E1,1.393873024E1,4.219131470E0,2.398595784E1
1.081356959E1,1.477792835E1,1.173731709E1,4.195961952E0,1.933281861E1
1.082357064E1,1.109231853E1,9.006981850E0,3.060180187E0,1.461266421E1
1.083356777E1,7.675343513E0,8.528953552E0,3.264522076E0,1.192941956E1
1.084356751E1,5.222993851E0,6.549723625E0,2.082221508E0,8.632160259E0
1.085356725E1,3.044264793E0,5.224543571E0,1.133175850E0,6.152031467E0
1.086356855E1,1.379459858E0,4.185506821E0,2.365312576E-1,4.413312121E0
1.087356803E1,1.251058578E-1,3.841446638E0,-5.268487930E-1,3.879424364E0
1.088361595E1,-7.558127642E-1,2.764033794E0,-6.329398155E-1,2.934578089E0
1.089356767E1,-8.538832664E-1,2.589518547E0,-1.381029129E0,3.056462726E0
1.090356048E1,-2.525972843E0,2.424086809E0,-1.403900146E0,3.771958548E0
1.091356850E1,-2.403798580E0,2.276358843E0,-1.385110855E0,3.588675142E0
1.092357741E1,-2.279002905E0,2.155539989E0,-1.322080135E0,3.404130252E0
1.093358053E1,-2.153271675E0,2.058766842E0,-1.229902267E0,3.223004717E0
1.094358053E1,-2.023389101E0,1.954196692E0,-6.186752319E-1,2.880233880E0
1.095358105E1,-2.087802887E0,1.867322683E0,-5.767126083E-1,2.859792358E0
1.096357402E1,-1.925957561E0,1.784790039E0,-5.326261520E-1,2.679268301E0
1.097358001E1,-1.722801328E0,1.689328671E0,-4.487748146E-1,2.454236053E0
1.098362506E1,-1.559116960E0,1.632678986E0,-4.394431114E-1,2.299912305E0
1.099357923E1,-1.594570279E0,1.579860687E0,-4.655623436E-1,2.292457734E0
1.100357715E1,-1.429096460E0,1.549485207E0,-5.221695900E-1,2.171608201E0
1.101357715E1,-1.262738585E0,1.539367676E0,-6.004819870E-1,2.079600970E0
1.102357715E1,-1.096413970E0,1.545044661E0,-6.912817955E-1,2.016719395E0
1.103357741E1,-9.301708341E-1,1.555366039E0,-1.319478512E0,2.241741475E0
1.104357532E1,-9.646666050E-1,1.580227852E0,-1.368240833E0,2.302126126E0
1.105357741E1,-7.986729145E-1,1.615489483E0,-1.431519508E0,2.301506636E0
1.106365840E1,-6.337102652E-1,1.659362793E0,-1.499629498E0,2.324642383E0
1.107358022E1,-4.699329436E-1,2.241614819E0,-1.561607838E0,2.772055736E0
1.108355985E1,-3.074228168E-1,2.242777348E0,-1.601618290E0,2.773038075E0
1.109356954E1,-3.465874195E-1,2.247625351E0,-1.616665840E0,2.790260023E0
1.110358105E1,-1.954037249E-1,2.253861904E0,-1.610291004E0,2.776889126E0
1.111358027E1,-4.547066987E-2,2.272523880E0,-1.584189892E0,2.770575749E0
1.112357506E1,1.028947681E-1,2.291836977E0,-1.550120831E0,2.768750377E0
1.113357819E1,2.543985546E-1,2.310160398E0,-1.496553898E0,2.764278072E0
1.114358079E1,2.033900172E-1,2.323267698E0,-1.446686745E0,2.744420309E0
1.115356907E1,3.905020058E-1,2.422614574E0,-1.414651871E0,2.832453549E0
1.116356673E1,5.362267494E-1,2.442817688E0,-1.389396191E0,2.860999678E0
1.117357220E1,6.802129745E-1,2.464519978E0,-1.369650364E0,2.900429370E0
1.118357038E1,6.229907870E-1,2.487154961E0,-1.349304676E0,2.897357490E0
1.119356829E1,7.637113333E-1,2.506756783E0,-1.324084759E0,2.936032189E0
1.120357428E1,9.023208022E-1,2.513232708E0,-1.303698540E0,2.971557059E0
1.121356621E1,2.035731077E0,2.537198067E0,-1.277194023E0,3.494681619E0
1.122356829E1,2.154339790E0,2.554214954E0,-1.232320309E0,3.561433322E0
1.123356751E1,2.255940437E0,2.555091381E0,-1.176306725E0,3.605753282E0
1.124368600E1,2.348157644E0,2.561519623E0,-1.105502605E0,3.646554965E0
1.125356246E1,2.431817532E0,2.552975178E0,-1.016654015E0,3.669469192E0
1.126355933E1,2.521016598E0,2.547356129E0,-9.183840752E-1,3.699726644E0
1.127356850E1,2.579623222E0,2.541144848E0,-8.130083084E-1,3.711179815E0
1.128356699E1,2.634039879E0,2.531725883E0,-6.962370872E-1,3.719213373E0
1.129356985E1,2.680024862E0,2.509634018E0,-5.693969727E-1,3.715509262E0
1.130357610E1,2.733344793E0,2.481550217E0,-4.436888695E-1,3.718349775E0
1.131357064E1,2.792693138E0,2.453903198E0,-3.148884773E-1,3.730942324E0
1.132357064E1,2.852479935E0,2.426978588E0,3.234777451E-1,3.759189367E0
1.133357011E1,2.934810400E0,2.439776421E0,3.900585175E-1,3.836374162E0
1.134357350E1,2.977615833E0,2.425436974E0,4.376821518E-1,3.865295102E0
1.135357402E1,3.012558460E0,2.416426659E0,4.717421532E-1,3.890651222E0
1.136357064E1,3.049983501E0,2.422178268E0,4.983406067E-1,3.926536678E0
1.137356855E1,3.072829485E0,2.434911728E0,4.959330559E-1,3.951838276E0
1.138356855E1,3.098617077E0,2.449256897E0,4.858317375E-1,3.979487356E0
1.139356647E1,3.127509117E0,2.454904556E0,4.597449303E-1,4.002403660E0
1.140357220E1,3.154036045E0,2.458236217E0,4.339380264E-1,4.022334010E0
1.141356699E1,3.193311691E0,2.459238052E0,4.087557793E-1,4.051193977E0
1.142356741E1,3.229040146E0,2.463255405E0,3.839812279E-1,4.079432441E0
1.143358673E1,3.276293278E0,2.469583035E0,3.550009727E-1,4.118126236E0
1.144356970E1,3.333379269E0,2.463600159E0,3.219089508E-1,4.157447349E0
1.145358959E1,3.398827553E0,2.460574627E0,3.057770729E-1,4.207131546E0
1.146356985E1,3.446883202E0,2.460505486E0,2.942008972E-1,4.245190834E0
1.147356777E1,3.479184151E0,2.472341061E0,2.770881653E-1,4.277145137E0
1.148356959E1,3.507512569E0,2.484429836E0,2.506508827E-1,4.305561740E0
1.149357090E1,3.525631666E0,2.487218857E0,2.296776772E-1,4.320774019E0
1.150357532E1,3.544681549E0,2.485859871E0,2.096371651E-1,4.334537383E0
1.151356819E1,3.560783625E0,2.482880592E0,1.769065857E-1,4.344556594E0
1.152356855E1,3.568812847E0,2.466246605E0,1.837143898E-1,4.341952145E0
1.153357220E1,3.580158710E0,2.443048954E0,1.983232498E-1,4.338819735E0
1.154356777E1,3.613848686E0,2.410228729E0,2.283773422E-1,4.349857591E0
1.155357142E1,3.637338161E0,2.370048523E0,2.656850815E-1,4.349476689E0
1.156356829E1,3.656867027E0,2.337403297E0,3.101863861E-1,4.351131603E0
1.157356803E1,3.663541555E0,2.306420803E0,3.562884331E-1,4.343737457E0
1.158356673E1,3.663719893E0,2.282738686E0,4.025888443E-1,4.335414298E0
1.159356803E1,3.653146267E0,2.255756855E0,4.488210678E-1,4.316868887E0
1.160361985E1,3.632410049E0,2.225846767E0,4.750957489E-1,4.286550194E0
1.161356725E1,3.612817287E0,2.207894325E0,4.891467094E-1,4.262218977E0
1.162373475E1,3.584990740E0,2.186363697E0,5.017609596E-1,4.228960733E0
1.163356928E1,3.519029140E0,2.130959034E0,5.059628487E-1,4.144942810E0
1.164356803E1,3.445675850E0,2.073713303E0,5.043115616E-1,4.053060458E0
1.165357324E1,3.366138935E0,2.019868851E0,5.023970604E-1,3.957671577E0
1.166357428E1,3.276378393E0,1.959705830E0,4.997749329E-1,3.850308728E0
1.167356855E1,3.182883978E0,1.903469086E0,4.970798492E-1,3.741795472E0
1.168356933E1,3.092067242E0,1.851074696E0,5.087089539E-1,3.639524990E0
1.169357064E1,2.953484774E0,1.771398544E0,5.356431007E-1,3.485374964E0
1.170357220E1,2.854631901E0,1.719539165E0,5.411996841E-1,3.376186507E0
1.171356959E1,2.764751434E0,1.676179886E0,5.404152870E-1,3.278029619E0
1.172357298E1,2.683180809E0,1.630421162E0,5.345072746E-1,3.184875264E0
1.173356673E1,2.614010572E0,1.592367649E0,5.290608406E-1,3.106218179E0
1.174356881E1,2.555689812E0,1.542479515E0,5.326676369E-1,3.032248057E0
1.175357038E1,2.497473955E0,1.501476288E0,5.300931931E-1,2.961892299E0
1.176356803E1,2.463555336E0,1.468372345E0,5.219440460E-1,2.915072525E0
1.177356699E1,2.422165394E0,1.456252098E0,5.144467354E-1,2.872666150E0
1.178358730E1,2.379172325E0,1.442839622E0,5.075764656E-1,2.828406088E0
1.179356965E1,2.349262238E0,1.433146000E0,4.964160919E-1,2.796313547E0
1.180359579E1,2.325734615E0,1.426087856E0,4.823222160E-1,2.770451731E0
1.181355970E1,2.312149048E0,1.417597294E0,4.640998840E-1,2.751545749E0
1.182356777E1,2.302585602E0,1.421286106E0,4.390625954E-1,2.741300898E0
1.183357090E1,2.290815830E0,1.411617279E0,4.220366478E-1,2.723713539E0
1.184357090E1,2.272304058E0,1.409856796E0,4.166307449E-1,2.706407784E0
1.185357584E1,2.267326832E0,1.385724068E0,4.215526581E-1,2.690484863E0
1.186356985E1,2.269017220E0,1.362025261E0,4.396657944E-1,2.682696025E0
1.187356725E1,2.329421282E0,1.343436241E0,5.270390511E-1,2.740217985E0
1.188356751E1,2.363212347E0,1.342768669E0,5.982503891E-1,2.783110458E0
1.189356855E1,2.426832199E0,1.348571301E0,6.783881187E-1,2.858035954E0
1.190357194E1,3.144471169E0,1.374487877E0,7.657713890E-1,3.516151543E0
1.191356881E1,3.184044361E0,1.403846741E0,1.404943943E0,3.752704578E0
1.192356803E1,3.259172440E0,1.459537983E0,1.420035839E0,3.843040190E0
1.193356595E1,4.072673798E0,1.534039974E0,1.443334103E0,4.585102380E0
1.194356959E1,4.112551689E0,2.217842579E0,1.464905739E0,4.896718894E0
1.195357220E1,4.867637634E0,2.279357433E0,1.500159740E0,5.580308745E0
1.196356855E1,4.949502468E0,2.366961956E0,1.535404682E0,5.697152896E0
1.197358074E1,5.705497265E0,3.568824291E0,1.566699982E0,6.909685571E0
1.198358642E1,5.762231827E0,3.588897228E0,1.616909981E0,6.978387839E0
1.199356652E1,6.340832710E0,3.508524895E0,1.670307159E0,7.436789119E0
1.200357345E1,6.360412598E0,3.521152020E0,1.744383812E0,7.476378458E0
1.201356777E1,6.945090771E0,3.534544468E0,1.800104141E0,7.997978828E0
1.202356725E1,6.938727856E0,3.548302174E0,1.842999458E0,8.008310657E0
1.203357194E1,6.932439327E0,3.553279877E0,1.876505852E0,8.012851373E0
1.204356907E1,7.471168995E0,3.461728096E0,1.868748665E0,8.443586272E0
1.205357402E1,7.381551266E0,3.473208904E0,1.811280727E0,8.356507468E0
1.206357116E1,7.283674717E0,3.507430077E0,9.439177513E-1,8.139100924E0
1.207357220E1,7.122050285E0,3.522762775E0,8.375377655E-1,7.989676298E0
1.208356985E1,6.909567833E0,3.440890789E0,1.577033997E-1,7.720539322E0
1.209356855E1,6.022621632E0,3.460881710E0,7.378911972E-2,6.946590413E0
1.210357142E1,5.746772766E0,3.482646942E0,-3.850746155E-2,6.719799831E0
1.211356751E1,4.479207516E0,2.036479473E0,-7.431464195E-1,4.976224996E0
1.212356725E1,3.604542732E0,1.932895184E0,-8.026971817E-1,4.168109267E0
1.213356959E1,2.704402685E0,1.184806824E0,-8.593382835E-1,3.075064776E0
1.214356803E1,1.855309844E0,1.089272976E0,-9.258379936E-1,2.342192610E0
1.215361288E1,1.069859385E0,4.287123680E-1,-9.724054337E-1,1.507967416E0
1.216356954E1,8.445274830E-1,3.363094330E-1,-1.017911911E0,1.364725380E0
1.217355840E1,-2.657648325E-1,2.151570320E-1,-1.058737278E0,1.112586230E0
1.218357084E1,-1.481673121E0,-5.990862846E-1,-1.111314297E0,1.946607069E0
1.219356980E1,-1.463949919E0,-7.001304626E-1,-1.760850906E0,2.394562161E0
1.220357871E1,-1.431680083E0,-1.456964493E0,-1.839569569E0,2.748903344E0
1.221358053E1,-2.517649651E0,-1.621322155E0,-2.655656338E0,4.002468723E0
1.222357923E1,-3.295364857E0,-2.913794994E0,-4.299626350E0,6.151131405E0
1.223358288E1,-4.424129486E0,-4.002273560E0,-4.456167221E0,7.446377754E0
1.224357636E1,-8.207936287E0,-6.307501316E0,-6.320662498E0,1.212870831E1
1.225357506E1,-1.093201828E1,-9.036593437E0,-6.391661644E0,1.555706859E1
1.226357923E1,-1.384125042E1,-1.098837662E1,-6.309195042E0,1.876514258E1
1.227357636E1,-1.706377220E1,-1.305553341E1,-4.437909126E0,2.193887672E1
1.228357636E1,-2.052580833E1,-1.604841805E1,-4.368799210E0,2.641868536E1
1.229357688E1,-2.393907547E1,-1.732712746E1,-2.294962883E0,2.964077487E1
1.230357506E1,-2.688900757E1,-1.959439087E1,-1.133127928E0,3.329028177E1
1.231357715E1,-2.895094681E1,-2.196769905E1,-2.923903465E-1,3.634312335E1
1.232357636E1,-2.959031296E1,-2.458618927E1,-2.422165871E-1,3.847240560E1
1.233363288E1,-2.827529907E1,-2.777694130E1,-2.905473709E-1,3.963755067E1
1.234357527E1,-2.412560081E1,-3.105831909E1,-4.372406006E-1,3.933007728E1
1.235355735E1,-1.706239700E1,-3.338134003E1,-6.297349930E-1,3.749447719E1
1.236358912E1,-8.152774811E0,-3.383683395E1,-6.445474625E-1,3.481112625E1
1.237357715E1,1.801614761E0,-3.270129776E1,2.290987968E-1,3.275168968E1
1.238357975E1,1.119867897E1,-3.068828011E1,1.071799755E0,3.268531323E1
1.239357819E1,2.054981995E1,-2.771191788E1,1.901825905E0,3.455231445E1
1.240356673E1,2.941614914E1,-2.355023193E1,2.802791119E0,3.778596158E1
1.241356725E1,3.782969284E1,-1.688058853E1,3.599309921E0,4.158118519E1
1.242356803E1,4.830063248E1,-3.078618765E0,4.428803921E0,4.860085694E1
1.243356803E1,5.065860367E1,3.135982037E0,4.094495296E0,5.092046151E1
1.244356933E1,5.242921448E1,7.211342812E0,4.104208469E0,5.308173436E1
1.245356881E1,5.348167038E1,1.012068748E1,4.113898277E0,5.458609292E1
1.246356777E1,5.343717957E1,1.290235996E1,4.023813725E0,5.511981612E1
1.247356725E1,5.321037292E1,1.458924294E1,4.033703804E0,5.532142951E1
1.248356881E1,5.128838348E1,1.541233826E1,4.043570042E0,5.370650714E1
1.249356569E1,4.842027283E1,1.536869907E1,2.707757473E0,5.087289733E1
1.250356673E1,4.467818832E1,1.454132175E1,1.352592468E0,4.700446848E1
1.251361985E1,3.972292709E1,1.287702942E1,-1.988410950E-1,4.175845257E1
1.252357423E1,3.461641693E1,1.090285587E1,-1.369853973E0,3.631866032E1
1.253358168E1,2.952395821E1,9.132965088E0,-2.109786987E0,3.097622250E1
1.254356928E1,2.473261833E1,6.353437901E0,-2.171383858E0,2.562778747E1
1.255356777E1,2.030411720E1,4.142788887E0,-2.122612953E0,2.083087518E1
1.256356803E1,1.633444786E1,2.127685070E0,-1.345938683E0,1.652733438E1
1.257356777E1,1.286515141E1,4.324269295E-1,-5.924596786E-1,1.288604370E1
1.258356985E1,1.038986492E1,-9.375511408E-1,-4.551682472E-1,1.044200524E1
1.259357038E1,6.988010406E0,-2.247465134E0,2.597932816E-1,7.345126379E0
1.260356725E1,1.951943755E0,-3.261056423E0,1.887698174E-1,3.805286778E0
1.261356959E1,4.572046697E-1,-3.992157936E0,7.971811295E-2,4.019044174E0
1.262348058E1,-2.181993961E0,-3.970814943E0,-7.397060394E-1,4.590820622E0
1.263356829E1,-3.675850868E0,-3.908425093E0,-8.486256599E-1,5.432111175E0
1.264356751E1,-4.851025581E0,-3.794893742E0,-1.496576786E0,6.338249741E0
1.265356907E1,-5.639766693E0,-3.602170467E0,-1.541440964E0,6.867214914E0
1.266356777E1,-5.683611870E0,-2.599241734E0,-1.577081680E0,6.445672044E0
1.267356621E1,-5.670225143E0,-2.397219896E0,-1.610020638E0,6.363197534E0
1.268356907E1,-5.574493408E0,-3.487279117E-1,-1.674432278E0,5.830978594E0
1.269368668E1,-5.394337654E0,-2.371613830E-1,-2.340236664E0,5.884881638E0
1.270356032E1,-5.171632767E0,-3.238944411E-1,-2.422596931E0,5.720110923E0
1.271355538E1,-4.420232773E0,-2.137714922E-1,-3.184385061E0,5.452014695E0
1.272357100E1,-4.235844612E0,1.401602149E0,-3.267553806E0,5.530260034E0
1.273356704E1,-4.023618698E0,1.626785755E0,-3.859166145E0,5.807676184E0
1.274357142E1,-3.236830711E0,2.754665613E0,-3.842775106E0,5.729936842E0
1.275356647E1,-2.980462074E0,2.986728907E0,-3.783108234E0,5.667063759E0
1.276356959E1,-1.940021038E0,4.072850704E0,-3.663523197E0,5.811471131E0
1.277357116E1,-1.672127485E0,4.287998199E0,-2.956929684E0,5.470500164E0
1.278356907E1,-2.785015106E-1,5.484317780E0,-2.182120800E0,5.909057098E0
1.279357038E1,8.732088804E-1,6.507845879E0,-2.098220110E0,6.893263332E0
1.280356881E1,1.102602482E0,6.725594997E0,-2.057735682E0,7.119244092E0
1.281356881E1,2.430974007E0,7.694622517E0,-2.091410398E0,8.336117067E0
1.282356699E1,2.561696053E0,7.878115654E0,-2.754709244E0,8.730144096E0
1.283356647E1,2.673779249E0,8.636831284E0,-2.809647799E0,9.467738423E0
1.284356907E1,2.582899570E0,8.742033005E0,-3.520214558E0,9.771715396E0
1.285356751E1,2.672500849E0,8.829078674E0,-3.559651375E0,9.887669540E0
1.286356959E1,2.759824038E0,8.908853531E0,-3.604938745E0,9.998994115E0
1.287356808E1,2.827268600E0,8.953043938E0,-3.643545628E0,1.007104107E1
1.288357715E1,2.894611597E0,8.993014336E0,-3.640089989E0,1.012439323E1
1.289355798E1,2.760017633E0,9.013658524E0,-3.572436571E0,1.008097418E1
1.290356980E1,2.825666666E0,9.034005165E0,-3.456883907E0,1.007708727E1
1.291356980E1,2.888795853E0,9.038629532E0,-2.756385803E0,9.881276638E0
1.292356933E1,2.953109026E0,9.049299240E0,-2.632055521E0,9.876152385E0
1.293357168E1,3.017866611E0,9.056845665E0,-2.500457764E0,9.868447766E0
1.294356985E1,2.884008884E0,9.065104485E0,-1.731411934E0,9.669095813E0
1.295357194E1,2.951710701E0,9.068906784E0,-1.662548065E0,9.680998522E0
1.296357038E1,3.059985876E0,1.007741737E1,-1.544059038E0,1.064433994E1
1.297356621E1,3.130407810E0,1.003889656E1,-1.480384588E0,1.061934253E1
1.298357011E1,3.003044605E0,9.904069901E0,-1.419828892E0,1.044628123E1
1.299357506E1,3.085772276E0,9.886164665E0,-1.366169214E0,1.044627497E1
1.300357064E1,3.167797565E0,9.869591713E0,-1.309842825E0,1.044794096E1
1.301356751E1,3.248891592E0,9.845721245E0,-1.251421213E0,1.044315941E1
1.302356725E1,3.328785181E0,9.824396133E0,-1.200986385E0,1.044231480E1
1.303356673E1,3.208952904E0,9.703207970E0,-1.147154808E0,1.028423978E1
1.304356751E1,3.288196087E0,9.685033798E0,-1.095675230E0,1.028652601E1
1.305356949E1,3.365553856E0,9.668846130E0,-1.051837683E0,1.029173944E1
1.306358798E1,3.440588474E0,9.654912949E0,-1.020040989E0,1.030026586E1
1.307356027E1,3.512829542E0,9.643489838E0,-9.944314957E-1,1.031143839E1
1.308356980E1,3.384347200E0,9.533083916E0,-9.684331417E-1,1.016225160E1
1.309356985E1,3.453124046E0,9.524699211E0,-9.384443760E-1,1.017470582E1
1.310356642E1,3.520541906E0,9.516986847E0,-9.090788364E-1,1.018791825E1
1.311357038E1,3.587713480E0,9.508702278E0,-8.745727539E-1,1.020058746E1
1.312357246E1,3.653105736E0,9.501058578E0,-8.465626240E-1,1.021430193E1
1.313356985E1,3.517778873E0,9.393893242E0,-8.190431595E-1,1.006433456E1
1.314357272E1,3.620628595E0,8.289538383E0,-7.835004330E-1,9.079607424E0
1.315356699E1,3.681432962E0,8.213352203E0,-7.642450333E-1,9.033060032E0
1.316356933E1,3.740657806E0,8.149317741E0,-7.598340511E-1,8.998958176E0
1.317356829E1,3.599632502E0,8.080718040E0,-7.531371117E-1,8.878207798E0
1.318356829E1,3.657850027E0,8.022983551E0,-7.591876984E-1,8.850112872E0
1.319359277E1,3.714595079E0,7.960418224E0,-7.574543953E-1,8.817041004E0
1.320356855E1,3.770545483E0,7.919767857E0,-7.443377972E-1,8.803054862E0
1.321356751E1,3.826821089E0,7.886730194E0,-7.490766048E-1,8.798078686E0
1.322356699E1,3.682682753E0,7.855172634E0,-7.605309486E-1,8.708863111E0
1.323358886E1,3.738870144E0,7.815705776E0,-7.622482777E-1,8.697438081E0
1.324356761E1,3.794214487E0,7.764286041E0,-7.563583851E-1,8.674807163E0
1.325360485E1,3.848588705E0,7.711992741E0,-7.390809059E-1,8.650590017E0
1.326356834E1,3.900943756E0,7.658879280E0,-7.079644203E-1,8.624210551E0
1.327356855E1,3.754811287E0,7.609166145E0,-6.818082333E-1,8.512513124E0
1.328356798E1,3.808608770E0,7.553683758E0,-6.560144424E-1,8.484927462E0
1.329359459E1,3.861385584E0,7.497609615E0,-6.215043068E-1,8.456400900E0
1.330356959E1,3.914614201E0,7.431037426E0,-5.830278397E-1,8.419289936E0
1.331356725E1,3.965814829E0,7.370833397E0,-5.482676029E-1,8.387935955E0
1.332356933E1,3.855448961E0,7.280074120E0,-5.067434311E-1,8.253529838E0
1.333356777E1,3.905609131E0,7.230932713E0,-4.778289795E-1,8.232161995E0
1.334357194E1,3.956779003E0,7.175263405E0,-4.488608837E-1,8.206216004E0
1.335356855E1,4.007173061E0,7.129585743E0,-4.166202545E-1,8.189139225E0
1.336356855E1,3.856328964E0,7.087728024E0,-3.874037266E-1,8.078195545E0
1.337356933E1,3.905141115E0,7.050282001E0,-3.550305367E-1,8.067381862E0
1.338356621E1,3.952923536E0,7.020936012E0,-3.204674721E-1,8.063612489E0
1.339359095E1,3.999671698E0,6.993906975E0,-2.841506004E-1,8.061814313E0
1.340357558E1,4.046558857E0,6.982898235E0,-2.451672554E-1,8.074380059E0
1.341361048E1,3.893620491E0,6.975511551E0,-2.188341618E-1,7.991616252E0
1.342356720E1,3.939956665E0,6.983006477E0,-1.896731853E-1,8.020075679E0
1.343358209E1,3.986580610E0,6.982530117E0,-1.666378975E-1,8.042158913E0
1.344355938E1,4.032890320E0,6.985163689E0,-1.446480751E-1,8.067071287E0
1.345357084E1,4.078626633E0,6.994511604E0,-1.187586784E-1,8.097684324E0
1.346357845E1,3.924028397E0,7.001068592E0,-9.004259109E-2,8.026273603E0
1.347357663E1,3.968924999E0,7.020440578E0,-5.876684189E-2,8.064887173E0
1.348357975E1,4.014186382E0,7.025316238E0,-1.927018166E-2,8.091299766E0
1.349360657E1,4.058519840E0,7.037478447E0,3.097081184E-2,8.123955033E0
1.350357741E1,3.942023277E0,7.066252232E0,1.174895763E-1,8.092297073E0
1.351356163E1,3.984613895E0,7.083453178E0,1.568446159E-1,8.128779555E0
1.352357845E1,3.970888615E0,7.000519276E0,1.958074570E-1,8.050687367E0
1.353357923E1,3.958435535E0,6.923558712E0,2.316706181E-1,7.978630735E0
1.354357793E1,3.947858572E0,6.842078209E0,2.607891560E-1,7.903646785E0
1.355357845E1,3.739869118E0,6.762155533E0,2.815375328E-1,7.732569550E0
1.356357871E1,3.732102156E0,6.665723801E0,2.906351089E-1,7.644928322E0
1.357357636E1,3.723974228E0,6.569005966E0,2.990202904E-1,7.557065341E0
1.358357558E1,3.715419531E0,6.481967449E0,3.162415028E-1,7.477984554E0
1.359365788E1,3.707658052E0,6.383280754E0,3.424947262E-1,7.389878487E0
1.360356938E1,3.502038717E0,6.289370537E0,3.553416729E-1,7.207407622E0
1.361358522E1,3.497062206E0,6.185874939E0,3.675925732E-1,7.115449187E0
1.362348126E1,3.490829945E0,6.079443932E0,3.774518967E-1,7.020541443E0
1.363356699E1,3.483952761E0,5.970412731E0,3.954176903E-1,6.923879705E0
1.364356829E1,3.476478100E0,5.868070602E0,4.160122871E-1,6.833243651E0
1.365356933E1,3.272681236E0,5.762640953E0,4.392385483E-1,6.641641644E0
1.366356985E1,3.269713402E0,5.650473595E0,4.600157738E-1,6.544500904E0
1.367357168E1,3.266728163E0,5.541857719E0,4.783296585E-1,6.450775080E0
1.368357142E1,3.302840233E0,5.408407211E0,5.096540451E-1,6.357622937E0
1.369362428E1,3.101058960E0,5.300741673E0,5.202853680E-1,6.163207429E0
1.370357038E1,3.098707199E0,5.206995010E0,5.190088749E-1,6.081459821E0
1.371357038E1,3.097748995E0,5.115442276E0,5.237405300E-1,6.003174382E0
1.372356777E1,3.095733404E0,5.026692390E0,5.263590813E-1,5.926909446E0
1.373356751E1,3.093413830E0,4.949797630E0,5.279271603E-1,5.860751896E0
1.374357220E1,2.892622471E0,4.868813515E0,5.321545601E-1,5.688215737E0
1.375356699E1,2.892327547E0,4.780097485E0,5.350940228E-1,5.612594428E0
1.376357064E1,2.891882181E0,4.689074516E0,5.466668606E-1,5.536176210E0
1.377357636E1,2.890902996E0,4.596467018E0,5.554902554E-1,5.458332951E0
1.378357064E1,2.889511585E0,4.502621651E0,5.716636181E-1,5.380490519E0
1.379360761E1,2.691196203E0,4.407819271E0,5.846235752E-1,5.197421712E0
1.380356871E1,2.693484545E0,4.311799049E0,6.008126736E-1,5.119320844E0
1.381356621E1,2.695479631E0,4.201035500E0,6.089591980E-1,5.028433257E0
1.382356881E1,2.697023153E0,4.087721348E0,6.145939827E-1,4.935699086E0
1.383356824E1,2.698578119E0,3.977022886E0,6.040995121E-1,4.843962337E0
1.384357220E1,2.502999783E0,3.884073257E0,5.930750370E-1,4.658623292E0
1.385357011E1,2.507411242E0,3.796531200E0,5.871465206E-1,4.587537610E0
1.386357116E1,2.551753283E0,3.657209873E0,5.741810799E-1,4.496255418E0
1.387356881E1,2.555545092E0,3.581401825E0,5.546543598E-1,4.434511383E0
1.388356803E1,2.362247229E0,3.523763180E0,5.363116264E-1,4.276067010E0
1.389357610E1,2.368776798E0,3.472032070E0,5.242161751E-1,4.235671471E0
1.390357064E1,2.374918699E0,3.425556660E0,5.317718983E-1,4.202077892E0
1.391356829E1,2.380622625E0,3.364445686E0,5.368123055E-1,4.156323653E0
1.392356855E1,2.386412859E0,3.305073261E0,5.306050777E-1,4.110963068E0
1.393356569E1,2.193904638E0,3.257203579E0,5.279400349E-1,3.962488284E0
1.394357324E1,2.202178717E0,3.219439983E0,5.198626518E-1,3.935052996E0
1.395356777E1,2.209967375E0,3.161308289E0,4.922301769E-1,3.888459392E0
1.396357923E1,2.217576742E0,3.114484787E0,4.627122879E-1,3.851203027E0
1.397357897E1,2.224785805E0,3.082453728E0,4.361629486E-1,3.826412285E0
1.398357371E1,2.034921408E0,3.043846130E0,4.122819901E-1,3.684546219E0
1.399359480E1,2.045194387E0,3.004027843E0,3.915910721E-1,3.655180835E0
1.400356907E1,2.055285931E0,2.958678722E0,3.780608177E-1,3.622279672E0
1.401357350E1,2.064869404E0,2.904067516E0,3.654479980E-1,3.582017034E0
1.402356855E1,2.073969126E0,2.851186275E0,3.537135124E-1,3.543405757E0
1.403356699E1,1.885935426E0,2.804223061E0,3.723134995E-1,3.399858342E0
1.404357272E1,1.897309422E0,2.753442287E0,4.016556740E-1,3.367870953E0
1.405357116E1,1.947630644E0,2.682622433E0,4.572968483E-1,3.346468086E0
1.406356933E1,1.957478046E0,2.642730713E0,4.870300293E-1,3.324596844E0
1.407357064E1,1.770248652E0,2.607957363E0,5.209784508E-1,3.194783317E0
1.408356907E1,1.782686472E0,2.587216377E0,5.586452484E-1,3.191197918E0
1.409357038E1,1.794579625E0,2.564453602E0,6.037211418E-1,3.187697841E0
1.410356517E1,1.806167126E0,2.540265083E0,6.355156898E-1,3.181048030E0
1.411356699E1,1.817767262E0,2.509715557E0,6.612329483E-1,3.168624151E0
1.412356751E1,1.631783962E0,2.478300095E0,6.768207550E-1,3.043480999E0
1.413358131E1,1.646531343E0,2.447363853E0,6.924600601E-1,3.029877263E0
1.414360022E1,1.660895705E0,2.421531200E0,6.886529922E-1,3.016062142E0
1.415356746E1,1.675069332E0,2.395207405E0,6.779789925E-1,3.000421853E0
1.416355782E1,1.689001203E0,2.358783245E0,6.615061760E-1,2.975596391E0
1.417356777E1,1.506061316E0,2.323366642E0,6.352949142E-1,2.840748646E0
1.418357220E1,1.522704720E0,2.293722630E0,6.103377342E-1,2.819983212E0
1.419357116E1,1.539308190E0,2.258904934E0,5.777263641E-1,2.793902102E0
1.420356985E1,1.555489779E0,2.229409695E0,5.432162285E-1,2.772165202E0
1.421357064E1,1.571559191E0,2.185063362E0,5.075078011E-1,2.738953149E0
1.422356933E1,1.390467286E0,2.137985229E0,4.702997208E-1,2.593368840E0
1.423356803E1,1.448215246E0,2.077970982E0,4.182476997E-1,2.567142758E0
1.424357142E1,1.465491176E0,2.033060551E0,3.857374191E-1,2.535703639E0
1.425357116E1,1.482435226E0,1.985657692E0,3.566050529E-1,2.503521087E0
1.426356933E1,1.302269220E0,1.931143761E0,3.355503082E-1,2.353256330E0
1.427356673E1,1.321476579E0,1.870671272E0,3.213782310E-1,2.312789511E0
1.428356595E1,1.340267420E0,1.819589615E0,3.133215904E-1,2.281533156E0
1.429357220E1,1.358685732E0,1.767066956E0,3.153476715E-1,2.251221157E0
1.430356699E1,1.376694679E0,1.713407516E0,3.163914680E-1,2.220620886E0
1.431356881E1,1.196345925E0,1.658675671E0,3.164839745E-1,2.069446945E0
1.432358496E1,1.216914415E0,1.598876476E0,3.157114983E-1,2.033951924E0
1.433357110E1,1.236994624E0,1.554224014E0,3.040637970E-1,2.009532975E0
1.434358725E1,1.256686926E0,1.522704124E0,2.927417755E-1,1.995892689E0
1.435356980E1,1.274584651E0,1.492720127E0,2.815780640E-1,1.982943675E0
1.436357142E1,1.095508456E0,1.459455013E0,2.755379677E-1,1.845553815E0
1.437357220E1,1.117384195E0,1.433274269E0,2.643518448E-1,1.836492436E0
1.438357220E1,1.138863444E0,1.408285141E0,2.534546852E-1,1.828801865E0
1.439357350E1,1.160042524E0,1.379552364E0,2.331976891E-1,1.817483025E0
1.440356881E1,1.179502964E0,1.357186794E0,2.143864632E-1,1.810840908E0
1.441356985E1,1.041253567E0,1.292563915E0,2.031054497E-1,1.672178905E0
1.442356673E1,1.064028382E0,1.253627777E0,1.914291382E-1,1.655410558E0
1.443356907E1,1.086215019E0,1.222826004E0,1.416726112E-1,1.641717891E0
1.444357194E1,1.107993722E0,1.198911667E0,9.812927246E-2,1.635441417E0
1.445356803E1,9.313734174E-1,1.171010494E0,5.533218384E-2,1.497258719E0
1.446356881E1,9.558554888E-1,1.159217358E0,3.774642944E-2,1.502953556E0
1.447356907E1,9.799082279E-1,1.151875019E0,3.163242340E-2,1.512625798E0
1.448356803E1,1.003506422E0,1.158113956E0,4.009199142E-2,1.532925453E0
1.449356933E1,1.026688218E0,1.161425591E0,5.160903931E-2,1.551019533E0
