"Time (s)","Linear Acceleration x (m/s^2)","Linear Acceleration y (m/s^2)","Linear Acceleration z (m/s^2)","Absolute acceleration (m/s^2)"
1.409715180E-1,0.000000000E0,0.000000000E0,0.000000000E0,0.000000000E0
1.510324550E-1,1.999999955E-2,-2.343845367E-2,-1.928901672E-2,3.635144095E-2
1.609764660E-1,3.999999911E-2,-5.278253555E-2,-6.479883194E-2,9.265465239E-2
1.709715180E-1,-8.999999613E-2,-8.720159531E-2,-1.107654572E-1,1.672516189E-1
1.809720390E-1,-3.999999911E-2,-1.259760857E-1,-1.544837952E-1,2.033106418E-1
1.909923510E-1,4.904965323E-10,-1.562175751E-1,-1.928639412E-1,2.481943403E-1
2.009771950E-1,3.428571299E-2,-1.884245872E-1,-2.104110718E-1,2.845209207E-1
2.109791220E-1,6.499999762E-2,-1.964030266E-1,-1.814670563E-1,2.751898273E-1
2.209808930E-1,-8.444444090E-2,-1.851649284E-1,-1.240677834E-1,2.383479163E-1
2.309736530E-1,-3.999999911E-2,-1.716103554E-1,-5.659532547E-2,1.850760516E-1
2.409727160E-1,4.716819157E-10,-1.514749527E-1,-3.400087357E-2,1.552440682E-1
2.509806320E-1,3.666666523E-2,-1.348514557E-1,-5.174875259E-2,1.490211154E-1
2.609712570E-1,7.076922804E-2,-1.254816055E-1,-9.307432175E-2,1.715131083E-1
2.709632890E-1,-8.285713941E-2,-1.082911491E-1,-1.718602180E-1,2.193814329E-1
2.809741220E-1,-3.999999911E-2,-8.009862900E-2,-8.425459862E-1,8.472895191E-1
2.909728200E-1,9.313225538E-12,-3.366279602E-2,-8.854961395E-1,8.861357667E-1
3.009631320E-1,3.764705732E-2,2.318000793E-2,-9.358634949E-1,9.369071964E-1
3.109759450E-1,7.333333045E-2,9.323072433E-2,-9.645643234E-1,9.718302729E-1
3.209759450E-1,-8.210526407E-2,1.648812294E-1,-9.242024422E-1,9.423785059E-1
3.309702160E-1,-3.999999911E-2,2.471141815E-1,-8.218727112E-1,8.591508436E-1
3.409712570E-1,-2.424239698E-10,9.386105537E-1,-7.054743767E-1,1.174173696E0
3.509754240E-1,3.818181530E-2,9.623117447E-1,-5.681858063E-1,1.118184625E0
3.609696950E-1,7.478260994E-2,9.974331856E-1,1.401548386E-1,1.010004345E0
3.709970910E-1,-8.166666329E-2,1.004535675E0,1.787447929E-1,1.023577582E0
3.809819350E-1,-3.999999911E-2,9.693303108E-1,2.011189461E-1,9.907825603E-1
3.909786010E-1,-1.850108122E-10,8.798022270E-1,1.720857620E-1,8.964739082E-1
4.009562050E-1,3.851851821E-2,7.683639526E-1,7.618570328E-2,7.730919100E-1
4.109694870E-1,7.571428269E-2,6.481776237E-1,-7.308330536E-1,9.797876488E-1
4.209715180E-1,-4.280952364E-2,-9.038925171E-3,-1.455668449E0,1.456325854E0
4.309712570E-1,-2.718894277E-3,-5.337953568E-2,-1.439962864E0,1.440954481E0
4.409694350E-1,3.611607105E-2,-9.080505371E-2,-1.408079147E0,1.411466193E0
4.509772470E-1,7.380951941E-2,-1.175365448E-1,-1.367382526E0,1.374408112E0
4.609709970E-1,-8.365546167E-2,-1.256160736E-1,-1.314608574E0,1.323243491E0
4.709691740E-1,-4.240816087E-2,-1.368956566E-1,-1.204096317E0,1.212595074E0
4.809704760E-1,-2.341270214E-3,-1.461138725E-1,-5.161294937E-1,5.364181201E-1
4.909754240E-1,3.664092720E-2,-1.678872108E-1,-4.055633545E-1,4.404660119E-1
5.009764660E-1,7.462406158E-2,-2.050995827E-1,-3.102889061E-1,3.793597167E-1
5.109699550E-1,-8.318681270E-2,-2.601933479E-1,-2.425956726E-1,3.653399574E-1
5.209686530E-1,-4.210714251E-2,-3.065319061E-1,-1.937928200E-1,3.650896849E-1
5.309686530E-1,-1.781324506E0,-3.309636116E-1,-1.660060883E-1,1.819398782E0
5.409709970E-1,-1.880440950E0,-3.270740509E-1,-1.610207558E-1,1.915453807E0
5.509696430E-1,-2.851433516E0,-2.990021706E-1,-1.899147034E-1,2.873350481E0
5.609877160E-1,-2.893966198E0,-2.694950104E-1,-2.621169090E-1,2.918282575E0
5.709759970E-1,-3.539312601E0,-2.388262749E-1,-3.760466576E-1,3.567237414E0
5.809788100E-1,-3.510829449E0,-2.168283463E-1,-1.144484520E0,3.699024570E0
5.909710490E-1,-3.478552103E0,-2.023043633E-1,-1.171112061E0,3.675969974E0
6.009782890E-1,-3.452825069E0,-1.750025749E-1,-1.210555077E0,3.663068448E0
6.109738620E-1,-3.432888746E0,-1.031632423E-1,-1.251346588E0,3.655302461E0
6.209709970E-1,-3.427694082E0,5.179405212E-1,-1.288460732E0,3.698307743E0
6.309762050E-1,-3.435275793E0,6.200203896E-1,-1.341640949E0,3.739725323E0
6.409709970E-1,-4.092391968E0,1.344810963E0,-1.945096493E0,4.726477431E0
6.509751640E-1,-4.073704720E0,1.326128483E0,-1.928057432E0,4.697988118E0
6.609699550E-1,-4.054431915E0,1.302645683E0,-1.924066544E0,4.673043547E0
6.709741220E-1,-4.005900383E0,1.270298004E0,-1.945808411E0,4.631097631E0
6.809707370E-1,-3.908315420E0,1.235239029E0,-1.980054617E0,4.552072184E0
6.909749030E-1,-3.739888668E0,1.193119526E0,-2.025054693E0,4.417142511E0
7.009769870E-1,-2.830561161E0,1.145026207E0,-2.040708065E0,3.672553731E0
7.109717780E-1,-2.636672497E0,1.140141964E0,-2.021492720E0,3.512605638E0
7.209694350E-1,-1.763170719E0,1.206262112E0,-2.010955095E0,2.933901781E0
7.309662050E-1,-1.695620894E0,2.127254009E0,-2.065877438E0,3.415873157E0
7.409856850E-1,-1.653786778E0,2.847125530E0,-2.726844549E0,4.275139260E0
7.509759970E-1,-1.585913062E0,2.959648132E0,-2.794704914E0,4.368639704E0
7.609714140E-1,-1.490912914E0,4.050071239E0,-3.651972771E0,5.653565555E0
7.709697470E-1,-1.382374406E0,4.008403778E0,-3.754723310E0,5.663586053E0
7.809749030E-1,-1.276853919E0,3.968277931E0,-5.034817219E0,6.536587037E0
7.909696950E-1,-6.347565651E-1,3.929627419E0,-4.921363831E0,6.329668988E0
8.009790700E-1,-6.001703739E-1,3.793835640E0,-5.007720947E0,6.311153811E0
8.109720390E-1,-5.983935595E-1,3.759351730E0,-6.410699844E0,7.455727515E0
8.209756850E-1,-7.705616951E-1,3.746582985E0,-7.257219315E0,8.203528605E0
8.309722990E-1,-1.780231953E0,3.714986324E0,-7.272601128E0,8.358293866E0
8.409704760E-1,-1.887865901E0,3.585865021E0,-7.845203400E0,8.830044280E0
8.509754240E-1,-2.676167011E0,3.557786465E0,-7.805614471E0,8.985951907E0
8.609709970E-1,-2.702937365E0,3.530710697E0,-7.788854122E0,8.968725493E0
8.709702160E-1,-2.693025589E0,3.504597187E0,-7.777441978E0,8.945568288E0
8.809694350E-1,-2.617586136E0,3.479410648E0,-8.350994110E0,9.417916875E0
8.909709970E-1,-2.485677004E0,3.356379986E0,-8.297790527E0,9.289628863E0
9.009777680E-1,-1.737872839E0,3.334174633E0,-8.235172272E0,9.052899250E0
9.109682890E-1,-1.685649991E0,3.312765598E0,-8.213083267E0,9.015019055E0
9.209919870E-1,-1.657551765E0,3.292121410E0,-8.143798828E0,8.939071573E0
9.309695910E-1,-1.626134634E0,3.272216797E0,-8.058158875E0,8.847917329E0
9.409676120E-1,-1.582216144E0,3.154214382E0,-7.953758240E0,8.701422092E0
9.509661010E-1,-1.527564287E0,3.136870384E0,-7.833379745E0,8.575269482E0
9.609722990E-1,-1.449171305E0,3.120162964E0,-7.704289436E0,8.437510895E0
9.709749550E-1,-1.350357890E0,3.104068756E0,-7.548529625E0,8.272787243E0
9.809728200E-1,-7.032099962E-1,3.088568211E0,-7.384537697E0,8.035244544E0
9.909707370E-1,-5.908201933E-1,2.974764347E0,-6.551542282E0,7.219487357E0
1.000977247E0,2.069761753E-1,2.981635094E0,-6.422692299E0,7.084064041E0
1.010968914E0,2.651995420E-1,2.969007969E0,-6.331926823E0,6.998473862E0
1.020971778E0,3.055619001E-1,2.956868649E0,-6.245504379E0,6.916846480E0
1.030970216E0,3.207128048E-1,2.846263885E0,-6.163016319E0,6.796090417E0
1.040970476E0,3.237314224E-1,2.836091995E0,-6.108371735E0,6.742434656E0
1.050981153E0,3.065357208E-1,2.826341629E0,-6.053694248E0,6.688003080E0
1.060981674E0,2.815679312E-1,2.816997528E0,-5.994263172E0,6.629173897E0
1.070981153E0,2.547552586E-1,2.808049202E0,-5.940559387E0,6.575734666E0
1.080977768E0,2.263762951E-1,2.700493336E0,-5.901652336E0,6.494105849E0
1.090968497E0,1.966733932E-1,2.693287849E0,-5.890240669E0,6.479769672E0
1.100984122E0,1.804292202E-1,2.686424255E0,-5.902724266E0,6.487802690E0
1.110974955E0,1.710071564E-1,2.679890156E0,-5.950533390E0,6.528392016E0
1.120974278E0,1.723662615E-1,2.673677921E0,-6.555394173E0,7.081769307E0
1.130969070E0,2.219388485E-1,2.568738937E0,-6.511728764E0,7.003591084E0
1.140981153E0,3.181068897E-1,2.564083576E0,-6.442364216E0,6.941165123E0
1.150980893E0,1.820340395E0,2.559705734E0,-6.345998764E0,7.080779118E0
1.160971257E0,1.842954040E0,2.555595875E0,-6.206947327E0,6.960872430E0
1.170980372E0,1.865519404E0,2.551748276E0,-5.511042118E0,6.353201330E0
1.180979591E0,1.729651093E0,2.469095707E0,-4.646046638E0,5.538400119E0
1.190980632E0,1.753708243E0,2.466671944E0,-4.507030964E0,5.428930944E0
1.200985060E0,1.777692914E0,2.464468956E0,-4.372043610E0,5.324337016E0
1.210983757E0,1.801607251E0,2.462482929E0,-4.274756432E0,5.251966623E0
1.220978810E0,1.627207160E0,2.361584187E0,-4.200571537E0,5.086224951E0
1.230980372E0,1.652709842E0,2.360874176E0,-4.136804581E0,5.041659333E0
1.240981414E0,1.678117514E0,2.360349655E0,-4.091896057E0,5.013077122E0
1.250982455E0,1.703432679E0,2.360004425E0,-4.112063408E0,5.037893334E0
1.260978289E0,1.728657961E0,2.359835148E0,-4.135196209E0,5.065266820E0
1.271339226E0,1.555475831E0,2.260676861E0,-4.156048298E0,4.980251237E0
1.280989903E0,1.582180262E0,2.261670589E0,-4.213854790E0,5.037362447E0
1.290968966E0,1.608773828E0,2.262814045E0,-4.269650936E0,5.092975530E0
1.300960580E0,1.635259271E0,2.264101982E0,-4.928007126E0,5.664405079E0
1.310969487E0,1.661639333E0,2.265532494E0,-4.943830490E0,5.686399798E0
1.320970476E0,1.489529252E0,2.167907238E0,-4.986930847E0,5.638084645E0
1.330975685E0,1.517293096E0,2.170403481E0,-5.000172615E0,5.658140665E0
1.340974643E0,1.544933558E0,2.173019886E0,-5.021587372E0,5.685523270E0
1.350971518E0,1.572453737E0,2.175751686E0,-5.030644894E0,5.702095597E0
1.360971257E0,1.441194415E0,1.038700104E0,-4.950906754E0,5.259982598E0
1.370970476E0,1.469800711E0,9.810433388E-1,-4.843609810E0,5.155901100E0
1.380969695E0,2.534163475E0,9.446988106E-1,-4.716859341E0,5.437205385E0
1.390973601E0,2.560650110E0,9.317669868E-1,-4.078767776E0,4.905248748E0
1.400970216E0,2.561897516E0,9.537906647E-1,-4.005883694E0,4.849756662E0
1.410969435E0,2.531501770E0,9.915528297E-1,-3.909831524E0,4.762190753E0
1.420969955E0,2.459055424E0,1.052698135E0,-3.832717896E0,4.673847816E0
1.430971257E0,1.403569937E0,2.087651730E0,-3.801359653E0,4.558358644E0
1.440969435E0,1.433032870E0,2.092267036E0,-3.819534302E0,4.584758101E0
1.450969070E0,1.462358832E0,2.096961021E0,-3.900225639E0,4.663421375E0
1.460975372E0,1.292989254E0,2.002450466E0,-4.644389153E0,5.220342870E0
1.470978445E0,1.323467970E0,2.008003712E0,-4.692319870E0,5.272713925E0
1.480969487E0,1.353797913E0,2.013621330E0,-4.754367828E0,5.337738575E0
1.490970997E0,1.383982420E0,2.019299507E0,-5.375291348E0,5.906499379E0
1.500973601E0,1.414024591E0,2.025039196E0,-5.368546009E0,5.909444605E0
1.510969174E0,1.245316029E0,1.931531906E0,-5.343638420E0,5.816880528E0
1.520970737E0,1.276451826E0,1.938072681E0,-5.302997589E0,5.788543721E0
1.530970997E0,1.307435036E0,1.944661617E0,-5.219509602E0,5.721396303E0
1.540971257E0,1.378060460E0,1.971251488E0,-5.009398460E0,5.556883659E0
1.550970476E0,1.209885478E0,1.878558636E0,-4.270890713E0,4.820094698E0
1.560967872E0,1.241552949E0,1.885900974E0,-4.155169487E0,4.729007261E0
1.570970216E0,1.273065805E0,1.893279552E0,-3.457462788E0,4.142372863E0
1.580975685E0,1.304427147E0,1.900691509E0,-3.330049992E0,4.050110041E0
1.590971257E0,1.335640073E0,1.908138275E0,-2.531488895E0,3.439965423E0
1.600973601E0,2.442862988E0,1.816267490E0,-2.393837214E0,3.872578440E0
1.610971257E0,2.487171173E0,1.824419975E0,-5.148088336E-1,3.127228298E0
1.620969435E0,2.528664589E0,1.832597256E0,-4.717651904E-1,3.158341289E0
1.631072403E0,2.553068161E0,1.840796947E0,-4.290151000E-1,3.176593205E0
1.640970893E0,2.547982693E0,1.849020004E0,-3.865529895E-1,3.171831331E0
1.651106466E0,2.517271519E0,1.757894516E0,-5.431155562E-1,3.117983890E0
1.660967664E0,2.493562698E0,1.766781807E0,5.342073441E-1,3.102378180E0
1.670970737E0,2.500348806E0,1.775684357E0,5.379748344E-1,3.113553598E0
1.680970476E0,2.514156342E0,1.784599304E0,-4.271843433E-1,3.112597508E0
1.690970216E0,2.529195309E0,1.793528557E0,-3.848089576E-1,3.124364180E0
1.700970997E0,2.545305729E0,1.703080177E0,-5.414869785E-1,3.110027571E0
1.710969695E0,2.537966728E0,-4.877758026E-2,-4.984476566E-1,2.586910210E0
1.720971778E0,2.479348183E0,-2.130179405E-1,-1.902065396E0,3.132155300E0
1.730968914E0,2.418574333E0,-2.243175507E-1,-2.612025976E0,3.566861347E0
1.740970737E0,2.334736347E0,-2.047252655E-1,-2.735502720E0,3.602205071E0
1.750970997E0,2.245532990E0,-1.485214233E-1,-3.589673758E0,4.236771732E0
1.760968653E0,2.156608820E0,-2.149105072E-2,-3.679014444E0,4.264571579E0
1.770968132E0,2.048485041E0,1.757947922E0,-4.365386009E0,5.132569227E0
1.780969435E0,1.057636142E0,1.767671585E0,-4.416512966E0,4.873278550E0
1.790970216E0,8.924773335E-1,1.677972794E0,-4.448193550E0,4.837203153E0
1.800968653E0,9.271488786E-1,2.717848778E0,-4.419049740E0,5.270133549E0
1.811019851E0,9.616537094E-1,3.345435143E0,-4.346779346E0,5.568770496E0
1.820977820E0,9.959946871E-1,3.361613274E0,-4.261439800E0,5.518361930E0
1.830989955E0,1.030174494E0,3.334396362E0,-4.150164604E0,5.422483272E0
1.840967143E0,8.653131723E-1,3.220664024E0,-3.401080370E0,4.763275273E0
1.850974903E0,9.002836347E-1,1.598274231E0,-3.294051170E0,3.770379855E0
1.860971778E0,2.348596573E0,1.609333992E0,-3.164580345E0,4.256809900E0
1.870973862E0,2.339423180E0,1.620381355E0,-2.524711609E0,3.804300890E0
1.880968653E0,2.300629377E0,2.005577087E-1,-2.496238232E0,3.400635858E0
1.890970997E0,2.211694479E0,8.324909210E-2,-2.489346027E0,3.330970808E0
1.900969435E0,8.848016262E-1,1.593875885E-2,-2.582064390E0,2.729502606E0
1.910970216E0,9.198561907E-1,1.225795746E-1,-3.303057194E0,3.430939811E0
1.920969174E0,-5.727117658E-1,1.629367828E0,-3.415564775E0,3.827390890E0
1.930968914E0,-7.108668685E-1,1.541170120E0,-4.360215664E0,4.678890646E0
1.940972560E0,-1.413072109E0,1.552952766E0,-4.428349972E0,4.900889568E0
1.950969435E0,-1.401930094E0,1.564718246E0,-4.470223427E0,4.939296373E0
1.960970476E0,-1.332787752E0,1.576463699E0,-4.450184822E0,4.905680986E0
1.970967872E0,-6.624657512E-1,1.588191986E0,-4.332354546E0,4.661599571E0
1.980969955E0,-5.463280082E-1,1.500417709E0,-3.274860382E0,3.643410232E0
1.990993914E0,8.703279495E-1,1.512619972E0,-2.155414581E0,2.773319660E0
2.000983028E0,9.056834579E-1,1.524801254E0,-1.163557291E0,2.121119271E0
2.011021882E0,9.408830404E-1,1.536958694E0,1.383223832E-1,1.807383746E0
2.020966882E0,9.759290218E-1,1.549096107E0,1.774217486E-1,1.839460433E0
2.030967403E0,8.118289113E-1,1.461713791E0,1.733421534E-2,1.672116582E0
2.040966570E0,8.475697041E-1,1.474305153E0,5.704754591E-2,1.701530050E0
2.050973080E0,1.902751207E0,4.298782349E-1,9.656472504E-2,1.953095543E0
2.060972820E0,1.965928793E0,-4.251232147E-1,1.358886659E-1,2.015954240E0
2.070970737E0,2.058822870E0,-5.428886414E-1,1.750222147E-1,2.136378352E0
2.080972039E0,2.827827454E0,-1.472218037E0,-9.437117577E-1,3.324849761E0
2.090971257E0,2.806479454E0,-1.546216488E0,-1.702580452E0,3.628483505E0
2.100972560E0,2.722784281E0,-1.599986076E0,-1.767192841E0,3.618905942E0
2.110970216E0,1.976168275E0,-1.611702919E0,-1.832195520E0,3.140026716E0
2.120968393E0,1.801733971E0,-1.567267418E0,-1.887742043E0,3.044033916E0
2.130969955E0,7.151921391E-1,-1.483338356E0,-1.988695025E0,2.581995426E0
2.140971778E0,-1.508666635E0,1.318807602E-1,-2.086075306E0,2.577824224E0
2.150972560E0,-3.562953472E0,1.541414261E0,-2.168775797E0,4.446817269E0
2.160969226E0,-4.660108566E0,2.701333046E0,-2.206722975E0,5.820948236E0
2.170986205E0,-4.776154041E0,3.369806290E0,-2.241267681E0,6.260233436E0
2.180977716E0,-4.826504230E0,3.485127449E0,-2.310859680E0,6.386026064E0
2.190986362E0,-4.787795544E0,4.255664825E0,-3.046892405E0,7.093463371E0
2.200967924E0,-4.626006126E0,4.304490089E0,-3.083213568E0,7.030986667E0
2.210970476E0,-3.570838690E0,4.371785164E0,-3.095423698E0,6.437782409E0
2.220969955E0,-1.819835424E0,4.226790428E0,-3.054917097E0,5.523592741E0
2.230970476E0,-1.500707269E-1,3.115706444E0,-2.970922232E0,4.307728726E0
2.240973862E0,1.076518655E0,3.015952110E0,-2.918922424E0,4.333009077E0
2.250971257E0,1.206651568E0,2.959103584E0,-2.855897903E0,4.285843542E0
2.260971518E0,1.171178699E0,2.928160667E0,-2.690713406E0,4.145566676E0
2.270959070E0,1.291465998E0,2.976305008E0,-2.572116137E0,4.140296770E0
2.280970216E0,1.346375346E0,3.042626381E0,-2.468879700E0,4.143147214E0
2.290979070E0,1.359333873E0,3.082784653E0,-2.393362284E0,4.132739142E0
2.300989226E0,1.372416615E0,3.125692368E0,-2.329696655E0,4.132912611E0
2.310980112E0,1.186087012E0,3.190369606E0,-2.278393984E0,4.095893037E0
2.320978810E0,1.201022506E0,3.797210693E0,-2.243749380E0,4.571178775E0
2.330980893E0,1.217158318E0,3.839717865E0,-2.219101906E0,4.598839084E0
2.340984539E0,1.234219790E0,3.884282112E0,-2.193404436E0,4.628387304E0
2.350986935E0,1.252268076E0,3.911142349E0,-2.195461750E0,4.656743723E0
2.360986830E0,1.070681572E0,3.927257538E0,-2.241440773E0,4.646909461E0
2.370968862E0,1.994490623E-2,3.939550400E0,-2.309226990E0,4.566506810E0
2.380975476E0,-1.031076908E-2,3.908750534E0,-2.381190777E0,4.576953852E0
2.390982976E0,1.122641563E-2,3.806487083E0,-2.414047241E0,4.507448728E0
2.400981153E0,7.829463482E-2,3.073994637E0,-2.412196636E0,3.908230506E0
2.410981414E0,1.007158756E0,2.943760872E0,-2.380218029E0,3.917337705E0
2.420986622E0,1.035470009E0,1.139163971E0,-2.355413914E0,2.813870537E0
2.430983497E0,1.065684676E0,1.153803825E0,-2.299812794E0,2.784975042E0
2.440980632E0,1.135836005E0,1.188364029E0,-2.091819525E0,2.660458874E0
2.450979851E0,9.672818780E-1,1.103434563E0,-1.470331311E0,2.077276157E0
2.460979851E0,1.002258778E0,1.119275093E0,-1.445449114E0,2.084855518E0
2.470979070E0,1.038511872E0,1.135342598E0,-1.445209980E0,2.110957510E0
2.480978289E0,1.075360656E0,1.152308464E0,-1.455886364E0,2.145651519E0
2.490979591E0,1.115067959E0,1.169613838E0,-1.437885642E0,2.163073786E0
2.500982195E0,9.547737241E-1,1.086999893E0,-1.397700787E0,2.011648359E0
2.510979070E0,9.952203631E-1,1.103103638E0,-1.440577269E0,2.069435690E0
2.520969174E0,1.036307216E0,1.119322777E0,-1.549697161E0,2.174483252E0
2.530988757E0,1.076969624E0,1.135462761E0,-1.590177298E0,2.231099077E0
2.540985164E0,1.118623376E0,1.151772499E0,-1.545435548E0,2.228512773E0
2.551013497E0,9.604882598E-1,1.068373680E0,-1.446921349E0,2.039005004E0
2.560966882E0,1.001471519E0,1.084792137E0,-1.331414938E0,1.988060593E0
2.570972039E0,1.044735909E0,1.101594925E0,-1.233212590E0,1.955964670E0
2.580972039E0,1.088339329E0,1.118463516E0,-1.165632129E0,1.947855588E0
2.590972039E0,1.133841276E0,1.135691643E0,-1.069771409E0,1.928678930E0
2.600971257E0,9.789840579E-1,2.136837006E0,-2.699279785E-1,2.365870514E0
2.610969695E0,1.023436427E0,2.187833786E0,-2.691704035E-1,2.430327447E0
2.620975164E0,1.107082725E0,2.157545090E0,-4.255185723E-1,2.462051792E0
2.630971257E0,1.150166273E0,1.111114502E0,-4.822229743E-1,1.670328378E0
2.640976726E0,9.933860898E-1,1.027694702E0,-5.394060612E-1,1.527720924E0
2.650972039E0,1.036524296E0,1.042833328E0,-6.253792048E-1,1.597805719E0
2.660969955E0,1.078776240E0,1.057921410E0,-7.021811604E-1,1.666137530E0
2.670968914E0,1.120797634E0,1.073073387E0,-7.899513245E-1,1.741176880E0
2.680969435E0,1.161967635E0,1.088163376E0,-8.779144287E-1,1.817966463E0
2.690969955E0,1.001609445E0,1.003374100E0,-9.709486961E-1,1.718348752E0
2.700971518E0,1.041980624E0,1.018709183E0,-1.634119987E0,2.189483993E0
2.710989174E0,1.082134724E0,1.034077644E0,-1.705735445E0,2.269331519E0
2.721000060E0,1.122014880E0,1.049634933E0,-1.781159639E0,2.352271359E0
2.731017195E0,1.161393762E0,1.065286636E0,-1.816223264E0,2.404649253E0
2.740981466E0,1.001019835E0,9.814271927E-1,-1.874004364E0,2.340327413E0
2.750965528E0,1.040120959E0,9.976596832E-1,-1.917248487E0,2.398545021E0
2.760979591E0,1.078946114E0,1.014038086E0,-1.986275434E0,2.477435783E0
2.770969435E0,1.117055893E0,1.031900406E0,-2.024516344E0,2.532054254E0
2.780970997E0,1.154791832E0,1.049830437E0,-2.058397770E0,2.583154951E0
2.790968393E0,9.928848147E-1,9.682931900E-1,-2.106687784E0,2.522210415E0
2.800972299E0,1.070571899E0,1.006778717E0,-2.227728605E0,2.668801663E0
2.810968914E0,3.662610054E-2,1.025337219E0,-2.250253201E0,2.473114909E0
2.820969955E0,-4.574298859E-3,1.044018745E0,-2.250012398E0,2.480433804E0
2.830972299E0,-5.546569824E-2,9.631099701E-1,-2.215655327E0,2.416564873E0
2.840970476E0,-1.079921722E-1,9.825487137E-1,-2.155931950E0,2.371730772E0
2.850969174E0,-1.391460896E-1,1.002130508E0,-2.059207201E0,2.294332471E0
2.860968393E0,-1.369791031E-1,1.021833420E0,-1.930451155E0,2.188503706E0
2.870970997E0,-1.334946156E-1,1.041637421E0,-1.805113316E0,2.088363812E0
2.880968653E0,-9.427869320E-2,9.664821625E-1,-1.680552840E0,1.940936395E0
2.890993914E0,-6.476604939E-2,9.914894104E-1,-1.578088522E0,1.864834919E0
2.900988757E0,-5.342435837E-2,1.016610146E0,-1.490548968E0,1.805017057E0
2.910968601E0,-4.764544964E-2,1.041960716E0,-1.415735126E0,1.758481779E0
2.920968966E0,-6.249809265E-2,1.067243576E0,-1.372654438E0,1.739854899E0
2.930990528E0,-8.160817623E-2,9.923553467E-1,-1.354723930E0,1.681281046E0
2.940975945E0,-1.194684505E-1,1.016874313E0,-1.354285002E0,1.697761451E0
2.950972820E0,-1.587996483E-1,1.040977478E0,-1.353786945E0,1.715106566E0
2.960972299E0,-1.797260046E-1,1.064750671E0,-1.348150730E0,1.727282785E0
2.970970216E0,-1.829038858E-1,1.088680267E0,-1.327095389E0,1.726227311E0
2.980970476E0,-1.446768045E-1,1.032995224E0,-1.298927546E0,1.665900141E0
2.990969695E0,-4.891300201E-2,1.057595253E0,-1.256258488E0,1.642889402E0
3.000974695E0,6.998074055E-2,1.082516670E0,-1.207623243E0,1.623297121E0
3.010968653E0,2.127838135E-1,1.107572556E0,-1.158503175E0,1.616825137E0
3.020971257E0,1.567051053E0,1.032567024E0,-1.119899988E0,2.185410636E0
3.030970216E0,1.636989594E0,1.057312965E0,-1.094601274E0,2.235128091E0
3.040968393E0,1.705164433E0,1.081740379E0,-1.090997458E0,2.295217515E0
3.050971257E0,1.771591902E0,1.105822563E0,-1.091780424E0,2.356558063E0
3.060970476E0,1.836494446E0,1.129445076E0,-1.107136726E0,2.423656279E0
3.070985320E0,1.696586728E0,1.052090645E0,-1.135490894E0,2.296658621E0
3.080986414E0,1.706471801E0,1.064013481E0,-1.172099352E0,2.327657102E0
3.090982143E0,1.717695117E0,1.076348305E0,-1.212572575E0,2.362061480E0
3.100966882E0,1.728329778E0,1.088599205E0,-1.252119541E0,2.395824575E0
3.110973549E0,1.738291383E0,1.100716591E0,-1.291114450E0,2.429034884E0
3.120981674E0,1.550372720E0,1.013607025E0,-1.328548193E0,2.279494477E0
3.130976726E0,1.564600468E0,1.027241707E0,-1.348729014E0,2.307004573E0
3.140972039E0,1.579961777E0,1.041388512E0,-1.353828669E0,2.326719002E0
3.150975685E0,1.596204996E0,1.056233406E0,-1.349033713E0,2.341664228E0
3.160970216E0,1.452141881E0,9.913949966E-1,-1.325077653E0,2.201683644E0
3.170969174E0,1.469697714E0,1.007289886E0,-1.292612314E0,2.201247574E0
3.180972039E0,1.489519238E0,1.023851395E0,-1.251010895E0,2.198173674E0
3.190971778E0,1.510956049E0,1.040923119E0,-1.201495409E0,2.193194095E0
3.200968132E0,-5.660855770E-2,1.057950974E0,-1.151792645E0,1.564957216E0
3.210969174E0,-1.009162664E-1,9.752140045E-1,-1.097221255E0,1.471434990E0
3.220973080E0,-1.603193283E-1,2.453140259E0,-1.013780594E0,2.659201103E0
3.230970997E0,-2.118227482E-1,2.498568535E0,-9.200139046E-1,2.670980941E0
3.240969695E0,-2.670232058E-1,2.547265053E0,-8.363182545E-1,2.694306750E0
3.251000632E0,-3.112024069E-1,2.569066048E0,-7.631517649E-1,2.698026670E0
3.260982560E0,-3.391877413E-1,2.577445984E0,-6.942926645E-1,2.690783980E0
3.270992403E0,-3.111466169E-1,2.568102837E0,-6.272832155E-1,2.661850602E0
3.280974435E0,-2.592523098E-1,2.547396660E0,-5.771770477E-1,2.624799963E0
3.290970216E0,-1.897157431E-1,2.499336243E0,-5.515991449E-1,2.566502549E0
3.300970997E0,-8.539199829E-2,2.417760849E0,-5.663819313E-1,2.484682637E0
3.310972560E0,1.833975315E-2,9.371156693E-1,-6.065537930E-1,1.116436128E0
3.320969955E0,1.311535835E-1,9.582920074E-1,-6.560658216E-1,1.168737437E0
3.330971257E0,2.370327711E-1,9.792995453E-1,-6.955389977E-1,1.224331095E0
3.340970476E0,1.789249420E0,1.020086288E0,-7.142783403E-1,2.179950245E0
3.350970216E0,1.655610800E0,9.409446716E-1,-7.143578529E-1,2.033895557E0
3.360976205E0,1.718769431E0,-1.930665970E-1,-7.053992748E-1,1.867894859E0
3.370970737E0,1.780686617E0,-2.533798218E-1,-6.694096327E-1,1.919154871E0
3.380969695E0,1.838772416E0,-3.060150146E-1,-6.383789778E-1,1.970344362E0
3.390970476E0,1.892363429E0,-3.085088730E-1,-6.087746620E-1,2.011671857E0
3.400968914E0,1.700808525E0,-2.707796097E-1,-6.038711071E-1,1.825029192E0
3.410968653E0,1.708427429E0,-1.657609940E-1,-6.176754236E-1,1.824205010E0
3.420969226E0,2.738878012E0,9.771547318E-1,-6.400299072E-1,2.977569884E0
3.430988966E0,2.731449127E0,9.869928360E-1,-6.722921133E-1,2.981098099E0
3.440986570E0,2.729243279E0,2.681637764E0,-7.031652927E-1,3.890294513E0
3.450992612E0,2.711023569E0,3.672807693E0,-7.333939075E-1,4.623530228E0
3.460968185E0,2.675401926E0,4.549322128E0,-7.211879492E-1,5.326745662E0
3.470971518E0,2.645605087E0,4.694718361E0,-6.719101667E-1,5.430568114E0
3.480980112E0,2.552363396E0,5.535967827E0,-5.730708838E-1,6.122900368E0
3.490969955E0,2.390964031E0,5.515486717E0,2.126560211E-1,6.015191211E0
3.500970216E0,1.238465786E0,5.422619820E0,2.578390837E-1,5.568220919E0
3.510972820E0,1.214112043E0,4.715030670E0,3.124136925E-1,4.878850745E0
3.520986362E0,1.233261943E0,3.255537987E0,1.372152448E0,3.741960040E0
3.530979330E0,1.215784550E0,2.427563667E0,1.369498610E0,3.040842626E0
3.540983497E0,-2.709566355E-1,1.728817940E0,1.143812418E0,2.090582650E0
3.550980893E0,-3.636215925E-1,6.790256500E-1,1.119157910E0,1.358606243E0
3.561025685E0,-4.008188248E-1,6.882848740E-1,1.096305728E0,1.355093372E0
3.570981153E0,-3.786262274E-1,6.950941086E-1,1.045722127E0,1.311506160E0
3.580981674E0,-3.198984861E-1,7.034254074E-1,1.000160098E0,1.263907658E0
3.590981674E0,-2.485173941E-1,6.135787964E-1,7.618098259E-1,1.009254203E0
3.600982716E0,-2.284564972E-1,6.243839264E-1,-2.881997228E-1,7.246424904E-1
3.610990320E0,-2.462652922E-1,6.406373978E-1,-4.071369767E-1,7.980121474E-1
3.620987612E0,-2.875250578E-1,-1.079504013E0,-5.466498137E-1,1.243714433E0
3.631028810E0,-3.412324190E-1,-1.187776089E0,-6.754087806E-1,1.408342509E0
3.640967143E0,-3.810817003E-1,-1.913476944E0,-7.551214099E-1,2.092086428E0
3.650982195E0,-4.428129196E-1,-2.006862640E0,-8.098850250E-1,2.208957830E0
3.661025945E0,-4.928045273E-1,-2.650259495E0,-8.672338724E-1,2.831753217E0
3.670979330E0,-5.198711157E-1,-2.729188442E0,-8.560572267E-1,2.907158321E0
3.680980893E0,-4.732189178E-1,-3.356647968E0,-8.423503637E-1,3.492932273E0
3.690981674E0,-2.859047651E-1,-3.440114021E0,-8.349121213E-1,3.551507323E0
3.700978289E0,1.261606693E0,-3.603435993E0,-7.715971470E-1,3.895094936E0
3.710981414E0,1.322301507E0,-3.671772480E0,-7.311833501E-1,3.970519300E0
3.720979070E0,2.893008709E0,-3.710367203E0,-6.655731797E-1,4.751769336E0
3.730984278E0,3.021589756E0,-3.708192825E0,3.035876751E-1,4.793001581E0
3.740981153E0,3.743875980E0,-3.675083160E0,3.446490765E-1,5.257530464E0
3.750980112E0,3.733765602E0,-3.623176575E0,3.829658628E-1,5.216807157E0
3.760993393E0,3.660900831E0,-3.523311138E0,4.220800400E-1,5.098437784E0
3.770969435E0,3.497277021E0,-2.683712006E0,4.600134492E-1,4.432253272E0
3.780968653E0,2.445103645E0,-1.913541794E0,2.953769565E-1,3.118881463E0
3.790985789E0,9.618816972E-1,-7.698640823E-1,1.898265004E0,2.263032729E0
3.800987820E0,9.075705409E-1,7.424144745E-1,2.618396997E0,2.868948653E0
3.810997664E0,-7.151504755E-1,2.362882614E0,3.444191456E0,4.237582947E0
3.820967664E0,-2.266881227E0,3.715629578E0,4.439167500E0,6.216981723E0
3.830975164E0,-3.667076826E0,4.597661018E0,5.414440632E0,7.993879324E0
3.840971778E0,-4.753469467E0,4.687124252E0,6.102769852E0,9.044799920E0
3.850968914E0,-5.529682636E0,4.706255913E0,6.043376446E0,9.447149498E0
3.860992612E0,-5.640266418E0,4.620721817E0,5.821429253E0,9.330204388E0
3.870977507E0,-5.644681931E0,3.600728989E0,5.485351562E0,8.655447135E0
3.880970216E0,-5.456564903E0,6.547555923E-1,3.656021595E0,6.600704457E0
3.890969435E0,-4.463685513E0,-3.030872345E-1,2.475567341E0,5.113197032E0
3.900976205E0,-3.574566841E0,-3.508462906E-1,1.260409236E0,3.806475097E0
3.910969955E0,-3.256597996E0,-2.593784332E-1,2.129153013E-1,3.273841872E0
3.920968914E0,-2.162522316E0,8.270730972E-1,-1.639428139E0,2.836948589E0
3.930970216E0,-1.860907793E0,9.020652771E-1,-1.758864164E0,2.714830147E0
3.940970997E0,-6.156193018E-1,2.749981880E0,-1.870330572E0,3.382236526E0
3.950968653E0,3.981429338E-1,4.037712097E0,-1.946592331E0,4.500095385E0
3.961013445E0,2.123918772E0,5.237567902E0,-1.983331800E0,5.989720653E0
3.970969122E0,3.190769196E0,5.938070297E0,-2.180601358E0,7.084963599E0
3.980959070E0,4.466382980E0,5.926620483E0,-3.494783401E0,8.202860373E0
3.990981310E0,5.529340744E0,5.224339485E0,-3.550583839E0,8.394878065E0
4.000974122E0,6.250897408E0,4.153659821E0,-4.128693581E0,8.565787704E0
4.010969695E0,6.336939812E0,2.820652008E0,-4.103932381E0,8.059475474E0
4.020967872E0,6.338482857E0,9.479036331E-1,-4.082950592E0,7.599037555E0
4.030972560E0,6.225563049E0,-3.425827026E-1,-4.162078381E0,7.496525504E0
4.040971257E0,5.941202164E0,-1.880550861E0,-5.302834988E0,8.182567665E0
4.050973862E0,4.108771324E0,-3.021229744E0,-6.671696663E0,8.397700121E0
4.060993914E0,3.791341305E0,-3.064672470E0,-6.685459137E0,8.274167639E0
4.070970216E0,2.701288223E0,-2.959381104E0,-7.265603065E0,8.297221371E0
4.080976205E0,2.427382946E0,-1.733170033E0,-7.158593655E0,7.755096997E0
4.090970216E0,9.841960073E-1,-6.903295517E-1,-6.972651482E0,7.075525801E0
4.100970216E0,8.897091150E-1,7.585802078E-1,-6.017804623E0,6.130334307E0
4.110971778E0,6.004496217E-1,6.484966278E-1,-5.161604881E0,5.236721548E0
4.120968653E0,5.412976146E-1,6.454229355E-1,-4.840235233E0,4.912987990E0
4.130968914E0,4.905651808E-1,2.069598198E0,-3.633240938E0,4.210027389E0
4.140990528E0,4.761574566E-1,2.049149513E0,-3.355224133E0,3.960210680E0
4.150963757E0,4.680945873E-1,1.959066391E0,-2.497109652E0,3.208209825E0
4.160999591E0,3.108663559E-1,5.689249039E-1,-2.346182585E0,2.434108904E0
4.170984695E0,3.545876443E-1,5.862226486E-1,-2.237195015E0,2.339750185E0
4.180967664E0,3.997353017E-1,6.053590775E-1,-2.170197487E0,2.288231862E0
4.190971778E0,4.454137087E-1,6.252002716E-1,-2.143836737E0,2.277126414E0
4.200970997E0,1.468615890E0,6.455717087E-1,-2.087801695E0,2.632966270E0
4.210970476E0,2.100989342E0,5.660028458E-1,-2.027471542E0,2.974080747E0
4.220974643E0,2.140081882E0,5.866346359E-1,-1.940387487E0,2.947743927E0
4.230969955E0,2.092480183E0,6.273689270E-1,-1.809416294E0,2.836556435E0
4.240970216E0,1.963423491E0,6.482543945E-1,-1.769882679E0,2.721718255E0
4.250970476E0,3.243535161E-1,5.678195953E-1,-1.780226946E0,1.896531644E0
4.260991830E0,3.404776752E-1,5.876436234E-1,-1.823523283E0,1.945889832E0
4.270957560E0,3.578720391E-1,6.076650620E-1,-2.389947891E0,2.491822656E0
4.280968914E0,-9.366827011E-1,6.278705597E-1,-2.375464916E0,2.629530279E0
4.290970216E0,-1.025443792E0,6.482191086E-1,-2.353113174E0,2.647426032E0
4.300980893E0,-1.109469771E0,5.689544678E-1,-2.299406290E0,2.615702897E0
4.310971257E0,-1.178130865E0,-5.075807571E-1,-2.188197374E0,2.536501194E0
4.320992351E0,-1.175237417E0,-5.412120819E-1,-2.023319483E0,2.401648441E0
4.330968757E0,-1.139287472E0,-5.500392914E-1,-1.063526630E0,1.652757713E0
4.340966362E0,-1.055452824E0,-4.982280731E-1,-9.395647645E-1,1.498330345E0
4.350957351E0,-9.013367295E-1,-4.062232971E-1,-8.278671503E-1,1.289491871E0
4.360995789E0,-7.413187623E-1,6.213436127E-1,-7.465233207E-1,1.221850425E0
4.370968914E0,5.648764968E-1,6.467838287E-1,-6.964205503E-1,1.105629396E0
4.380970737E0,6.628057957E-1,6.723871231E-1,-6.740975380E-1,1.160096314E0
4.390972820E0,7.585288286E-1,6.962976456E-1,-7.021017075E-1,1.246251661E0
4.400970216E0,6.519627571E-1,2.077748299E0,-7.533684969E-1,2.304269412E0
4.410970997E0,7.817326784E-1,2.289482117E0,-8.913877010E-1,2.578256461E0
4.420969955E0,-6.216731668E-1,3.019873619E0,-9.444216490E-1,3.224600200E0
4.430970737E0,-6.819709539E-1,3.073633194E0,-9.843850136E-1,3.298684472E0
4.440972039E0,-7.677664161E-1,3.144322395E0,-9.882162809E-1,3.384198578E0
4.450969435E0,-1.361794710E0,3.213844299E0,-9.749270678E-1,3.624053366E0
4.460990789E0,-1.379853845E0,3.273523331E0,-9.437429905E-1,3.675677143E0
4.470969174E0,-1.399069548E0,3.339736938E0,-8.886829615E-1,3.728403924E0
4.480970216E0,-1.420336485E0,3.406072617E0,-8.322280645E-1,3.783026560E0
4.490969435E0,-1.385759115E0,3.462409973E0,-7.643092871E-1,3.806938381E0
4.500978028E0,-1.324181557E0,3.521265030E0,-6.897209883E-1,3.824719499E0
4.510994226E0,-1.228774309E0,3.548068047E0,-6.343535185E-1,3.808028040E0
4.520974955E0,-1.076477528E0,3.514656067E0,-6.208688021E-1,3.727879988E0
4.530969122E0,-3.565801382E-1,3.402162552E0,-6.389192343E-1,3.479953622E0
4.540967143E0,-1.781475544E-1,2.482440948E0,-6.691347361E-1,2.577206028E0
4.550968393E0,1.232027888E0,2.319973946E0,-7.077177763E-1,2.720484567E0
4.560994695E0,1.324746490E0,6.052980423E-1,-7.374984026E-1,1.632557158E0
4.570970476E0,1.414014816E0,6.309480667E-1,-7.736334801E-1,1.730907890E0
4.580973862E0,2.922944069E0,6.532497406E-1,-8.379324675E-1,3.110059175E0
4.590973080E0,3.928410053E0,5.950384140E-1,-9.092335701E-1,4.075927127E0
4.600970997E0,3.960079670E0,2.203395844E0,-9.445959330E-1,4.629194931E0
4.610970997E0,3.978718758E0,3.230093956E0,-1.018217444E0,5.224985807E0
4.620970737E0,3.980712891E0,4.089119911E0,-1.111346722E0,5.813954618E0
4.630975685E0,3.910815239E0,4.198348999E0,-1.179318905E0,5.857593638E0
4.640970476E0,3.803530693E0,4.257574081E0,-1.211404443E0,5.836204547E0
4.650970997E0,3.610866070E0,4.221695900E0,-1.182292461E0,5.679690617E0
4.660991049E0,2.781830311E0,4.066776276E0,-1.135890126E0,5.056431106E0
4.670970737E0,2.527418137E0,2.826277733E0,-1.073599696E0,3.940596981E0
4.680967872E0,6.762437820E-1,1.892787933E0,-9.477915764E-1,2.222219765E0
4.690983549E0,6.315271258E-1,4.518775940E-1,-4.165291786E-2,7.776598461E-1
4.700970060E0,5.910413265E-1,4.664039612E-1,6.813108921E-2,7.559790672E-1
4.710978080E0,5.546630025E-1,4.818229675E-1,1.748764515E-1,7.552391619E-1
4.720971257E0,-1.028000355E0,4.979667664E-1,1.307542205E0,1.736209160E0
4.730975164E0,-1.110810280E0,4.159832001E-1,1.152672052E0,1.653963228E0
4.740973601E0,-1.167020559E0,4.345121384E-1,1.198491216E0,1.728328377E0
4.750969695E0,-1.108466506E0,4.519138336E-1,1.219449162E0,1.708795005E0
4.761025164E0,-9.912390709E-1,4.695005417E-1,1.241566658E0,1.656645231E0
4.770981414E0,3.416215777E-1,4.034090042E-1,1.073151112E0,1.196284847E0
4.780979330E0,3.967548609E-1,-7.627792358E-1,1.065864921E0,1.369421269E0
4.790980112E0,4.511699975E-1,-8.377189636E-1,-3.468583822E-1,1.012737955E0
4.800984018E0,5.046356320E-1,-9.569845200E-1,-4.594134092E-1,1.175388095E0
4.810985580E0,5.547866225E-1,-1.775244713E0,-5.646560192E-1,1.943738256E0
4.820978028E0,4.043700099E-1,-1.868379116E0,-6.669520140E-1,2.024643330E0
4.830982716E0,4.542358816E-1,-2.491484642E0,-7.420786023E-1,2.639035166E0
4.840976726E0,5.015088916E-1,-2.585691929E0,-8.022912145E-1,2.753358878E0
4.850980112E0,5.460594296E-1,-3.320868492E0,-8.421592712E-1,3.469233443E0
4.861028185E0,5.884620547E-1,-3.426750183E0,-8.171508312E-1,3.571643864E0
4.870988757E0,4.304064512E-1,-4.265237808E0,-7.687014341E-1,4.355273260E0
4.880992091E0,4.711977541E-1,-4.389950275E0,-6.916591525E-1,4.469013664E0
4.890968445E0,5.104321837E-1,-5.373188972E0,-5.812531114E-1,5.428586918E0
4.900970528E0,5.486161709E-1,-5.510434151E0,8.851575255E-1,5.607973616E0
4.910969695E0,1.685373425E0,-6.566821575E0,9.320955873E-1,6.843422489E0
4.920981674E0,1.686437845E0,-6.690082550E0,7.827897668E-1,6.943632835E0
4.930981674E0,1.655795813E0,-7.473649502E0,2.663809538E0,8.105120474E0
4.940981153E0,1.543825626E0,-7.467121601E0,3.633581877E0,8.446550765E0
4.950980112E0,-5.640522242E-1,-5.406785965E0,4.373979092E0,6.977333479E0
4.960975424E0,-1.973667383E0,-2.589478493E0,4.418877602E0,5.488828751E0
4.970987403E0,-3.618214369E0,5.710859299E-1,5.560530663E0,6.658612138E0
4.980978810E0,-5.162363529E0,4.980370522E0,6.612319946E0,9.755862997E0
4.990971778E0,-6.223632812E0,7.722450256E0,7.445201874E0,1.240164805E1
5.000970476E0,-6.378318787E0,9.469184875E0,7.346872330E0,1.357663234E1
5.010971518E0,-7.025915146E0,1.038752842E1,7.183500290E0,1.445222843E1
5.020969695E0,-6.915456295E0,1.037582779E1,6.979940414E0,1.428988825E1
5.030970216E0,-6.648444653E0,9.262752533E0,6.717053890E0,1.323326164E1
5.041091622E0,-5.156644344E0,6.845581055E0,6.269126415E0,1.061861134E1
5.050975893E0,-3.774229527E0,3.768619537E0,3.886665821E0,6.599505507E0
5.060981570E0,-2.349994659E0,5.281095505E-1,1.125193715E0,2.658464875E0
5.070973080E0,-1.229507565E0,6.101102829E-1,-1.599235296E0,2.107481185E0
5.080968445E0,-2.535024881E-1,6.932039261E-1,-4.743290901E0,4.800375378E0
5.090974903E0,1.800185204E0,7.757596970E-1,-6.493495464E0,6.782916277E0
5.100969435E0,1.951699853E0,8.566446304E-1,-6.814266205E0,7.139831668E0
5.110970737E0,3.982082844E0,2.706448555E0,-7.016469955E0,8.509565100E0
5.120971257E0,5.325388432E0,3.500342369E0,-6.974170685E0,9.447286139E0
5.130972560E0,6.310711861E0,3.561306953E0,-5.800272942E0,9.281764789E0
5.140971518E0,6.337951660E0,3.345910072E0,-4.751291752E0,8.598809148E0
5.150968653E0,6.324259758E0,1.946996689E0,-3.854974747E0,7.658190902E0
5.160969487E0,6.113569736E0,6.522922516E-1,-3.673957586E0,7.162344899E0
5.170969174E0,4.977479458E0,-4.293184280E-1,-3.680843353E0,6.205499485E0
5.180969955E0,3.640358210E0,-1.268432617E0,-4.963574886E0,6.284759729E0
5.190969695E0,2.659757137E0,-1.405488491E0,-5.777136326E0,6.513448400E0
5.200969435E0,2.382602930E0,-1.498932362E0,-6.299992561E0,6.900253707E0
5.210969695E0,7.551310062E-1,-1.519497871E0,-6.253384590E0,6.479499630E0
5.221092820E0,6.551801562E-1,-1.442047119E0,-6.179108143E0,6.378882220E0
5.230979382E0,5.602766871E-1,-6.803426743E-1,-6.047876358E0,6.111757895E0
5.240986726E0,4.689669609E-1,-5.628557205E-1,-5.836375237E0,5.882177528E0
5.250969122E0,2.227745503E-1,3.917446136E-1,-4.833423138E0,4.854386838E0
5.260970268E0,2.081463933E-1,4.057416916E-1,-3.791299582E0,3.818625899E0
5.270965320E0,-8.105595112E-1,4.217472076E-1,-2.702625275E0,2.852903925E0
5.280972820E0,-8.753052354E-1,4.403648376E-1,-1.730536461E0,1.988677170E0
5.290970476E0,-8.841242194E-1,4.603166580E-1,-1.487453938E0,1.790554740E0
5.300970737E0,-8.150505424E-1,3.816471100E-1,-1.286998630E0,1.570454512E0
5.310970476E0,2.330329567E-1,-5.750846863E-1,-1.110389590E0,1.272003065E0
5.320975424E0,2.808732092E-1,-6.392412186E-1,-1.081581354E0,1.287376138E0
5.330972039E0,1.343377948E0,-7.105321884E-1,-1.129888773E0,1.893718284E0
5.340968862E0,1.417897463E0,-7.969999313E-1,-1.208088040E0,2.026109281E0
5.350970737E0,1.488270283E0,-1.479377747E0,-1.910684586E0,2.837996219E0
5.360972560E0,1.525757909E0,-1.520804882E0,-1.923753023E0,2.888184617E0
5.370969955E0,1.533005714E0,-1.571022987E0,-1.917948484E0,2.914917861E0
5.380971778E0,1.522711515E0,-1.589541435E0,-1.891801834E0,2.902448365E0
5.390976205E0,1.474751353E0,-1.566867828E0,-1.860800028E0,2.844739547E0
5.400968028E0,1.421817660E0,-1.477850437E0,-1.850117683E0,2.761981683E0
5.410975945E0,1.364345074E0,-8.066797256E-1,-1.836064577E0,2.425552059E0
5.420988497E0,1.325017571E0,-6.788167953E-1,-1.798800707E0,2.334983467E0
5.430979903E0,1.301614523E0,5.171422958E-1,-1.759568095E0,2.248936727E0
5.440971778E0,1.262850165E0,4.400186539E-1,-1.709657669E0,2.170561287E0
5.450969695E0,1.206093073E0,4.631280899E-1,-1.655877829E0,2.100257011E0
5.460970737E0,1.124050975E0,4.864444733E-1,-1.598821163E0,2.014037718E0
5.470970476E0,1.000530005E0,1.971318245E0,-1.529430151E0,2.688180146E0
5.480967872E0,-1.425985992E-2,2.115918159E0,-1.461046815E0,2.571375273E0
5.490972299E0,-1.592032015E-1,3.333090782E0,-1.428948641E0,3.629977140E0
5.500969695E0,-1.424679458E-1,4.200691223E0,-1.425210118E0,4.438167161E0
5.510974122E0,-2.115932703E0,4.290456772E0,-1.407985926E0,4.986743916E0
5.520970476E0,-2.254012108E0,4.381473541E0,-1.364252090E0,5.112637748E0
5.530970737E0,-3.153407097E0,4.454812050E0,-1.304879308E0,5.611776610E0
5.540972299E0,-3.219112873E0,4.496540070E0,-1.263007164E0,5.672455146E0
5.550969695E0,-3.812228441E0,4.467962265E0,-1.236111641E0,6.001978380E0
5.560968132E0,-3.810496807E0,4.348049164E0,-1.237095356E0,5.912344913E0
5.570969955E0,-3.760179996E0,3.376441002E0,-1.242857456E0,5.204229251E0
5.581097455E0,-3.597592831E0,2.567087173E0,-1.223358631E0,4.585762431E0
5.590984278E0,-3.384969711E0,1.711424828E0,-1.196032286E0,3.977120581E0
5.600980528E0,-2.486651421E0,4.076919556E-1,-1.186326623E0,2.785142523E0
5.610968445E0,-2.252275467E0,4.312076569E-1,-1.168023586E0,2.573511982E0
5.620967924E0,-1.231212020E0,-8.612127304E-1,-1.127400994E0,1.878457720E0
5.630968914E0,-9.754099250E-1,-1.008710861E0,-1.052397132E0,1.753984563E0
5.640978810E0,6.881550550E-1,-1.621329308E0,-9.329568148E-1,1.993156923E0
5.650973601E0,8.126490712E-1,-1.505908966E0,-2.173749208E-1,1.724938313E0
5.660973862E0,9.313948750E-1,4.803524017E-1,-1.816443205E-1,1.063592733E0
5.670971257E0,2.337884188E0,3.000679970E0,-2.503696680E-1,3.812147390E0
5.680969695E0,2.461594105E0,4.738202095E0,-3.173887730E-1,5.348900846E0
5.690975424E0,3.082400322E0,6.163810730E0,-3.865151405E-1,6.902401641E0
5.700969435E0,3.150714397E0,7.060808182E0,-4.364496469E-1,7.744191481E0
5.710972820E0,3.245706797E0,7.106645584E0,-4.410005808E-1,7.825184060E0
5.720974903E0,3.295294762E0,7.046258926E0,-4.109830856E-1,7.789585324E0
5.730973080E0,3.228545666E0,6.337436676E0,-3.554577827E-1,7.121303320E0
5.740977507E0,3.076502085E0,5.297691345E0,-2.568001747E-1,6.131585847E0
5.750970476E0,2.327511311E0,4.023106575E0,1.303257346E0,4.827129077E0
5.761071205E0,6.372787356E-1,2.791198730E0,1.308593512E0,3.147909071E0
5.770967299E0,4.032990932E-1,1.837380409E0,1.116914392E0,2.187719060E0
5.781136205E0,3.740639985E-1,1.679469109E0,1.127129555E0,2.056930090E0
5.790980685E0,-9.482225776E-1,2.687616348E-1,1.139052510E0,1.506253463E0
5.800971778E0,-1.102901816E0,2.832202911E-1,1.152438760E0,1.620099147E0
5.810974382E0,-1.207319856E0,2.979898453E-1,-3.773148060E-1,1.299532856E0
5.820971778E0,-1.225485444E0,2.144899368E-1,-4.955674410E-1,1.339181689E0
5.830973341E0,-1.106742382E0,2.328214645E-1,-1.267362714E0,1.698614960E0
5.840976987E0,2.295825928E-1,2.517795563E-1,-1.361813903E0,1.403794222E0
5.850975424E0,3.190026879E-1,2.913427353E-1,-2.190273762E0,2.232474514E0
5.860969695E0,1.683893949E-1,2.110900879E-1,-2.253500938E0,2.269621222E0
5.870971778E0,1.632363081E0,-8.519840240E-1,-2.313609123E0,2.956902633E0
5.880969955E0,1.710145116E0,-2.020871162E0,-2.348439217E0,3.538881649E0
5.890977768E0,1.792257428E0,-2.802916527E0,-2.305541754E0,4.047721646E0
5.900973341E0,1.877147198E0,-3.637879372E0,-2.208698034E0,4.651472340E0
5.910969695E0,1.933706284E0,-4.517802715E0,-2.046138287E0,5.323198592E0
5.920968132E0,1.980965734E0,-5.475049019E0,-1.054652929E0,5.917151325E0
5.930969695E0,1.963445306E0,-6.491727829E0,-8.722969294E-1,6.838022346E0
5.941052351E0,1.899950266E0,-7.496208191E0,1.979917288E-1,7.735770742E0
5.950965632E0,1.790587902E0,-9.327030182E0,1.461489558E0,9.609144019E0
5.961050216E0,1.622833610E0,-9.455041885E0,1.356320381E0,9.688705329E0
5.970974435E0,-4.036748037E-2,-9.381857872E0,2.678490162E0,9.756802561E0
5.980974695E0,-5.423403904E-2,-9.312525749E0,3.602845192E0,9.985317753E0
5.990983757E0,-7.053317875E-2,-9.242581367E0,4.509915352E0,1.028443590E1
6.000980632E0,-1.858742595E0,-9.176979065E0,5.554721832E0,1.088700158E1
6.010981935E0,-2.951877832E0,-8.195266724E0,6.709593773E0,1.099520932E1
6.020981414E0,-4.231310368E0,-5.528233051E0,7.689182281E0,1.037250559E1
6.030980893E0,-6.835115910E0,2.060433388E0,8.441408157E0,1.105538633E1
6.040980112E0,-7.517208576E0,5.539615631E0,8.350354195E0,1.252693823E1
6.050977768E0,-7.547233105E0,8.058618546E0,8.167552948E0,1.373357133E1
6.060980893E0,-7.433724403E0,9.527676582E0,7.893049717E0,1.443388767E1
6.070976466E0,-7.186137676E0,9.601963043E0,7.445395470E0,1.411637994E1
6.080977768E0,-5.940625191E0,9.460929871E0,5.729586601E0,1.255501431E1
6.090977507E0,-4.350926876E0,7.914847374E0,4.196976185E0,9.959416787E0
6.100980893E0,-2.551425695E0,6.266457558E0,2.528168201E0,7.222873241E0
6.110979591E0,-9.198634624E-1,4.624016762E0,4.434803724E-1,4.735436056E0
6.121000476E0,1.076559186E0,3.496685982E0,-1.366739750E0,3.905607517E0
6.130980528E0,1.266228557E0,3.526460648E0,-4.735451221E0,6.038522810E0
6.140981466E0,3.833412170E0,3.711314201E0,-6.039451599E0,8.058776432E0
6.150977299E0,5.836183071E0,4.604463577E0,-6.295849323E0,9.741654704E0
6.160981153E0,6.970575333E0,4.713145256E0,-6.471237183E0,1.061506332E1
6.170976205E0,7.013622284E0,4.706963539E0,-7.269214630E0,1.114396180E1
6.180981674E0,6.965112209E0,3.926473618E0,-7.272034168E0,1.080798150E1
6.190982195E0,6.799215317E0,2.534724236E0,-7.111199856E0,1.015988776E1
6.200978028E0,6.487921715E0,4.300193787E-1,-5.795676231E0,8.710218586E0
6.210980112E0,3.388815165E0,-2.220887184E0,-5.606858730E0,6.917606011E0
6.220980632E0,6.211818457E-1,-2.941582680E0,-6.715143681E0,7.357440465E0
6.230970476E0,4.922868609E-1,-2.953691483E0,-7.367499352E0,7.952778535E0
6.240973601E0,-1.191724062E0,-2.205098152E0,-7.308345795E0,7.726226916E0
6.250970737E0,-1.423444033E0,-1.167203903E0,-7.778337955E0,7.993190803E0
6.260969955E0,-1.614618778E0,3.214502335E-1,-7.528656960E0,7.706555629E0
6.270962299E0,-1.742895842E0,3.345460892E-1,-6.489860535E0,6.728142148E0
6.280969695E0,-1.760934949E0,1.562320709E0,-5.098729610E0,5.615939951E0
6.290969695E0,-1.617202759E0,1.673507690E0,-3.317793131E0,4.052619401E0
6.300975372E0,-2.477705479E-1,1.728964806E0,-1.662896276E0,2.411624674E0
6.310976049E0,-1.901551932E-1,1.681602478E0,4.082312584E-1,1.740861468E0
6.320971257E0,1.423969150E0,1.520121574E0,5.925810337E-1,2.165550743E0
6.330966882E0,2.243202448E0,3.544378281E-1,7.712026834E-1,2.398403005E0
6.340973601E0,2.950969934E0,2.843093872E-1,7.449894547E-1,3.056806286E0
6.350970997E0,3.105655193E0,3.100700378E-1,8.574783802E-1,3.236743237E0
6.360975945E0,3.999094009E0,-1.296655655E0,9.148980975E-1,4.302453639E0
6.370970737E0,3.978440762E0,-1.319573402E0,-1.003426075E0,4.310003335E0
6.380975945E0,3.706439734E0,-1.247990608E0,-1.863768339E0,4.332298291E0
6.390969174E0,2.317504644E0,-1.199778557E0,-2.549917221E0,3.648612640E0
6.400979591E0,1.355041981E0,-1.185308456E0,-2.534454346E0,3.108786538E0
6.410972820E0,-5.003591776E-1,-1.185648918E0,-2.503569603E0,2.814957090E0
6.420969695E0,-5.427429080E-1,-1.197746277E0,-2.480350971E0,2.807366550E0
6.430969435E0,-1.808022738E0,-1.216036797E0,-2.470619202E0,3.294184413E0
6.440972039E0,-2.022867680E0,-1.246400833E0,-2.427141905E0,3.396546262E0
6.450970476E0,-2.837501287E0,-1.269680977E0,-2.333913803E0,3.887242851E0
6.460968653E0,-2.929090500E0,-1.260848045E0,-2.152072906E0,3.847171265E0
6.470985580E0,-2.952816486E0,-1.189673424E0,-1.264838815E0,3.425531387E0
6.480970060E0,-2.882726431E0,4.321928024E-1,-1.051053405E0,3.098647375E0
6.490959435E0,-2.756561518E0,4.593877792E-1,-6.559765339E-2,2.795348205E0
6.500984226E0,-2.550542831E0,4.835243225E-1,9.331274033E-2,2.597647353E0
6.510967664E0,-6.136307716E-1,2.275683403E0,2.583218813E-1,2.371077365E0
6.520973080E0,-4.959442019E-1,3.116441727E0,4.010314941E-1,3.181036929E0
6.530974695E0,-5.806409121E-1,3.274180412E0,4.968013763E-1,3.362173828E0
6.540972820E0,-1.448066354E0,4.278960228E0,5.603733063E-1,4.551968260E0
6.550974382E0,-2.131598473E0,4.355160713E0,5.745580196E-1,4.882750639E0
6.560969695E0,-3.827900887E0,4.464947701E0,5.868747234E-1,5.910414969E0
6.570969435E0,-4.629445076E0,4.450626373E0,5.389454365E-1,6.444400594E0
6.580969695E0,-5.254965305E0,4.377879143E0,4.162020683E-1,6.852277746E0
6.590973080E0,-5.271240234E0,4.258130074E0,2.370655537E-1,6.780401567E0
6.600969695E0,-5.244153976E0,3.494012833E0,-6.347168684E-1,6.333414727E0
6.610970997E0,-5.135621548E0,3.338435173E0,-7.710952759E-1,6.173681722E0
6.620969435E0,-4.853999138E0,2.212433815E0,-9.381970167E-1,5.416307290E0
6.630969955E0,-3.059791565E0,1.487874985E0,-1.763478279E0,3.832225467E0
6.640969955E0,-1.407661438E0,1.326663017E0,-1.835806131E0,2.666782638E0
6.651002507E0,7.826092839E-1,3.339376450E-1,-1.882097244E0,2.065497925E0
6.660967872E0,1.950776815E0,3.568506241E-1,-1.843472481E0,2.707630577E0
6.670957768E0,3.450424671E0,1.399249077E0,-1.711499929E0,4.097872667E0
6.680987976E0,4.689414978E0,2.288224220E0,-8.345285654E-1,5.284223769E0
6.690968705E0,5.636979580E0,3.399267197E0,-7.755067348E-1,6.628119413E0
6.700970997E0,5.778002739E0,4.477292061E0,-6.909891367E-1,7.342269801E0
6.710974643E0,5.805736065E0,5.375954628E0,-5.791798830E-1,7.933656708E0
6.720967872E0,5.708569527E0,5.509654045E0,1.744313240E-1,7.935646163E0
6.730969955E0,5.442817688E0,6.151981354E0,2.616364956E-1,8.218247539E0
6.740975164E0,3.660227776E0,5.343845367E0,1.321376562E0,6.610596546E0
6.750969174E0,2.762723446E0,4.389037132E0,1.358607888E0,5.361166215E0
6.760969955E0,1.823699117E0,3.356907845E0,1.193484664E0,4.002388585E0
6.770974643E0,2.679957747E-1,2.383314133E0,1.205372930E0,2.684200419E0
6.780969695E0,1.991691142E-1,1.618502617E0,1.217389226E0,2.035007515E0
6.790968132E0,1.365711093E-1,1.478062630E0,1.201961517E0,1.909982276E0
6.800969435E0,7.975910604E-2,1.966686249E-1,1.189041138E0,1.207832310E0
6.810969955E0,-1.478823870E-1,1.112298965E-1,9.785656333E-1,9.959076207E-1
6.820968653E0,-1.484292001E-1,1.263952255E-1,9.705489278E-1,9.899354533E-1
6.830971153E0,-1.144353747E0,1.421813965E-1,9.687376618E-1,1.506058998E0
6.840991362E0,-1.106849432E0,1.580896378E-1,9.715895057E-1,1.481247503E0
6.850974695E0,1.073451340E-2,1.747074127E-1,9.802509546E-1,9.957559158E-1
6.860958549E0,-1.248118579E-1,9.182453156E-2,-5.191900134E-1,5.418191714E-1
6.870967143E0,-6.236522645E-2,-1.295351982E0,-6.354030967E-1,1.444147941E0
6.880969435E0,-1.607811078E-3,-1.999876976E0,-1.446131706E0,2.467956121E0
6.890973080E0,5.764832348E-2,-2.721536636E0,-1.585297823E0,3.150119709E0
6.900979591E0,1.141773015E-1,-3.470404625E0,-2.329023600E0,4.181040019E0
6.910973341E0,1.185009837E0,-4.212210178E0,-2.388552666E0,4.985192748E0
6.920969174E0,2.067081213E0,-5.368226051E0,-2.390886784E0,6.229527694E0
6.930972039E0,2.160691977E0,-5.461300373E0,-2.338180304E0,6.321509212E0
6.940974382E0,2.264799118E0,-6.222619534E0,-2.217052937E0,6.983239408E0
6.950970216E0,2.348560572E0,-6.316452503E0,-2.030510902E0,7.038201724E0
6.960969695E0,2.369176388E0,-7.064485550E0,-8.992705345E-1,7.505240858E0
6.970972560E0,2.358048677E0,-7.134520054E0,-1.483849287E-1,7.515569709E0
6.980969955E0,2.276443243E0,-7.215560913E0,1.268925428E0,7.671811056E0
6.990971257E0,2.147584677E0,-7.806160450E0,1.393259287E0,8.215195211E0
7.000969955E0,1.967937350E0,-7.746757507E0,3.284994364E0,8.641540214E0
7.010967247E0,1.177516937E0,-6.760243416E0,4.225010395E0,8.058421062E0
7.020989851E0,9.512636065E-1,-4.494275093E0,4.394193649E0,6.357070779E0
7.030976987E0,-4.288201928E-1,-9.484186172E-1,5.513699532E0,5.611084312E0
7.040975945E0,-2.162348509E0,3.342521667E0,6.638544559E0,7.740702555E0
7.050975685E0,-3.367204189E0,6.751392365E0,7.822671413E0,1.086800584E1
7.060970476E0,-4.162240028E0,8.922431946E0,8.567411423E0,1.305122877E1
7.070974695E0,-4.349256039E0,1.018216801E1,8.467323303E0,1.393872797E1
7.080971778E0,-5.032162189E0,1.027933407E1,8.263628960E0,1.411647721E1
7.090972039E0,-5.062308311E0,1.016610813E1,7.919872761E0,1.384561680E1
7.100970997E0,-4.107233524E0,5.511759758E0,6.712533474E0,9.607651560E0
7.110969695E0,-2.687756538E0,2.638202667E0,4.607422829E0,5.950839743E0
7.120973080E0,-1.586488008E0,2.149543762E-1,1.780958652E0,2.394778342E0
7.130971518E0,-1.268169641E0,2.440032959E-1,-4.992262721E-1,1.384564451E0
7.140972299E0,-8.524797857E-3,1.349883080E0,-4.612489700E0,4.805966941E0
7.150970737E0,1.594952047E-1,2.997198105E0,-6.865224361E0,7.492659123E0
7.160966205E0,1.688753486E0,3.916753769E0,-8.203470230E0,9.246067934E0
7.170998601E0,1.906461954E0,4.056361198E0,-8.453039169E0,9.567786293E0
7.180969695E0,2.571897984E0,4.073481560E0,-8.483318329E0,9.755747082E0
7.191089643E0,2.654958248E0,3.285979271E0,-7.594576359E0,8.690457591E0
7.200970216E0,2.739742994E0,1.754928589E0,-6.388811588E0,7.169580151E0
7.211153653E0,2.806716204E0,2.300271988E-1,-4.880191326E0,5.634433045E0
7.220965528E0,2.780741692E0,-1.623826981E0,-3.507916689E0,4.761808261E0
7.230977039E0,2.690136194E0,-3.137930870E0,-3.244660854E0,5.254642419E0
7.240980372E0,2.520442009E0,-3.933517456E0,-3.148324490E0,5.633572099E0
7.250978289E0,2.359169006E0,-3.910148621E0,-4.071048260E0,6.117873370E0
7.260981414E0,2.245826483E0,-2.986309052E0,-5.071845531E0,6.299634548E0
7.270985320E0,2.173156023E0,-1.637847900E0,-5.813738346E0,6.419089219E0
7.280984278E0,2.072942734E0,1.381446838E0,-5.672783852E0,6.195640691E0
7.290980112E0,1.955049396E0,2.367083549E0,-4.647267818E0,5.569775655E0
7.300983757E0,1.806777835E0,2.520660400E0,-3.382957458E0,4.589398236E0
7.310985580E0,1.646822572E0,3.206441879E0,-2.178166389E0,4.211615240E0
7.320981414E0,9.718327522E-1,3.152623177E0,-1.266943455E0,3.533926642E0
7.330984799E0,8.892019987E-1,2.430303574E0,-1.058711171E0,2.796055257E0
7.340979851E0,7.957161665E-1,1.528480530E0,-9.150062203E-1,1.951064666E0
7.350979070E0,7.408508062E-1,2.168188095E-1,-8.745806217E-1,1.166516857E0
7.360979851E0,7.594621778E-1,2.480287552E-1,-1.520507574E0,1.717627534E0
7.371092091E0,8.287175894E-1,2.758178711E-1,-2.304397583E0,2.464365347E0
7.380967143E0,1.576434970E0,-1.508655548E0,-3.018624783E0,3.724685806E0
7.390992664E0,1.612200975E0,-1.538886070E0,-3.085184813E0,3.806012040E0
7.400970268E0,1.620792031E0,-1.558761120E0,-3.079249382E0,3.812935850E0
7.410967872E0,1.566651464E0,-1.584323883E0,-3.000604153E0,3.737392708E0
7.420981414E0,1.443371534E0,-1.618429661E0,-2.866763115E0,3.594574622E0
7.430980372E0,6.254408956E-1,-1.657481194E0,-2.700276852E0,3.229537939E0
7.440980632E0,4.556022286E-1,-1.676925659E0,-1.743660808E0,2.461707958E0
7.450980632E0,-7.073097229E-1,-1.669890881E0,-1.545847178E0,2.382953229E0
7.460984539E0,-6.426255703E-1,-1.524139404E0,-5.842809677E-1,1.754238523E0
7.470992612E0,-8.173393607E-1,-8.802242279E-1,-4.582254887E-1,1.285616164E0
7.480968393E0,-7.916084528E-1,-7.708759308E-1,-3.507162333E-1,1.159265077E0
7.490971518E0,-1.836926341E0,4.156255722E-1,-2.446212769E-1,1.899179446E0
7.500974903E0,-1.923877239E0,4.490356445E-1,-1.097531319E-1,1.978631444E0
7.510976466E0,-1.961042881E0,4.728975296E-1,1.015925407E-2,2.017281454E0
7.520968393E0,-2.013079882E0,3.963651657E-1,1.302825212E-1,2.055862225E0
7.530970216E0,-2.712865353E0,2.115387917E0,7.656710148E-1,3.524309374E0
7.540971257E0,-2.743962765E0,2.238176346E0,8.204450607E-1,3.634817067E0
7.551012091E0,-2.800809860E0,3.037446022E0,8.749805689E-1,4.223293171E0
7.560974122E0,-3.380736351E0,3.109920502E0,9.396284819E-1,4.688697632E0
7.570998132E0,-3.347574234E0,3.206014633E0,9.981404543E-1,4.741420404E0
7.580971830E0,-3.323053360E0,3.849527359E0,1.036141396E0,5.189906889E0
7.590967403E0,-3.316447973E0,3.841216087E0,1.019462347E0,5.176202437E0
7.600972299E0,-3.279999018E0,3.807319641E0,9.747622013E-1,5.119007497E0
7.610978289E0,-3.225700140E0,3.716812134E0,8.716951609E-1,4.997968216E0
7.620974382E0,-3.136647463E0,3.583148003E0,7.084771395E-1,4.814503793E0
7.630974903E0,-2.960590839E0,2.656457901E0,-6.666553020E-2,3.978229630E0
7.640973341E0,-2.012750149E0,1.633190155E0,-1.884038448E-1,2.598839982E0
7.650970737E0,-1.739160061E0,1.486792564E0,-2.652313709E-1,2.303383930E0
7.660976466E0,4.907117486E-1,2.449321747E-1,-3.346976042E-1,6.425046900E-1
7.670993132E0,6.283481717E-1,2.646312714E-1,-3.538124561E-1,7.681369597E-1
7.680969174E0,1.786453605E0,2.853393555E-1,-3.037860394E-1,1.834426610E0
7.690969435E0,2.845127344E0,1.840802193E0,-1.860113144E-1,3.393803549E0
7.700974643E0,3.778620720E0,3.270553589E0,-1.112155914E-1,4.998686250E0
7.710978549E0,4.614145756E0,4.921536446E0,-1.043734550E-1,6.747055347E0
7.720969955E0,5.404783249E0,6.360926628E0,-1.489782333E-1,8.348368945E0
7.730986518E0,6.132096291E0,7.344149590E0,-1.874507666E-1,9.569444911E0
7.740991830E0,6.156085968E0,7.436732292E0,-1.948317289E-1,9.656103823E0
7.750977768E0,6.081897736E0,7.439530373E0,-1.952711344E-1,9.611150974E0
7.760974174E0,5.882747173E0,7.295756340E0,-1.885571480E-1,9.373917467E0
7.770994695E0,5.002958298E0,5.843248367E0,-1.774480343E-1,7.694454563E0
7.780970216E0,3.937866688E0,4.283157349E0,-1.250320673E-1,5.819610291E0
7.790971778E0,2.637211561E0,2.754995346E0,-7.285714149E-3,3.813782539E0
7.800973601E0,1.126197219E0,1.695464134E0,1.847710729E0,2.748991405E0
7.810977768E0,-2.179643065E-1,1.549262047E0,1.673447847E0,2.290883896E0
7.820972560E0,-2.318039894E0,1.060638428E-1,1.738573194E0,2.899516380E0
7.830972039E0,-2.495954275E0,1.269149780E-1,1.763922572E0,3.058973356E0
7.840971518E0,-2.644137621E0,1.485891342E-1,1.789590716E0,3.196275555E0
7.850972560E0,-2.697154522E0,6.143188477E-2,1.569782257E0,3.121319068E0
7.860975424E0,-2.616865873E0,7.365417480E-2,1.556782126E0,3.045813935E0
7.870992612E0,-1.779564500E0,8.431911469E-2,1.544721484E0,2.357991515E0
7.880970476E0,-1.544708729E0,9.493255615E-2,1.691854000E-2,1.547715569E0
7.890971518E0,-2.358931452E-1,1.063537598E-1,-7.697099447E-1,8.120406992E-1
7.900983237E0,-3.334949613E-1,-1.396766663E0,-1.473621964E0,2.057604844E0
7.910991622E0,-2.329302728E-1,-2.247354507E0,-1.635183930E0,2.789029451E0
7.920959278E0,-1.336184442E-1,-3.180586338E0,-2.305774212E0,3.930722333E0
7.930961778E0,1.368794084E0,-4.114490509E0,-2.374108076E0,4.943583574E0
7.940969382E0,1.490175366E0,-4.988358498E0,-2.411146164E0,5.737418317E0
7.950967924E0,1.588728786E0,-5.805278301E0,-2.365061522E0,6.466748125E0
7.960975685E0,1.689993262E0,-5.948330402E0,-2.254399300E0,6.581871163E0
7.970994174E0,2.329952478E0,-6.972294807E0,-2.072275400E0,7.637794104E0
7.980970997E0,2.309738874E0,-7.049151421E0,-1.104427218E0,7.499679253E0
7.990971518E0,2.293631554E0,-7.731008530E0,4.752087593E-2,8.064210862E0
8.000971778E0,2.254603863E0,-7.739903927E0,1.604979753E0,8.219812126E0
8.010976987E0,2.233961821E0,-7.717431545E0,1.719977617E0,8.216304405E0
8.020971778E0,2.203660011E0,-7.652523518E0,1.835469723E0,8.172281367E0
8.030973341E0,2.168192387E0,-7.502712250E0,3.645933867E0,8.618850450E0
8.040978810E0,2.080377579E0,-6.111969948E0,4.481476307E0,7.859247890E0
8.050968132E0,1.935970545E0,-4.270821571E0,5.224250793E0,7.020021025E0
8.060974643E0,1.134542465E0,-1.629963875E0,5.956690311E0,6.279022878E0
8.070992351E0,-7.040522695E-1,1.491064072E0,6.906599522E0,7.100709726E0
8.080974643E0,-7.554554939E-1,4.593622208E0,7.943189621E0,9.206863708E0
8.090966570E0,-2.553325176E0,6.965047836E0,8.533472061E0,1.130714404E1
8.100957247E0,-3.574562311E0,8.363794327E0,8.421758652E0,1.239582874E1
8.110966205E0,-4.333046913E0,8.482482910E0,8.186664581E0,1.255982838E1
8.120966882E0,-4.484979630E0,8.465914726E0,7.855593681E0,1.238939492E1
8.130967143E0,-4.526404858E0,8.237293243E0,7.448606968E0,1.199262635E1
8.140969955E0,-4.344067574E0,6.418771744E0,6.321208477E0,1.000146141E1
8.150969174E0,-3.367107630E0,4.775568008E0,4.889616966E0,7.619174343E0
8.160979330E0,-2.191202164E0,3.281873703E0,2.676448107E0,4.768169082E0
8.170992091E0,-5.967580080E-1,3.115881920E0,-2.294230461E0,3.915141590E0
8.180969695E0,7.200702429E-1,3.287749290E0,-4.175900936E0,5.363389337E0
8.190972039E0,1.580151320E0,4.373836517E0,-5.516376019E0,7.215104188E0
8.200967872E0,1.796368241E0,4.404117584E0,-6.518549919E0,8.069366989E0
8.210976205E0,1.979298234E0,4.286299706E0,-6.731210709E0,8.221872309E0
8.220969174E0,2.699664593E0,2.980792999E0,-6.809282303E0,7.908200889E0
8.230969695E0,2.763205290E0,1.710602760E0,-6.676675797E0,7.425595260E0
8.240969435E0,2.749276400E0,4.483604431E-2,-5.815556526E0,6.432824318E0
8.250969174E0,2.650510550E0,-1.308780670E0,-4.858184338E0,5.686832868E0
8.261004070E0,2.477365971E0,-2.741694927E0,-4.598336220E0,5.899061723E0
8.271483966E0,1.573708057E0,-3.649861336E0,-4.449759960E0,5.966440189E0
8.280984591E0,1.442355394E0,-3.625290871E0,-4.403960228E0,5.883705352E0
8.290958132E0,1.328526497E0,-2.798657417E0,-5.373629093E0,6.202689386E0
8.300968966E0,1.192556381E0,-1.702200890E0,-5.286859989E0,5.680718893E0
8.310973601E0,1.050207734E0,9.933471680E-2,-5.101634979E0,5.209556904E0
8.320969695E0,3.946973681E-1,1.313257217E-1,-4.821774483E0,4.839684041E0
8.330970216E0,3.303080797E-1,6.676769257E-2,-3.791996956E0,3.806941327E0
8.340969435E0,2.984688282E-1,1.025209427E-1,-2.827269554E0,2.844828170E0
8.350971257E0,3.320447206E-1,1.585464478E-1,-1.872194052E0,1.908009759E0
8.360975685E0,3.610591888E-1,1.934223175E-1,-1.652103305E0,1.702122575E0
8.370993393E0,4.458432794E-1,-1.213385582E0,-1.518259883E0,1.994039586E0
8.380967351E0,1.247327805E0,-1.863679409E0,-1.480708241E0,2.687308037E0
8.390971778E0,1.327831268E0,-1.918466568E0,-1.491494536E0,2.769152542E0
8.400970216E0,1.415698767E0,-1.918548584E0,-2.123434067E0,3.192805021E0
8.410973601E0,1.461716056E0,-1.857866287E0,-2.101400375E0,3.162936058E0
8.420969435E0,1.446651697E0,-1.739282131E0,-2.046709061E0,3.050724741E0
8.430971518E0,1.339109659E0,-1.018475533E0,-1.953909755E0,2.578424019E0
8.441000685E0,4.249731302E-1,-9.589834213E-1,-1.820645452E0,2.101190430E0
8.450968237E0,-9.508188367E-1,-9.143409729E-1,-1.658608317E0,2.119211510E0
8.460985372E0,-9.489176869E-1,-8.975095749E-1,-9.958254099E-1,1.642448313E0
8.470982455E0,-1.145416260E0,-9.005336761E-1,-9.145414829E-1,1.720269000E0
8.480967143E0,-2.280952930E0,-8.960142136E-1,-8.381938934E-1,2.590010955E0
8.490979330E0,-2.375231743E0,-8.850231171E-1,-7.518279552E-1,2.643905638E0
8.500978289E0,-2.440765858E0,-8.732833862E-1,-6.421828270E-1,2.670647979E0
8.510979330E0,-2.414703369E0,-8.397655487E-1,-5.119137764E-1,2.607307855E0
8.520979330E0,-2.288378716E0,-7.662925720E-1,1.383540630E-1,2.417234639E0
8.530981935E0,-1.064158678E0,4.237051010E-1,3.248877525E-1,1.190593027E0
8.540979330E0,-9.774371982E-1,4.476699829E-1,4.443279505E-1,1.163279510E0
8.550978810E0,-8.924727440E-1,4.712467194E-1,5.304379463E-1,1.140151518E0
8.560979591E0,-1.008672476E0,2.521582603E0,5.763350725E-1,2.776321506E0
8.571022820E0,-9.265005589E-1,2.656649590E0,5.473986864E-1,2.866327903E0
8.580979591E0,-2.422020197E0,3.555827141E0,4.565862417E-1,4.326495058E0
8.590982455E0,-2.446136475E0,3.642694473E0,-1.926000118E-1,4.392027031E0
8.600979591E0,-3.111793280E0,3.722159386E0,-2.764348984E-1,4.859438667E0
8.610985580E0,-3.135189533E0,3.770747185E0,-3.356425762E-1,4.915343699E0
8.620973914E0,-3.716430187E0,3.782935143E0,-3.706774712E-1,5.315999757E0
8.630990945E0,-3.691346169E0,3.772487640E0,-3.551115990E-1,5.289972002E0
8.640978705E0,-3.651217937E0,3.711399078E0,-3.161129951E-1,5.215918229E0
8.650959799E0,-3.536878347E0,3.602384567E0,-2.357733250E-1,5.053936295E0
8.660980112E0,-3.357822657E0,2.890173912E0,4.882240295E-1,4.457178585E0
8.671014226E0,-3.112918615E0,2.766326904E0,5.055954456E-1,4.195051085E0
8.680982716E0,-2.054505825E0,1.951954842E0,5.088644028E-1,2.879247275E0
8.690978810E0,-1.798016071E0,1.820229530E0,4.998848438E-1,2.606910469E0
8.700979851E0,3.600870371E-1,2.671689987E-1,4.705395699E-1,6.499611026E-1
8.710977768E0,1.393442750E0,2.033987045E-1,4.662387371E-1,1.483385415E0
8.720970216E0,2.210034847E0,2.210836411E-1,4.433579445E-1,2.264883721E0
8.730968914E0,2.431993484E0,2.363431931E0,3.967738152E-1,3.414356786E0
8.740969695E0,3.562532425E0,3.702529907E0,3.413496017E-1,5.149454781E0
8.750967872E0,3.694929361E0,4.929439545E0,2.969144583E-1,6.167660448E0
8.760971257E0,4.687527657E0,5.865658760E0,2.760416269E-1,7.513658709E0
8.770990528E0,4.706369877E0,5.988778114E0,3.105952740E-1,7.623112891E0
8.780969174E0,4.661877155E0,6.666061401E0,3.738741875E-1,8.143049498E0
8.790968914E0,4.580677986E0,6.613745689E0,4.422717094E-1,8.057285344E0
8.800967976E0,4.405641556E0,5.911004066E0,1.869127274E0,7.605477195E0
8.810987039E0,4.160532475E0,4.851283073E0,1.875899911E0,6.660628980E0
8.820975216E0,2.994632483E0,3.473444939E0,1.883196473E0,4.957728553E0
8.830973653E0,2.149180651E0,2.350941658E0,1.891698956E0,3.704649658E0
8.840969695E0,1.159855723E0,1.631689072E0,1.900069952E0,2.760061657E0
8.850972820E0,-5.644267201E-1,1.533436775E0,1.707538605E0,2.363407276E0
8.860970476E0,-6.296253204E-1,1.435290337E0,1.669991493E0,2.290274652E0
8.870995476E0,-6.886833906E-1,1.335574150E0,1.636559963E0,2.221794688E0
8.880971257E0,-1.786517382E0,2.552223206E-2,1.605453134E0,2.402035700E0
8.890970997E0,-2.009815693E0,-3.923892975E-2,4.098259211E-1,2.051549682E0
8.900968914E0,-2.080802917E0,-2.516746521E-2,-2.865041494E-1,2.100585349E0
8.910974122E0,-2.055011749E0,-1.466560364E-2,-4.257059097E-1,2.098693377E0
8.920971257E0,-1.939303994E0,-3.601074219E-3,-1.256216407E0,2.310626021E0
8.930969174E0,-1.749947786E0,-1.614848137E0,-1.416346073E0,2.770575384E0
8.940969435E0,-7.202708721E-1,-2.442459583E0,-2.134928703E0,3.322998573E0
8.950969695E0,-6.181042194E-1,-3.306063652E0,-2.188746929E0,4.012819809E0
8.960967612E0,4.951035380E-1,-4.162413120E0,-2.185183048E0,4.727138188E0
8.970993132E0,6.701923609E-1,-5.032876968E0,-2.145094633E0,5.511845368E0
8.980966414E0,1.551383018E0,-5.831937790E0,-2.099837303E0,6.389648218E0
8.990985893E0,1.702333212E0,-6.492815971E0,-1.996825576E0,7.002992930E0
9.000971830E0,1.824896574E0,-6.607677460E0,-1.842785001E0,7.098415702E0
9.010962299E0,2.478817940E0,-7.453045368E0,-1.046083331E0,7.923806786E0
9.020969174E0,2.486084938E0,-7.529536247E0,-8.811143637E-1,7.978151223E0
9.030971518E0,2.469637871E0,-8.164327621E0,2.171015739E-2,8.529702694E0
9.040973341E0,2.425140619E0,-8.197638512E0,1.642265797E0,8.705149116E0
9.050973080E0,2.373572588E0,-8.215586662E0,1.750471950E0,8.728909616E0
9.060970997E0,2.246498585E0,-8.185503006E0,2.945430279E0,8.984696705E0
9.070992091E0,1.391961336E0,-6.233014107E0,4.851716995E0,8.020422621E0
9.080970216E0,4.633927345E-1,-3.312192440E0,5.035069942E0,6.044607590E0
9.090970997E0,-9.367700219E-1,2.925891876E-1,6.525622368E0,6.599007031E0
9.100975424E0,-2.631569147E0,4.841998100E0,7.852424145E0,9.593261527E0
9.110971778E0,-3.933387518E0,7.801598549E0,9.086673737E0,1.260571763E1
9.120970216E0,-4.853251457E0,9.416972160E0,9.855299950E0,1.446928994E1
9.130969955E0,-5.088613510E0,1.022220135E1,9.699420929E0,1.498219457E1
9.140970476E0,-6.089936256E0,1.021485519E1,9.446368217E0,1.518764178E1
9.150970216E0,-6.171085358E0,9.362940788E0,9.084619522E0,1.443181439E1
9.160967976E0,-6.078889847E0,6.970119476E0,8.051765442E0,1.226239756E1
9.171022143E0,-5.720151424E0,3.777234077E0,6.400065422E0,9.378084399E0
9.180970528E0,-3.869709492E0,1.023508072E0,4.127989769E0,5.750001727E0
9.190970007E0,-2.700537205E0,-2.595043182E-2,1.270110011E0,2.984418546E0
9.200970528E0,-1.821014524E0,3.697395325E-3,-1.980355978E0,2.690337779E0
9.210969955E0,-1.498668194E0,4.138278961E-2,-4.999973297E0,5.219909181E0
9.220968132E0,-2.904669940E-2,1.498844147E0,-7.146645069E0,7.302185511E0
9.230970476E0,1.336778760E0,2.567261696E0,-8.317677498E0,8.806904622E0
9.240970476E0,2.388722658E0,3.441810608E0,-8.514183044E0,9.489118458E0
9.250969955E0,3.293488503E0,3.545484543E0,-8.334121704E0,9.637173431E0
9.260970737E0,3.340295076E0,3.403147697E0,-7.196281910E0,8.632812912E0
9.270977143E0,3.292678118E0,2.275973320E0,-5.986069679E0,7.201028673E0
9.280970476E0,3.147536993E0,1.303019524E0,-4.608446598E0,5.730848894E0
9.290969955E0,2.233780622E0,-3.475570679E-2,-4.245898247E0,4.797774041E0
9.300984539E0,1.991371512E0,-2.764511108E-2,-4.008970261E0,4.476401155E0
9.310970216E0,-1.330133528E-2,-1.095467567E0,-3.911872864E0,4.062385435E0
9.320970476E0,-2.386376709E-1,-1.806116104E0,-4.595465183E0,4.943410116E0
9.330968393E0,-2.606541514E-1,-1.804778099E0,-4.553009987E0,4.904596264E0
9.340968966E0,-2.795110047E-1,-1.770377159E0,-4.473326683E0,4.819026178E0
9.350990476E0,7.117449045E-1,-1.707141876E0,-4.305774212E0,4.686214438E0
9.360970528E0,1.278915644E0,-1.628477097E0,-4.069837093E0,4.566304506E0
9.370988757E0,1.308091998E0,-1.541708946E0,-3.803770304E0,4.307741830E0
9.380979174E0,1.351812363E0,-1.432892799E0,-2.891859055E0,3.499060907E0
9.390970997E0,1.399993181E0,2.887916565E-2,-2.713067532E0,3.053121410E0
9.400969695E0,1.442508698E0,6.158828735E-2,-2.547997952E0,2.928637571E0
9.410970216E0,2.006745100E0,9.512901306E-2,-2.422595501E0,3.147228048E0
9.420971257E0,1.987978101E0,2.964973450E-2,-2.366466045E0,3.090808564E0
9.430969955E0,1.974699497E0,8.523082733E-2,-2.451044559E0,3.148701610E0
9.440970216E0,1.907008171E0,1.207189560E-1,-2.412055254E0,3.077216889E0
9.450970997E0,1.806941271E0,1.567268372E-1,-2.345264673E0,2.964770893E0
9.460972299E0,1.640636206E0,9.508132935E-2,-2.254278660E0,2.789713228E0
9.470993653E0,6.582106352E-1,1.337490082E-1,-2.142473221E0,2.245288743E0
9.480972299E0,4.412584305E-1,1.726245880E-1,-1.988358259E0,2.044034446E0
9.490971778E0,-9.777283072E-1,2.116432190E-1,-1.797564626E0,2.057178670E0
9.500976987E0,-9.853355289E-1,-8.707389832E-1,-9.859876633E-1,1.643546213E0
9.510970997E0,-1.190547943E0,-1.520925522E0,-8.800852299E-1,2.122538306E0
9.520968862E0,-2.189969540E0,-1.549712658E0,-7.865061760E-1,2.795741024E0
9.530987455E0,-2.335905075E0,-1.552779198E0,-6.937503815E-1,2.889440317E0
9.540988757E0,-2.942766190E0,-1.497913837E0,-5.717821121E-1,3.351201799E0
9.550977039E0,-2.932518482E0,-1.394975662E0,-4.119484425E-1,3.273426838E0
9.560971049E0,-2.861024380E0,-6.819419861E-1,2.434456348E-1,2.951232141E0
9.570991830E0,-2.777503014E0,3.047914505E-1,2.964529991E-1,2.809858573E0
9.580971518E0,-2.700274944E0,3.254032135E-1,3.444392681E-1,2.741534321E0
9.590970216E0,-2.573316813E0,3.421459198E-1,4.253866673E-1,2.630584928E0
9.600970216E0,-2.437935829E0,1.803553581E0,5.191445351E-1,3.076661775E0
9.610969955E0,-2.242134094E0,2.903310776E0,6.787914038E-1,3.730567856E0
9.620970216E0,-2.105128288E0,2.977148056E0,7.229743004E-1,3.717212329E0
9.630972560E0,-1.985995889E0,3.060176849E0,7.548892498E-1,3.725415386E0
9.640970737E0,-1.897504807E0,3.677421570E0,7.697862387E-1,4.209100230E0
9.650970737E0,-1.818296671E0,3.670236588E0,7.670152187E-1,4.167151514E0
9.660970216E0,-1.767565727E0,3.627593994E0,7.481348515E-1,4.104075114E0
9.670991310E0,-1.735829592E0,3.508514404E0,7.190034389E-1,3.979917542E0
9.680967872E0,-1.716365337E0,2.663865089E0,6.636962891E-1,3.237681261E0
9.690970216E0,-1.678721309E0,2.522577286E0,5.719547272E-1,3.083607239E0
9.701088601E0,-1.610783100E0,1.702812195E0,4.693934917E-1,2.390506602E0
9.710974591E0,-1.497109413E0,1.599211693E0,3.673373461E-1,2.221204934E0
9.720984435E0,-1.343780875E0,1.365537643E-1,2.707614899E-1,1.377572414E0
9.730975060E0,2.824650705E-1,1.510295868E-1,1.692780256E-1,3.622864917E-1
9.740976726E0,3.747329712E-1,1.660614014E-1,6.854438782E-2,4.155713198E-1
9.750980112E0,2.645044923E-1,8.212757111E-2,-6.997585297E-4,2.769621888E-1
9.760981153E0,1.887718439E0,9.886074066E-2,6.502628326E-3,1.890316544E0
9.771010060E0,2.629383326E0,1.618722916E0,7.202768326E-2,3.088544728E0
9.780978289E0,2.768984556E0,2.830011368E0,1.328197718E-1,3.961550316E0
9.790979851E0,3.852582693E0,5.456352234E0,9.353625774E-2,6.680039082E0
9.800984278E0,4.650949955E0,6.493174553E0,5.686402321E-2,7.987232611E0
9.810983237E0,4.653549194E0,6.614751816E0,4.486703873E-2,8.087797892E0
9.820978810E0,4.585441589E0,6.664671898E0,3.957116604E-2,8.089851170E0
9.830982195E0,4.453884602E0,6.587598801E0,7.351517677E-3,7.951955737E0
9.840978810E0,4.219611168E0,5.567939758E0,-2.052509785E-2,6.986235957E0
9.850981153E0,3.211245060E0,4.089535713E0,-1.047885418E-2,5.199664123E0
9.860979330E0,2.395675898E0,2.543611526E0,7.943105698E-2,3.495072517E0
9.871011362E0,1.412815690E0,1.123026848E0,1.890257478E0,2.613486332E0
9.880969174E0,-3.422629833E-1,-2.985000610E-4,1.901348948E0,1.931908865E0
9.890986414E0,-5.851101279E-1,-8.041763306E-2,1.713672996E0,1.812593720E0
9.900968237E0,-6.226562858E-1,-5.989360809E-2,1.727243066E0,1.837023871E0
9.910966935E0,-1.697493076E0,-3.884696960E-2,1.741981387E0,2.432589358E0
9.920970007E0,-1.867390156E0,-1.684093475E-2,1.761119008E0,2.566898863E0
9.930968185E0,-1.993473530E0,-3.696441650E-3,1.735279202E0,2.642942354E0
9.940982195E0,-2.044095516E0,-9.026145935E-2,1.519413829E0,2.548547036E0
9.950971257E0,-1.971197844E0,-7.953739166E-2,1.509885073E0,2.484290657E0
9.960971518E0,-1.830429673E0,-6.886959076E-2,1.500188231E0,2.367652960E0
9.971001466E0,-5.970197320E-1,-1.696150780E0,-8.273317814E-1,1.979352900E0
9.980970737E0,-7.241851091E-1,-1.828200340E0,-1.025268555E0,2.217642028E0
9.990972299E0,-6.522157192E-1,-2.783854485E0,-2.040813684E0,3.512855196E0
1.000097933E1,-5.808118582E-1,-2.933809280E0,-2.174994946E0,3.697997069E0
1.001097100E1,-5.100641251E-1,-3.993653297E0,-2.319209576E0,4.646306611E0
1.002096839E1,-4.399870634E-1,-4.125560760E0,-2.438966274E0,4.812732768E0
1.003097022E1,-5.707588792E-1,-4.987077713E0,-2.438541889E0,5.580608960E0
1.004097126E1,-5.046656728E-1,-5.067771912E0,-2.352334499E0,5.609855362E0
1.005097803E1,9.688951373E-1,-5.164538383E0,-2.203110695E0,5.697798806E0
1.006108480E1,1.041958332E0,-5.825796127E0,-1.340549946E0,6.068167091E0
1.007100240E1,1.136082411E0,-5.833729744E0,-1.115654469E0,6.047129142E0
1.008097990E1,1.233412862E0,-5.865382195E0,1.433973312E-1,5.995379752E0
1.009097391E1,1.308403730E0,-5.913162231E0,1.683678389E0,6.285871524E0
1.010097574E1,1.344013810E0,-5.959394932E0,1.807874322E0,6.370963086E0
1.011096970E1,1.256706953E0,-5.973913193E0,3.771123409E0,7.175536424E0
1.012097256E1,1.079159379E0,-5.902833939E0,5.056666374E0,7.847159250E0
1.013096970E1,-5.711969733E-1,-5.016802788E0,5.966651917E0,7.816361768E0
1.014097334E1,-5.753135085E-1,-3.281647682E0,6.041455269E0,6.899230313E0
1.015097568E1,-3.552645206E0,2.382430077E0,7.082400322E0,8.273914150E0
1.016096917E1,-4.437018871E0,5.049582481E0,8.175678253E0,1.058428716E1
1.017099834E1,-4.583328724E0,6.925508499E0,8.103410721E0,1.160322522E1
1.018097334E1,-4.702712059E0,8.053784370E0,7.926495552E0,1.223961908E1
1.019097152E1,-4.702126026E0,8.127710342E0,7.650633335E0,1.211205412E1
1.020097516E1,-4.608428001E0,8.045308113E0,7.280985832E0,1.178886534E1
1.021096970E1,-4.323557854E0,6.900817871E0,6.921500683E0,1.068745112E1
1.022097074E1,-2.741414309E0,5.202915192E0,6.466987610E0,8.741144527E0
1.023096891E1,-1.608777404E0,3.475340843E0,4.752766132E0,6.103682874E0
1.024109079E1,1.654593274E-2,2.502099037E0,2.655021191E0,3.648275056E0
1.025098923E1,1.892861426E-1,2.474827766E0,-7.428205609E-1,2.590826915E0
1.026098157E1,3.494104147E-1,2.590049744E0,-2.571179390E0,3.666252687E0
1.027097954E1,2.986738682E-1,3.542996407E0,-4.516314030E0,5.747966774E0
1.028096673E1,1.892753839E0,3.713191032E0,-5.802585602E0,7.144249744E0
1.029097412E1,2.000798702E0,4.366704941E0,-6.709863663E0,8.251883292E0
1.030097881E1,2.041822910E0,4.244801521E0,-6.930194855E0,8.379438017E0
1.031096996E1,2.118491411E0,2.813845634E0,-7.023612022E0,7.857280634E0
1.032097048E1,2.873340130E0,1.404306412E0,-6.818244457E0,7.531043585E0
1.033097126E1,2.853098154E0,-1.562438965E0,-5.765300274E0,6.619673092E0
1.034097048E1,2.723083973E0,-2.943218708E0,-4.934940815E0,6.358566154E0
1.035097620E1,2.563122749E0,-3.948976517E0,-4.784681320E0,6.712465202E0
1.036096865E1,2.404919147E0,-4.044993401E0,-4.695379257E0,6.647720969E0
1.037096917E1,2.236224174E0,-4.017388344E0,-5.201539040E0,6.942342259E0
1.038096891E1,2.076680183E0,-3.329207420E0,-5.056610584E0,6.400432269E0
1.039096891E1,1.364834070E0,-2.292583466E0,-4.889169693E0,5.569801727E0
1.040097308E1,1.245145917E0,-1.281391144E0,-4.657272339E0,4.988239896E0
1.041097048E1,1.113342404E0,-1.345968246E-1,-4.357449532E0,4.499445970E0
1.042109344E1,9.810478687E-1,-1.074399948E-1,-3.198043108E0,3.346860916E0
1.043097089E1,8.583886623E-1,-7.748031616E-2,-2.871667385E0,2.998217448E0
1.044098605E1,7.426466346E-1,-4.546642303E-2,-1.720781207E0,1.874747765E0
1.045096855E1,6.625879407E-1,-1.284217834E-2,-1.557687163E0,1.692801524E0
1.046096897E1,6.260151267E-1,-8.030414581E-2,-1.495693922E0,1.623405064E0
1.047096813E1,6.298971176E-1,-4.749298096E-2,-1.522624612E0,1.648457361E0
1.048097126E1,6.867440939E-1,-1.542854309E-2,-2.309634209E0,2.409619403E0
1.049096865E1,7.829689384E-1,-1.384714127E0,-2.257046938E0,2.761292171E0
1.050097594E1,1.543438911E0,-1.384160042E0,-2.173493147E0,3.003693585E0
1.051097178E1,1.549670219E0,-1.310652733E0,-2.098048925E0,2.919091925E0
1.052097230E1,1.495224237E0,-1.275792122E0,-2.009416103E0,2.810888496E0
1.053097074E1,1.386756897E0,-1.262700081E0,-1.880585909E0,2.655957369E0
1.054097048E1,6.046091318E-1,-1.268788338E0,-1.713636398E0,2.216286478E0
1.055097438E1,4.477977157E-1,-1.260395050E0,-9.821940660E-1,1.659464871E0
1.056096970E1,-8.125284314E-1,-1.245669365E0,-8.730319738E-1,1.724551955E0
1.057097100E1,-7.926384211E-1,-1.220547676E0,-7.998547554E-1,1.660656474E0
1.058096917E1,-7.721385360E-1,-1.186390877E0,-7.583701611E-1,1.605878742E0
1.059097048E1,-7.510054708E-1,-1.119936943E0,-7.154994011E-1,1.526501676E0
1.060096860E1,-9.289165139E-1,-1.011348724E0,-6.650521755E-1,1.525780629E0
1.061097470E1,-9.043746591E-1,1.819353104E-1,-6.233131886E-1,1.113334322E0
1.062097975E1,-8.743093610E-1,2.104988098E-1,-5.590465069E-1,1.058895464E0
1.063096975E1,-8.001714349E-1,2.348642349E-1,-4.849829674E-1,9.646989233E-1
1.064097100E1,-7.272627950E-1,2.592277527E-1,-3.926272392E-1,8.661791672E-1
1.065097568E1,-8.533019423E-1,1.836090088E-1,-2.749419212E-1,9.151117598E-1
1.066097152E1,-7.802848220E-1,1.317214966E0,4.386825562E-1,1.592589732E0
1.067097022E1,-7.028791308E-1,2.053858757E0,5.221663713E-1,2.232718654E0
1.068097230E1,-6.270895004E-1,2.137582779E0,5.960911512E-1,2.306041205E0
1.069097100E1,-7.140359879E-1,2.931368828E0,6.335659027E-1,3.082884420E0
1.070097412E1,-2.581895351E0,2.989129066E0,6.014916897E-1,3.995355858E0
1.071097074E1,-2.691589117E0,3.049472809E0,5.096679926E-1,4.099231373E0
1.072097360E1,-3.690413952E0,3.083980560E0,3.946402073E-1,4.825539568E0
1.073096865E1,-3.747748852E0,3.102705956E0,-2.548141479E-1,4.872097695E0
1.074096970E1,-3.797395229E0,3.088016510E0,-3.474476337E-1,4.906809182E0
1.075097464E1,-3.804687023E0,3.038113594E0,-4.362456799E-1,4.888362491E0
1.076096891E1,-3.743807077E0,2.958841324E0,-5.018827915E-1,4.798199636E0
1.077096996E1,-3.526824236E0,2.837205887E0,-5.618741512E-1,4.561132425E0
1.078097001E1,-2.489182949E0,1.977398872E0,-6.067588329E-1,3.236401448E0
1.079099042E1,-1.474216819E0,1.823911667E0,-6.110417843E-1,2.423497691E0
1.080099063E1,4.148389399E-2,4.002571106E-2,-5.506916046E-1,5.537004735E-1
1.081096652E1,1.753415912E-1,6.041431427E-2,-4.491527081E-1,4.859348908E-1
1.082096949E1,2.249455929E0,8.151817322E-2,3.071446419E-1,2.271791148E0
1.083097256E1,3.370405197E0,1.031608582E-1,3.917859793E-1,3.394667820E0
1.084097178E1,4.373875618E0,1.715767860E0,4.805997610E-1,4.722882955E0
1.085097490E1,5.204830170E0,2.855894089E0,5.434265137E-1,5.961686047E0
1.086097100E1,5.854161263E0,4.026354790E0,5.695164204E-1,7.127908945E0
1.087097230E1,5.941398621E0,5.030322075E0,5.615810156E-1,7.805109287E0
1.088096970E1,5.790557384E0,5.649003983E0,5.556579828E-1,8.108671692E0
1.089097074E1,5.497839928E0,5.591415405E0,5.453538895E-1,7.860507679E0
1.090097985E1,4.237478256E0,4.922439575E0,5.363143682E-1,6.517228433E0
1.091097256E1,3.197619438E0,3.969808578E0,5.413109064E-1,5.126125995E0
1.092096735E1,2.039302111E0,2.785578728E0,6.104218960E-1,3.505826128E0
1.093097074E1,8.075902462E-1,1.703516006E0,1.753005266E0,2.574334138E0
1.094097386E1,-7.656534314E-1,1.542719841E0,1.754561424E0,2.458596241E0
1.095097881E1,-8.454737663E-1,-6.104087830E-2,1.757143497E0,1.950924178E0
1.096096746E1,-9.182524681E-1,-3.607845306E-2,1.760636091E0,1.986033408E0
1.097098704E1,-2.807141781E0,-1.173686981E-2,1.764490843E0,3.315661422E0
1.098097449E1,-2.907024384E0,-9.030914307E-2,1.567481995E0,3.303928920E0
1.099095730E1,-2.970458508E0,-7.686519623E-2,1.540696383E0,3.347129718E0
1.100097881E1,-2.962090969E0,-6.563186646E-2,1.520933628E0,3.330394804E0
1.101098063E1,-2.841256618E0,-5.849933624E-2,3.379901648E-1,2.861887261E0
1.102097777E1,-2.124218941E0,-4.891872406E-2,1.598515511E-1,2.130786631E0
1.103098506E1,-1.059020042E0,-1.449686050E0,-8.639973402E-1,1.992386634E0
1.104097959E1,-9.782592058E-1,-1.611853600E0,-1.029902697E0,2.148432606E0
1.105098141E1,-8.587779999E-1,-2.863310337E0,-1.912457108E0,3.548737512E0
1.106098506E1,-7.805640101E-1,-3.896771908E0,-1.991457939E0,4.445223976E0
1.107097855E1,1.824740767E-1,-4.021200180E0,-2.017243385E0,4.502512471E0
1.108098324E1,3.111921549E-1,-4.903005600E0,-2.005569935E0,5.306469187E0
1.109097985E1,9.510207176E-1,-4.998620033E0,-1.920964956E0,5.438818714E0
1.110098063E1,1.031791925E0,-5.693732262E0,-1.783861399E0,6.055191420E0
1.111098167E1,1.125180244E0,-5.761485100E0,-1.034494162E0,5.960781770E0
1.112097985E1,1.236577153E0,-6.409152031E0,-8.357390165E-1,6.580639218E0
1.113097777E1,1.817032814E0,-6.467971802E0,1.588807106E-1,6.720231436E0
1.114096902E1,1.819227219E0,-7.057545662E0,1.693386197E0,7.482385666E0
1.115098886E1,1.782698631E0,-7.099911690E0,1.812835455E0,7.541427769E0
1.116097068E1,1.703256488E0,-7.121360779E0,2.970443726E0,7.901797133E0
1.117095730E1,1.567630291E0,-7.108640194E0,4.071165085E0,8.340540467E0
1.118097001E1,8.343667388E-1,-6.985597610E0,5.014313698E0,8.639333521E0
1.119097048E1,7.839024067E-2,-5.336813927E0,5.170519829E0,7.431150868E0
1.120097178E1,-1.028552532E0,-2.694257736E0,6.028008938E0,6.682352641E0
1.121097074E1,-2.603414536E0,2.737655640E-1,6.698591709E0,7.191929207E0
1.122097568E1,-4.208003998E0,3.974646568E0,7.521984100E0,9.491330665E0
1.123097959E1,-6.166254044E0,8.070698738E0,8.990492821E0,1.356421130E1
1.124097360E1,-6.307245731E0,8.934924126E0,8.840727806E0,1.406316771E1
1.125096917E1,-6.386651516E0,8.939010620E0,8.573852539E0,1.393578759E1
1.126096996E1,-6.328875542E0,8.155865669E0,8.252400398E0,1.321646408E1
1.127095798E1,-6.049622059E0,6.264851570E0,7.838722706E0,1.171716117E1
1.128097470E1,-4.547799110E0,4.129018784E0,6.354457855E0,8.838009250E0
1.129096839E1,-3.125669479E0,2.512257576E0,4.414525986E0,5.963999287E0
1.130098324E1,-1.988475919E0,2.372350693E0,1.730270386E0,3.546254347E0
1.131097985E1,-2.472239137E-1,2.436430931E0,-8.813684583E-1,2.602715064E0
1.132096829E1,-3.933969513E-2,3.399467468E0,-3.722142696E0,5.041058711E0
1.133100454E1,1.526465118E-1,4.238955498E0,-5.493852139E0,6.940782088E0
1.134096985E1,3.308035135E-1,4.350034714E0,-6.730678558E0,8.020864469E0
1.135096871E1,4.551358819E-1,4.335947037E0,-7.027432442E0,8.269969293E0
1.136097438E1,1.958890080E0,3.336942673E0,-7.725326538E0,8.640202941E0
1.137097152E1,2.015330791E0,1.648315430E0,-7.656431198E0,8.086992064E0
1.138098037E1,2.107415199E0,-3.090190887E-2,-6.852763653E0,7.169555316E0
1.139097438E1,2.156406164E0,-2.314477444E0,-6.553481102E0,7.277019166E0
1.140097074E1,2.146672726E0,-4.228431225E0,-6.249801636E0,7.845244094E0
1.141096944E1,2.008180618E0,-5.579722881E0,-6.083296299E0,8.495445291E0
1.142097230E1,1.935955167E0,-5.497253895E0,-5.990064621E0,8.357547305E0
1.143097386E1,1.883232832E0,-4.154633045E0,-6.684685230E0,8.092747263E0
1.144097022E1,1.845480800E0,-2.481889725E0,-6.504876137E0,7.202707098E0
1.145097152E1,1.766032815E0,-1.258640289E-1,-6.190613270E0,6.438820258E0
1.146096996E1,1.645085454E0,-1.033811569E-1,-4.780694962E0,5.056880276E0
1.147097256E1,1.493402004E0,1.747219086E0,-3.416212559E0,4.117466737E0
1.148097470E1,1.339604497E0,1.889937401E0,-2.017423153E0,3.071872355E0
1.149097074E1,1.189051151E0,1.979588509E0,-8.184065223E-1,2.449980110E0
1.150097022E1,1.056393385E0,1.968956947E0,-4.775351882E-1,2.284906628E0
1.151098720E1,9.292142391E-1,1.825818062E0,1.081029415E0,2.316392733E0
1.152096865E1,8.139482737E-1,-2.101802826E-2,1.266184092E0,1.505382245E0
1.153098537E1,7.686161399E-1,1.402473450E-2,-4.218643904E-1,8.768905448E-1
1.154096792E1,8.259027004E-1,-1.507599831E0,-1.105911016E0,2.044018517E0
1.155096897E1,1.561623573E0,-1.592163086E0,-1.211206198E0,2.537847893E0
1.156097178E1,1.613074303E0,-1.615356445E0,-2.154901743E0,3.139265308E0
1.157096996E1,1.659174204E0,-1.580116272E0,-2.205846786E0,3.180469544E0
1.158097647E1,1.671258926E0,-1.503679276E0,-2.240963459E0,3.174283382E0
1.159097022E1,1.494906545E0,-1.298092842E0,-2.199020386E0,2.958966249E0
1.160096996E1,3.976175189E-1,6.282043457E-2,-2.076123476E0,2.114789537E0
1.161097022E1,-7.855187654E-1,9.533309937E-2,-1.927486062E0,2.083586007E0
1.162097282E1,-7.946174741E-1,1.349306107E-1,-1.219060779E0,1.461414514E0
1.163097569E1,-8.020777106E-1,1.747760773E-1,-1.084877133E0,1.360453500E0
1.164097022E1,-1.007344484E0,-1.476754189E0,-9.502909184E-1,2.024499611E0
1.165096944E1,-1.011499047E0,-1.490242958E0,-8.050682545E-1,1.972837878E0
1.166096970E1,-1.014023662E0,-1.454778671E0,-6.614046097E-1,1.892638641E0
1.167096944E1,-9.776447415E-1,-1.351191521E0,-5.138952732E-1,1.745163636E0
1.168108647E1,-9.000654817E-1,2.758359909E-1,-3.759005070E-1,1.013658994E0
1.169097787E1,-1.022903204E0,2.022905350E-1,3.140769005E-1,1.088988854E0
1.170098147E1,-9.401730299E-1,1.392490387E0,3.971986771E-1,1.726476641E0
1.171096839E1,-8.592609167E-1,2.511470795E0,4.936636686E-1,2.699910868E0
1.172097053E1,-7.800872922E-1,3.497644424E0,6.013698578E-1,3.633689366E0
1.173097803E1,-7.025667429E-1,4.239808083E0,1.254383087E0,4.476946452E0
1.174097100E1,-8.262597919E-1,4.333065987E0,1.310327768E0,4.601643722E0
1.175097126E1,-2.354302883E0,4.369474411E0,1.342910290E0,5.141833986E0
1.176097074E1,-3.071712732E0,4.332478523E0,1.341730237E0,5.477775944E0
1.177097230E1,-4.457502365E0,3.508792877E0,1.228233218E0,5.804266674E0
1.178097516E1,-4.550579071E0,3.324562073E0,1.067268610E0,5.735812509E0
1.179097022E1,-5.209144592E0,2.121583939E0,3.610019684E-1,5.636189157E0
1.180097126E1,-5.146709442E0,1.317543030E0,2.277519703E-1,5.317556645E0
1.181097022E1,-4.946160316E0,8.259296417E-2,1.025068760E-1,4.947911795E0
1.182097490E1,-3.842935324E0,8.771324158E-2,3.739833832E-3,3.843938020E0
1.183097438E1,-2.735907316E0,-4.815101624E-3,-5.715060234E-2,2.736508399E0
1.184096891E1,-1.473829627E0,-1.152355194E0,-7.503855228E-2,1.872358686E0
1.185097022E1,1.701534092E-1,-1.187909126E0,-6.363034248E-2,1.201719225E0
1.186108251E1,1.372775316E0,-1.118988037E0,2.032041550E-3,1.771059125E0
1.187096938E1,2.716587067E0,6.954193115E-2,6.433355808E-2,2.718238433E0
1.188099839E1,3.786441803E0,1.102693558E0,1.141555309E-1,3.945390487E0
1.189098068E1,4.541549206E0,2.752268791E0,1.427668333E-1,5.312347415E0
1.190097053E1,4.664364338E0,4.393513680E0,1.387197971E-1,6.409251151E0
1.191097100E1,4.728223801E0,5.771995544E0,1.017258167E-1,7.462062786E0
1.192097152E1,4.746312618E0,6.684672356E0,7.016456127E-2,8.198612751E0
1.193097568E1,4.606640339E0,6.773225784E0,8.062672615E-2,8.191716756E0
1.194097673E1,4.353286743E0,6.759225845E0,1.327250004E-1,8.040886482E0
1.195097178E1,2.707216263E0,5.200269699E0,1.820270538E0,6.138828037E0
1.196097334E1,1.828295708E0,3.850468636E0,1.828119755E0,4.637973237E0
1.197097308E1,8.972151279E-1,2.663310051E0,1.636886001E0,3.252323968E0
1.198097386E1,-4.147152007E-1,1.735691071E0,1.647105694E0,2.428491169E0
1.199097048E1,-4.863516390E-1,1.592589378E0,1.658370256E0,2.350121434E0
1.200096944E1,-5.508571267E-1,-9.265804291E-2,1.667562127E0,1.758633713E0
1.201097126E1,-5.898475051E-1,-7.913780212E-2,1.629923105E0,1.735174977E0
1.202096917E1,-7.995281219E-1,-1.658744812E-1,1.395825744E0,1.617123702E0
1.203097620E1,-1.775984645E0,-1.522340775E-1,1.371708393E0,2.249195543E0
1.204105266E1,-1.764608860E0,-1.388778687E-1,1.355863094E0,2.229685229E0
1.205097069E1,-6.731312275E-1,-1.270532608E-1,1.344657421E0,1.509089713E0
1.206110553E1,-6.044827700E-1,-1.145381927E-1,1.055840254E-1,6.242326515E-1
1.207097417E1,-7.392787933E-1,-2.002973557E-1,-3.821945190E-2,7.668851879E-1
1.208099318E1,-6.734492183E-1,-1.434485435E0,-7.406128645E-1,1.749225466E0
1.209097152E1,-6.084422469E-1,-2.122486115E0,-8.608790636E-1,2.369865405E0
1.210097100E1,-5.442527533E-1,-2.876484871E0,-1.008132935E0,3.096240993E0
1.211096944E1,-4.808703065E-1,-3.662173271E0,-1.779876828E0,4.100086687E0
1.212097516E1,-6.176871657E-1,-4.439109802E0,-1.822042227E0,4.838085484E0
1.213097516E1,9.936351776E-1,-5.839414120E0,-1.908029675E0,6.223073627E0
1.214096996E1,1.084927797E0,-5.958703995E0,-1.876169801E0,6.340602081E0
1.215097470E1,1.187954187E0,-6.860093117E0,-1.799346566E0,7.190949922E0
1.216096975E1,1.904873967E0,-6.945360184E0,-1.671516895E0,7.393276787E0
1.217097048E1,1.955960155E0,-7.613540649E0,-8.535909653E-1,7.906984184E0
1.218097933E1,1.963683367E0,-7.667036057E0,-3.294694424E-2,7.914580201E0
1.219098063E1,1.966077209E0,-7.727705956E0,1.535378337E0,8.120362403E0
1.220097673E1,1.923733473E0,-7.760027885E0,1.656546593E0,8.164736975E0
1.221097725E1,1.807682037E0,-7.738274574E0,3.844552040E0,8.827751023E0
1.222101136E1,1.056697726E0,-7.548629761E0,4.966237545E0,9.097358776E0
1.223096667E1,-8.539943099E-1,-5.424250603E0,5.154430389E0,7.531265068E0
1.224105834E1,-8.986653090E-1,-2.378157616E0,6.145298958E0,6.650408428E0
1.225096897E1,-2.897758961E0,1.646477699E0,7.051090240E0,7.799087728E0
1.226097001E1,-4.355084419E0,5.259602547E0,8.183522224E0,1.065834017E1
1.227095912E1,-5.477434635E0,7.806235313E0,9.158477783E0,1.322184992E1
1.228097959E1,-5.709158897E0,9.311745644E0,9.098091125E0,1.421542699E1
1.229098089E1,-6.464807510E0,1.005083752E1,8.848276138E0,1.486960193E1
1.230098063E1,-6.366754055E0,9.968419075E0,8.501202583E0,1.456624116E1
1.231098871E1,-5.010127068E0,6.188297272E0,8.028582573E0,1.130727794E1
1.232098532E1,-3.708479881E0,2.905459404E0,6.101414204E0,7.708551917E0
1.233098480E1,-2.514984369E0,-7.656669617E-2,3.645574570E0,4.429584944E0
1.234098167E1,-1.483409762E0,-5.010223389E-2,4.788936377E-1,1.559600549E0
1.235097777E1,-3.155671358E-1,-1.129837036E-1,-2.868656635E0,2.888172229E0
1.236097699E1,-1.264041662E-1,-6.869220734E-2,-5.801213741E0,5.802997286E0
1.237098037E1,1.347064018E0,-1.961803436E-2,-7.592796803E0,7.711389604E0
1.238097881E1,2.547390699E0,1.894817352E0,-7.917832375E0,8.530627274E0
1.239098167E1,3.468357563E0,2.747868538E0,-8.113536835E0,9.241740402E0
1.240100246E1,3.615980387E0,2.872571945E0,-8.153907776E0,9.370869530E0
1.241098152E1,3.695865393E0,2.869688034E0,-7.986670017E0,9.256426329E0
1.242097996E1,3.738709927E0,2.730777740E0,-6.686920166E0,8.133265045E0
1.243097027E1,3.661690474E0,1.735293388E0,-5.387521267E0,6.741261430E0
1.244097230E1,3.459977627E0,-3.211116791E-2,-4.164944649E0,5.414724391E0
1.245097204E1,2.368391991E0,-1.306734085E-1,-3.897565365E0,4.562605827E0
1.246097959E1,1.303367376E0,-1.241693497E-1,-3.800999403E0,4.020171763E0
1.247097204E1,-2.251588702E-1,-1.130123138E-1,-4.521882057E0,4.528894527E0
1.248097308E1,-2.664723992E-1,-1.170577049E0,-4.491634846E0,4.649305513E0
1.249097516E1,-4.644363523E-1,-1.115035057E0,-5.204978943E0,5.343295809E0
1.250097256E1,-4.994986653E-1,-1.301555634E-1,-4.920971870E0,4.947969638E0
1.251097725E1,-5.317938328E-1,-1.039123535E-1,-3.795328856E0,3.833813190E0
1.252096917E1,-5.240044594E-1,-7.721328735E-2,-2.940166235E0,2.987493942E0
1.253096996E1,1.115827560E0,-5.162143707E-2,-2.665089607E0,2.889712534E0
1.254097126E1,1.199318409E0,-1.240091324E-1,-1.891503453E0,2.243106824E0
1.255096944E1,1.302860498E0,-9.696769714E-2,-1.755145907E0,2.188009454E0
1.256097386E1,1.923810005E0,-6.911087036E-2,-1.645905256E0,2.532750552E0
1.257097230E1,1.986530662E0,-1.075960159E0,-1.595005870E0,2.765508644E0
1.258098537E1,2.076508284E0,-1.164604187E0,-1.619909883E0,2.879634975E0
1.259098391E1,2.123704910E0,-1.227623940E0,-2.409652233E0,3.438547218E0
1.260098589E1,2.152678967E0,-1.245802879E0,-2.416900635E0,3.468062892E0
1.261097990E1,2.139787674E0,-1.224720955E0,-2.410612583E0,3.448142360E0
1.262097334E1,2.041222572E0,-1.153269768E0,-2.363528252E0,3.329096956E0
1.263096865E1,1.858167171E0,-1.063455582E0,-2.286063671E0,3.132061640E0
1.264096996E1,8.395819068E-1,-9.958438873E-1,-2.182120323E0,2.541309098E0
1.265097282E1,-9.621538520E-1,-9.679946899E-1,-2.044804335E0,2.458450431E0
1.266098089E1,-9.858712554E-1,-9.867448807E-1,-1.867460608E0,2.330883248E0
1.267097230E1,-9.674341083E-1,-1.110662460E0,-1.031667352E0,1.798287346E0
1.268096839E1,-1.186300755E0,-1.143445015E0,-9.230824709E-1,1.888612515E0
1.269097204E1,-1.203199148E0,-1.144139290E0,-8.258242607E-1,1.854380925E0
1.270097569E1,-2.184986591E0,-1.100972176E0,-7.428033352E-1,2.556963615E0
1.271097751E1,-1.104104042E0,-9.946813583E-1,-6.519906521E-1,1.622815008E0
1.272097204E1,-1.023086786E0,2.673206329E-1,-5.548470020E-1,1.194161668E0
1.273096970E1,-1.143581986E0,1.923170090E-1,-4.539597034E-1,1.245329275E0
1.274097048E1,-1.065067053E0,2.169723511E-1,-3.390696049E-1,1.138601346E0
1.275097048E1,-9.862462282E-1,1.793834686E0,-2.017316818E-1,2.056992994E0
1.276099386E1,-9.087752700E-1,1.945466042E0,5.990357399E-1,2.229249746E0
1.277096313E1,-8.326410055E-1,2.877402306E0,6.714421511E-1,3.069783320E0
1.278096428E1,-9.536349773E-1,2.956466675E0,7.222379446E-1,3.189316936E0
1.279096636E1,-8.745979071E-1,3.048601151E0,7.608481646E-1,3.261561038E0
1.280097100E1,-7.971272469E-1,3.693646431E0,7.826001644E-1,3.858872740E0
1.281097516E1,-7.184337974E-1,3.719076157E0,7.754687071E-1,3.866397069E0
1.282097282E1,-2.414288998E0,3.717666626E0,7.141935825E-1,4.489978728E0
1.283097438E1,-2.474298000E0,3.672952652E0,6.237413883E-1,4.472335531E0
1.284097334E1,-3.221187115E0,3.464297295E0,4.219199419E-1,4.749254532E0
1.285096944E1,-3.237464905E0,2.582067490E0,3.334342241E-1,4.154447004E0
1.286097907E1,-3.223917723E0,2.455669403E0,2.631113529E-1,4.061180282E0
1.287097178E1,-3.168251276E0,1.562732697E0,1.990199089E-1,3.538298822E0
1.288097152E1,-2.976769209E0,1.389773369E0,1.165263653E-1,3.287279017E0
1.289097100E1,-2.065548182E0,6.056022644E-2,4.191803932E-2,2.066860894E0
1.290097699E1,-1.238237023E0,7.177543640E-2,6.485700607E-3,1.240332497E0
1.291097620E1,-6.326638162E-2,8.481121063E-2,4.476165771E-2,1.148876951E-1
1.292096917E1,-1.471796632E-1,6.628036499E-4,1.424841881E-1,2.048512544E-1
1.293098584E1,1.570677519E0,1.738643646E-2,8.410625458E-1,1.781773376E0
1.294097261E1,2.339009762E0,1.615820885E0,8.560487032E-1,2.968949845E0
1.295096100E1,3.061170101E0,3.121788979E0,8.194075823E-1,4.448343242E0
1.296097839E1,3.242683172E0,4.592748642E0,7.476040125E-1,5.671617583E0
1.297096844E1,4.288081646E0,5.672146797E0,6.844353676E-1,7.143482712E0
1.298096636E1,4.351100445E0,5.822319984E0,6.276094913E-1,7.295572545E0
1.299097308E1,4.324164867E0,6.475207329E0,5.696171522E-1,7.807123379E0
1.300097126E1,4.194734097E0,6.368532181E0,5.109633207E-1,7.642975847E0
1.301097647E1,3.966487169E0,5.290485382E0,4.140094519E-1,6.625229043E0
1.302097074E1,1.986271739E0,2.569459915E0,3.673638105E-1,3.268387346E0
1.303096891E1,6.389152408E-1,1.280341148E0,4.529858828E-1,1.500893851E0
1.304097048E1,-4.623888433E-1,-8.406734467E-2,1.840431809E0,1.899489407E0
1.305097048E1,-1.995380878E0,-6.531524658E-2,1.840066075E0,2.715079022E0
1.306097647E1,-2.822855949E0,-1.454629898E-1,1.642056108E0,3.268948371E0
1.307096865E1,-3.004182100E0,-1.249084473E-1,1.645970702E0,3.427817347E0
1.308097126E1,-3.148400068E0,-1.033458710E-1,1.653737545E0,3.557801460E0
1.309096970E1,-3.208355904E0,-8.240509033E-2,1.670516253E0,3.618143551E0
1.310097256E1,-3.118484497E0,-7.045745850E-2,1.651836991E0,3.529656535E0
1.311099157E1,-2.198694229E0,-1.594409943E-1,1.440921307E0,2.633615757E0
1.312096433E1,-7.833347917E-1,-1.515817642E-1,-3.632581234E-2,7.986926766E-1
1.313096558E1,-6.716184616E-1,-1.426858902E-1,-1.906270981E-1,7.125793372E-1
1.314095558E1,-5.617177486E-1,-1.857966423E0,-9.605447054E-1,2.165689772E0
1.315097256E1,6.200850606E-1,-2.028765678E0,-1.083660126E0,2.382166016E0
1.316097620E1,7.496935129E-1,-3.214250565E0,-1.238752007E0,3.525330281E0
1.317096917E1,8.935006261E-1,-3.927948952E0,-2.001760006E0,4.498240707E0
1.318097100E1,9.923068285E-1,-4.593592167E0,-2.055193186E0,5.129286585E0
1.319096996E1,1.092589736E0,-4.733069897E0,-2.059466839E0,5.276088195E0
1.320096761E1,1.723382711E0,-5.772381306E0,-1.943558574E0,6.329917364E0
1.321097412E1,1.733167648E0,-6.473162651E0,-1.792110085E0,6.936668030E0
1.322096917E1,1.738393068E0,-6.552711010E0,-9.446128607E-1,6.844875857E0
1.323096996E1,1.744575500E0,-7.212176323E0,-7.421348095E-1,7.457197534E0
1.324097100E1,1.711070776E0,-7.251802921E0,4.969725609E-1,7.467488904E0
1.325097100E1,1.616860390E0,-7.294853210E0,1.559684277E0,7.632937568E0
1.326097725E1,1.503669262E0,-7.311463833E0,1.667773485E0,7.648528815E0
1.327095845E1,1.354380369E0,-7.271197319E0,3.611925364E0,8.231078998E0
1.328096891E1,1.172797561E0,-6.534597397E0,4.477578163E0,8.007816398E0
1.329100303E1,1.158980727E-1,-4.624119759E0,4.687170982E0,6.585247734E0
1.330096808E1,-1.118746281E0,-1.491055489E0,5.778430939E0,6.071664008E0
1.331098954E1,-2.139078617E0,2.362065315E0,6.716423035E0,7.434066738E0
1.332096069E1,-3.327869892E0,5.653651237E0,7.651059151E0,1.007855131E1
1.333097761E1,-4.253753185E0,8.000749588E0,8.362277031E0,1.233021035E1
1.334097386E1,-5.085338116E0,9.505009651E0,8.277160645E0,1.359107283E1
1.335097022E1,-5.833540916E0,1.031322384E1,8.107411385E0,1.435698105E1
1.336097542E1,-5.969353199E0,1.021745110E1,7.842996597E0,1.419655170E1
1.337096970E1,-6.585743427E0,8.631083488E0,7.463233471E0,1.317450085E1
1.338097386E1,-5.438357353E0,2.650291443E0,5.461566448E0,8.150367078E0
1.339097126E1,-4.264532089E0,-1.590709686E-1,3.378901482E0,5.443207945E0
1.340096996E1,-3.237910509E0,-1.491041183E-1,7.570856810E-1,3.328584569E0
1.341098298E1,-2.187105179E0,-1.268997192E-1,-2.079072952E0,3.020277627E0
1.342098037E1,-2.146536708E-1,-9.581851959E-2,-4.753189087E0,4.758998202E0
1.343098089E1,-1.839064807E-2,1.603096008E0,-6.667812347E0,6.857840515E0
1.344097881E1,2.123998165E0,2.738002777E0,-7.761998653E0,8.500391197E0
1.345098063E1,3.324326754E0,3.563201904E0,-7.941326141E0,9.317307393E0
1.346098246E1,3.554022789E0,3.642154694E0,-7.931080341E0,9.423290518E0
1.347100834E1,4.263749599E0,3.547059059E0,-7.108759880E0,9.016410353E0
1.348097496E1,4.254364491E0,2.357379913E0,-5.876896858E0,7.628549925E0
1.349098068E1,4.194409847E0,9.537048340E-1,-4.446204185E0,6.186384933E0
1.350095699E1,3.966315746E0,-1.706943512E-1,-3.225301027E0,5.115013576E0
1.351097501E1,2.633452177E0,-2.137381554E0,-2.957403660E0,4.499967409E0
1.352096970E1,1.607420087E0,-3.295826912E0,-2.844705343E0,4.640972189E0
1.353097595E1,1.374977708E0,-3.382140160E0,-3.562168837E0,5.100831557E0
1.354098115E1,1.227919936E0,-3.316177368E0,-4.368505001E0,5.620378604E0
1.355098194E1,1.146081448E0,-2.457034111E0,-5.064686775E0,5.744699421E0
1.356098272E1,1.140241861E0,-1.078691483E-1,-4.821800232E0,4.955960526E0
1.357098115E1,1.110862970E0,-7.651615143E-2,-3.505355358E0,3.677959685E0
1.358097725E1,1.102397919E0,-1.448631287E-1,-2.414437056E0,2.658152139E0
1.359098194E1,1.091113091E0,-1.123142242E-1,-1.595478892E0,1.936154735E0
1.360098011E1,1.067245483E0,-8.078002930E-2,-1.381629467E0,1.747695145E0
1.361098167E1,1.003317595E0,-4.954433441E-2,-1.180580020E0,1.550119357E0
1.362098272E1,9.241861105E-1,-1.199801445E0,-1.036226153E0,1.835049894E0
1.363097933E1,8.664124608E-1,-2.012547493E0,-1.049407363E0,2.429459565E0
1.364096813E1,8.277567029E-1,-2.123157501E0,-1.873560667E0,2.950120084E0
1.365096954E1,8.102770448E-1,-2.178061485E0,-2.501346588E0,3.414269391E0
1.366099277E1,8.105080128E-1,-2.164701462E0,-2.536486149E0,3.431707686E0
1.367097886E1,7.829146981E-1,-2.086946011E0,-2.545560837E0,3.383515782E0
1.368098730E1,7.118207216E-1,-1.977533340E0,-2.497869492E0,3.264456900E0
1.369097230E1,6.039338112E-1,-1.844079971E0,-2.404780865E0,3.090038510E0
1.370097412E1,4.569724798E-1,-1.217417717E0,-2.256692886E0,2.604533073E0
1.371097152E1,-9.911319613E-1,-1.175141335E0,-2.065127850E0,2.574500487E0
1.372097334E1,-9.793354869E-1,-1.150512695E0,-1.219869137E0,1.941869761E0
1.373097568E1,-1.165588260E0,-1.126711845E0,-1.073408842E0,1.944294761E0
1.374097933E1,-1.110946059E0,-1.057329178E0,-8.686656952E-1,1.762590771E0
1.375097178E1,-1.093677044E0,-9.823246002E-1,-7.646248341E-1,1.657028133E0
1.376097048E1,-1.071087956E0,-8.810091019E-1,-6.584458351E-1,1.535238537E0
1.377096865E1,-1.193267107E0,1.660623550E-1,-5.466120243E-1,1.322969312E0
1.378097152E1,-1.116944432E0,1.930074692E-1,-4.371473789E-1,1.214872248E0
1.379097725E1,-1.040290952E0,2.191371918E-1,-3.203361034E-1,1.110334000E0
1.380097152E1,-9.648119807E-1,2.446327209E-1,-2.316138744E-1,1.021935572E0
1.381096970E1,-8.904560208E-1,2.273813248E0,-1.623160839E-1,2.447342461E0
1.382096787E1,-1.016526461E0,2.411807060E0,-1.107025146E-1,2.619617222E0
1.383097641E1,-9.387340546E-1,3.296565056E0,-6.376290321E-2,3.428210685E0
1.384101386E1,-2.294183969E0,3.378151894E0,-3.811812401E-2,4.083704604E0
1.385097860E1,-2.404938936E0,3.462530136E0,7.342338562E-3,4.215791757E0
1.386095787E1,-3.367434978E0,3.534794807E0,6.575703621E-2,4.882490825E0
1.387096720E1,-3.439944506E0,3.572049141E0,1.088378429E-1,4.960302304E0
1.388097126E1,-4.201346874E0,3.558755875E0,1.684904099E-1,5.508579486E0
1.389097777E1,-4.229722977E0,3.494597435E0,2.213327885E-1,5.491061454E0
1.390097308E1,-4.230981350E0,3.363612175E0,2.702066898E-1,5.411848270E0
1.391097386E1,-4.127243042E0,2.362692833E0,3.241920471E-1,4.766713022E0
1.392097074E1,-3.782795906E0,8.990859985E-2,4.217127562E-1,3.807291698E0
1.393096944E1,-2.524670839E0,1.009769440E-1,4.006145000E-1,2.558251584E0
1.394097490E1,-1.537529230E0,1.133661270E-1,3.681207895E-1,1.585042879E0
1.395097516E1,6.930968165E-2,1.268606186E-1,3.600161076E-1,3.879549539E-1
1.396096944E1,1.137260348E-2,4.143238068E-2,4.022995234E-1,4.045873018E-1
1.397096996E1,2.129199743E0,5.812549591E-2,4.702647924E-1,2.181288403E0
1.398097204E1,3.222324848E0,7.670307159E-2,4.828304052E-1,3.259200207E0
1.399097334E1,4.183554649E0,2.726568222E0,4.392285347E-1,5.012905892E0
1.400096996E1,4.973403931E0,4.773567200E0,3.567923307E-1,6.902824874E0
1.401096808E1,5.642607689E0,6.393875122E0,2.601186037E-1,8.531607252E0
1.402098490E1,5.741880417E0,7.389025688E0,2.192764282E-1,9.360287041E0
1.403096558E1,5.710605621E0,7.459950447E0,2.326946259E-1,9.397660561E0
1.404097470E1,5.566837311E0,7.441423416E0,2.733159065E-1,9.297266356E0
1.405097152E1,5.276638031E0,7.287772179E0,2.970563173E-1,9.002376058E0
1.406097386E1,3.852924585E0,5.808839798E0,3.734239340E-1,6.980479431E0
1.407097282E1,2.467189074E0,4.341426849E0,2.046411037E0,5.396555119E0
1.408097230E1,1.064551830E0,2.801679611E0,2.043279648E0,3.627350405E0
1.409097803E1,-6.378273368E-1,1.659352303E0,2.041551352E0,2.707065883E0
1.410097100E1,-2.589426994E0,-1.270895004E-1,1.881870389E0,3.203548043E0
1.411097074E1,-2.816368341E0,-1.038837433E-1,1.884099364E0,3.390066796E0
1.412097308E1,-2.991815567E0,-9.022521973E-2,1.832509160E0,3.509585559E0
1.413097178E1,-3.022051096E0,-7.890033722E-2,6.779301167E-2,3.023840932E0
1.414097621E1,-2.911043406E0,-6.888675690E-2,-1.338304281E-1,2.914932191E0
1.415096839E1,-1.093290329E0,-1.617479324E-1,-1.033483028E0,1.513120388E0
1.416096897E1,-1.018236637E0,-1.536626816E-1,-1.176424503E0,1.563455366E0
1.417096996E1,-9.460524321E-1,-1.434764862E-1,-1.332684517E0,1.640624493E0
1.418097022E1,-8.747334480E-1,-2.044636726E0,-2.200366974E0,3.128468118E0
1.419096782E1,-8.042659163E-1,-2.736030579E0,-2.276637316E0,3.649079947E0
1.420097308E1,1.944023967E-1,-3.464982033E0,-2.276692390E0,4.150568759E0
1.421097907E1,9.486114383E-1,-4.215123177E0,-2.249998808E0,4.871305953E0
1.422098084E1,1.051853895E0,-4.912032127E0,-2.155690908E0,5.466393649E0
1.423098485E1,1.182631493E0,-5.056539536E0,-2.011194944E0,5.568852164E0
1.424097647E1,1.891667128E0,-6.045318127E0,-1.324170828E0,6.471298491E0
1.425097074E1,1.962998867E0,-6.125365734E0,-1.180923939E0,6.539728685E0
1.426097386E1,1.983537555E0,-6.792753696E0,-1.007309794E0,7.147768675E0
1.427095855E1,2.004382372E0,-6.850622654E0,-8.317494392E-2,7.138311951E0
1.428096917E1,2.072061300E0,-7.719210148E0,2.011275291E0,8.241654666E0
1.429097933E1,2.002151489E0,-7.737449646E0,1.921511292E0,8.220033045E0
1.430097542E1,1.885981441E0,-7.734929562E0,3.239529371E0,8.595383171E0
1.431097334E1,1.730738044E0,-7.672005177E0,4.391574860E0,9.007832556E0
1.432097334E1,1.522497177E0,-6.781526566E0,5.265618324E0,8.719738330E0
1.433097048E1,3.901396990E-1,-4.563082695E0,5.427758694E0,7.101724939E0
1.434097568E1,-1.550958753E0,-1.182859421E0,6.346946239E0,6.639906327E0
1.435097074E1,-1.610317945E0,2.916738510E0,7.230676651E0,7.961354926E0
1.436098089E1,-3.719482183E0,6.226263046E0,8.186129570E0,1.093680102E1
1.437106537E1,-4.813370705E0,8.468801498E0,8.993266106E0,1.325775138E1
1.438096480E1,-5.684710026E0,9.843679428E0,8.924390793E0,1.445194464E1
1.439098803E1,-6.442347050E0,9.966754913E0,8.748330116E0,1.474358568E1
1.440096766E1,-6.567442894E0,9.858903885E0,8.445193291E0,1.454821576E1
1.441097209E1,-6.535052299E0,8.046869278E0,8.060017586E0,1.313098996E1
1.442097490E1,-6.343811989E0,5.090837479E0,6.816887379E0,1.061275319E1
1.443097673E1,-5.110333443E0,1.907008171E0,5.129857540E0,7.487831892E0
1.444097933E1,-3.697781086E0,-1.411800385E-1,2.900076151E0,4.701484706E0
1.445097256E1,-2.453110218E0,-1.356277466E-1,-4.333123863E-1,2.494775391E0
1.446096917E1,-8.337097168E-1,-9.977245331E-2,-4.961515427E0,5.032063370E0
1.447096891E1,1.122016907E0,1.883227348E0,-6.251213551E0,6.624434922E0
1.448097230E1,2.108214617E0,2.934216499E0,-6.560161591E0,7.489320091E0
1.449097829E1,2.299115419E0,3.694146156E0,-6.779126167E0,8.055383239E0
1.450097204E1,2.368165970E0,3.705083847E0,-6.872035027E0,8.158475457E0
1.451096839E1,2.334018707E0,3.535933495E0,-6.753184319E0,7.972199662E0
1.452096813E1,2.264402390E0,2.039846420E0,-5.901453972E0,6.641961351E0
1.453096891E1,1.495029330E0,-2.179622650E-1,-4.725783348E0,4.961415977E0
1.454097569E1,1.293003321E0,-2.074766159E-1,-4.364024162E0,4.556271614E0
1.455101548E1,-5.154563785E-1,-1.650938034E0,-4.119341850E0,4.467691680E0
1.456096850E1,-5.231764913E-1,-2.415169716E0,-3.963178396E0,4.670496911E0
1.457111157E1,-5.282210112E-1,-2.497681141E0,-3.850983858E0,4.620336048E0
1.458097079E1,-7.302214503E-1,-2.472591877E0,-3.787799120E0,4.581959857E0
1.459097699E1,7.869412899E-1,-2.323670387E0,-4.308795929E0,4.958270164E0
1.460096996E1,8.786522150E-1,-1.363363266E-1,-4.079635143E0,4.175408987E0
1.461097412E1,1.681498885E0,-1.035013199E-1,-3.196857691E0,3.613592412E0
1.462096996E1,1.704687595E0,-6.927776337E-2,-2.920072556E0,3.381949576E0
1.463097621E1,1.715894461E0,-1.337776184E-1,-1.951305747E0,2.601880929E0
1.464098011E1,1.717049837E0,-7.744884491E-2,-1.666652560E0,2.394157310E0
1.465097985E1,1.640732050E0,-4.065418243E-2,-1.468245149E0,2.202134927E0
1.466098089E1,1.505041957E0,-1.317977905E-3,-1.340885878E0,2.015720210E0
1.467097907E1,1.354758143E0,-6.103515625E-2,-1.348319888E0,1.912344487E0
1.468102386E1,1.237275362E0,-1.674932480E0,-2.165240049E0,3.004082823E0
1.469098037E1,1.138639331E0,-1.712563515E0,-2.211677551E0,3.020081275E0
1.470098324E1,1.057328343E0,-1.703660011E0,-2.226899624E0,2.996578481E0
1.471097855E1,9.861725569E-1,-1.644375801E0,-2.205357075E0,2.922346303E0
1.472098063E1,8.900779486E-1,-1.550974846E0,-2.166467667E0,2.809153587E0
1.473099220E1,7.527021170E-1,-1.452323914E0,-2.093071938E0,2.656455413E0
1.474098694E1,-8.496308327E-2,-1.369258881E0,-1.980034828E0,2.408864157E0
1.475101048E1,-2.691227198E-1,-1.306217194E0,-1.806845784E0,2.245734197E0
1.476098329E1,-1.444341540E0,-1.262587547E0,-1.632828712E0,2.519202136E0
1.477096792E1,-1.640284181E0,-1.230950356E0,-1.483031988E0,2.530840740E0
1.478103558E1,-1.634207368E0,-1.205012321E0,-1.364336014E0,2.446242256E0
1.479098037E1,-1.625179052E0,-1.169612885E0,-1.253493547E0,2.362297044E0
1.480097985E1,-2.656318665E0,-1.116552353E0,-1.120385885E0,3.091598702E0
1.481098220E1,-2.698737621E0,-1.053698540E0,-9.378678799E-1,3.045170196E0
1.482097907E1,-2.653513908E0,2.811660767E-1,9.800577164E-2,2.670167702E0
1.483098115E1,-2.583515167E0,3.083076477E-1,2.727007866E-1,2.616098229E0
1.484098141E1,-2.519959211E0,1.363974571E0,1.087615252E0,3.064886294E0
1.485098246E1,-2.476692915E0,2.165392876E0,1.187236905E0,3.497494184E0
1.486097985E1,-2.401428699E0,2.319678307E0,1.265527964E0,3.570620152E0
1.487098011E1,-2.364573956E0,3.274587631E0,1.265139818E0,4.232577572E0
1.488102048E1,-2.357299566E0,3.365139008E0,1.200806618E0,4.280532481E0
1.489096996E1,-2.968089342E0,4.034756660E0,1.114903808E0,5.131454584E0
1.490097126E1,-2.956739426E0,4.043414116E0,9.927322865E-1,5.106566668E0
1.491097470E1,-2.965625763E0,4.007598877E0,8.943171501E-1,5.065134558E0
1.492096022E1,-2.960422039E0,3.920237541E0,8.371711969E-1,4.983293754E0
1.493099178E1,-2.926520586E0,3.761542320E0,7.895185947E-1,4.830844955E0
1.494096714E1,-2.854239702E0,2.681418419E0,7.537096739E-1,3.988078145E0
1.495096917E1,-2.727835178E0,2.505978584E0,7.333420515E-1,3.776083155E0
1.496096970E1,-2.516007662E0,1.389704704E0,7.365685701E-1,2.967171545E0
1.497097074E1,-1.569188595E0,1.219441414E0,7.554124594E-1,2.126038144E0
1.498099730E1,-1.343327880E0,3.339862823E-2,7.684457302E-1,1.547951582E0
1.499097152E1,-4.384395480E-2,6.285572052E-2,7.540191412E-1,7.579036873E-1
1.500097022E1,-1.248123720E-1,-2.546215057E-2,7.344063520E-1,7.453718128E-1
1.501097074E1,1.647123933E0,-1.245975494E-2,7.350883484E-1,1.803753690E0
1.502097412E1,1.770687699E0,2.568244934E-3,7.245016098E-1,1.913176444E0
1.503097204E1,1.896409512E0,2.254115105E0,6.288902760E-1,3.012126644E0
1.504097334E1,1.979490638E0,3.709813118E0,-1.463396549E-1,4.207435306E0
1.505096865E1,2.690396070E0,5.074883461E0,-3.268299103E-1,5.753215705E0
1.506096996E1,2.757676840E0,6.099554062E0,-1.217909813E0,6.803869900E0
1.507096944E1,2.791922092E0,6.244335175E0,-1.235857248E0,6.950819655E0
1.508102334E1,3.345878363E0,6.949498177E0,-1.174759626E0,7.801954057E0
1.509097339E1,3.311063051E0,6.887924194E0,-1.071209431E0,7.717132102E0
1.510096131E1,3.218404055E0,6.197151184E0,-1.876902580E-2,6.983062346E0
1.511096157E1,3.028734446E0,5.392512321E0,6.643527746E-1,6.220432950E0
1.512096818E1,2.185662270E0,4.415168762E0,1.859084487E0,5.265646198E0
1.513096740E1,1.954165697E0,3.568655014E0,1.857946754E0,4.472809891E0
1.514097178E1,6.143758893E-1,3.409121513E0,1.858907461E0,3.931298027E0
1.515097126E1,-6.960603595E-1,2.521489143E0,1.662200928E0,3.099244980E0
1.516096845E1,-7.168784738E-1,2.414428711E0,1.659525514E0,3.016190590E0
1.517097152E1,-2.103971004E0,1.566653252E0,1.660710216E0,3.104682724E0
1.518099209E1,-2.228213072E0,-1.973552704E-1,1.627344370E0,2.766248777E0
1.519097074E1,-2.327084541E0,-2.821722031E-1,1.400647879E0,2.730706519E0
1.520096970E1,-2.355213404E0,-2.695779800E-1,-2.042378187E-1,2.379372932E0
1.521097308E1,-2.297751665E0,-1.277472496E0,-3.081854582E-1,2.646993950E0
1.522097438E1,-2.184331417E0,-2.114116669E0,-4.468405247E-1,3.072533073E0
1.523096970E1,-1.980218053E0,-2.965522289E0,-1.270802379E0,3.785567946E0
1.524097048E1,-6.867399216E-1,-3.821233749E0,-1.446627378E0,4.143207678E0
1.525096787E1,-5.830904841E-1,-4.696234703E0,-2.299647808E0,5.261463194E0
1.526098792E1,-4.810548127E-1,-5.560499191E0,-2.357288837E0,6.058661210E0
1.527144209E1,-3.798370659E-1,-6.372796535E0,-2.333274841E0,6.797130524E0
1.528100647E1,1.331807375E0,-7.062551022E0,-2.260057926E0,7.534002897E0
1.529095516E1,1.476379514E0,-7.165332317E0,-2.157147646E0,7.627251776E0
1.530096027E1,1.603844881E0,-7.870066166E0,-2.008685112E0,8.279195356E0
1.531097152E1,2.374261618E0,-7.891292572E0,-1.289667130E0,8.341034588E0
1.532096917E1,2.435091257E0,-7.905066490E0,-1.105443716E0,8.345163357E0
1.533097100E1,2.506073475E0,-7.912010193E0,-1.518743038E-1,8.300805705E0
1.534097126E1,2.515898943E0,-7.915557384E0,8.098804951E-2,8.306163691E0
1.535097308E1,2.525780678E0,-7.870530128E0,2.849333286E0,8.743198083E0
1.536097126E1,2.384796381E0,-7.692849159E0,4.217836380E0,9.091607432E0
1.537097360E1,2.141843319E0,-5.756774426E0,5.193223000E0,8.043476221E0
1.538099782E1,6.739580035E-1,-3.021538734E0,5.371157169E0,6.199455222E0
1.539097074E1,-9.039720297E-1,9.679126740E-2,6.793786049E0,6.854346275E0
1.540096813E1,-2.283090591E0,4.754549026E0,8.128867149E0,9.690032003E0
1.541097100E1,-3.464679956E0,7.604448318E0,9.408336639E0,1.258365765E1
1.542096944E1,-4.309525490E0,9.320490837E0,1.019188118E1,1.446782642E1
1.543097100E1,-4.535125732E0,1.021184921E1,1.001265907E1,1.500341866E1
1.544098897E1,-5.342114449E0,1.020298672E1,9.706615448E0,1.506178967E1
1.545097256E1,-5.376527786E0,9.294678688E0,9.258948326E0,1.417837181E1
1.546098016E1,-5.196613312E0,7.054058075E0,7.963836193E0,1.184006808E1
1.547095620E1,-4.038825989E0,4.097381592E0,6.407046795E0,8.611091679E0
1.548100147E1,-2.934364796E0,1.459559441E0,4.136622429E0,5.277542575E0
1.549097412E1,-1.958470583E0,-2.220087051E-1,1.329071522E0,2.377251775E0
1.550097022E1,-6.442882419E-1,-1.980113983E-1,-1.829876900E0,1.950068030E0
1.551097048E1,-4.749400318E-1,9.969930649E-1,-4.406626701E0,4.542897984E0
1.552097542E1,9.494858384E-1,2.170241356E0,-5.859035492E0,6.319791753E0
1.553097282E1,1.956503868E0,3.974127769E0,-6.191761971E0,7.613114685E0
1.554096996E1,2.084865570E0,3.989846230E0,-6.302258015E0,7.744933406E0
1.555097100E1,2.158543825E0,3.829883575E0,-6.279379845E0,7.665372194E0
1.556097100E1,2.182410002E0,2.288083076E0,-6.082391739E0,6.855197068E0
1.557096996E1,2.103511333E0,1.011486053E0,-5.157939911E0,5.661466956E0
1.558099235E1,1.920678854E0,-2.595691681E-1,-4.866823196E0,5.238544783E0
1.559096970E1,9.327455759E-1,-1.804344177E0,-4.727898598E0,5.145745560E0
1.560096944E1,7.617446184E-1,-2.798517227E0,-5.314017296E0,6.053984915E0
1.561097100E1,6.662678719E-1,-2.907637596E0,-5.239625931E0,6.029257762E0
1.562098141E1,6.371273994E-1,-2.939055443E0,-5.806781769E0,6.539318981E0
1.563098266E1,6.416503191E-1,-2.838963509E0,-5.613563061E0,6.323252262E0
1.564097626E1,6.777482629E-1,-1.877411842E0,-5.333862782E0,5.695095267E0
1.565095652E1,7.061764002E-1,-1.655960083E-1,-4.183219433E0,4.245636816E0
1.566096459E1,7.425279021E-1,-1.310472488E-1,-3.125874043E0,3.215526333E0
1.567096996E1,7.618615627E-1,-1.943206787E-1,-2.051336288E0,2.196855511E0
1.568099600E1,7.711999416E-1,-1.585378647E-1,-1.073649883E0,1.331393134E0
1.569097022E1,7.574221492E-1,-1.218166351E-1,-7.906187773E-1,1.101637715E0
1.570097048E1,7.137340307E-1,-8.467578888E-2,1.821044683E-1,7.414501286E-1
1.571096996E1,6.694932580E-1,-1.276435852E-1,2.362120152E-1,7.213253243E-1
1.572097074E1,6.982764006E-1,-9.525203705E-2,1.730927229E-1,7.256886198E-1
1.573097470E1,7.736438513E-1,-1.489286423E0,-7.480906248E-1,1.837427125E0
1.574097204E1,1.393858314E0,-1.532905579E0,-8.409376144E-1,2.236026964E0
1.575097386E1,1.398795605E0,-1.559782982E0,-1.590903759E0,2.630689428E0
1.576096839E1,1.380426168E0,-1.557441711E0,-1.614785075E0,2.634147287E0
1.577096996E1,1.312082291E0,-1.529583931E0,-1.608325124E0,2.578351536E0
1.578099652E1,1.151023626E0,-1.484324455E0,-1.570496202E0,2.448373500E0
1.579096865E1,-3.872680664E-2,-1.443110466E0,-1.520277977E0,2.096500110E0
1.580097152E1,-1.098446250E0,-1.417612076E0,-1.422477007E0,2.289027959E0
1.581099011E1,-1.287238479E0,-1.402581215E0,-1.299156070E0,2.304782736E0
1.582097626E1,-1.275064230E0,-1.377818108E0,-1.136863232E0,2.194682104E0
1.583095542E1,-2.816008091E0,-1.329240799E0,-9.937779903E-1,3.268696585E0
1.584097079E1,-2.893761158E0,-1.255049706E0,-8.872206211E-1,3.276608587E0
1.585097126E1,-2.943871021E0,-1.138994217E0,-8.078761101E-1,3.258273811E0
1.586097334E1,-2.910425663E0,8.052539825E-2,-7.227253914E-1,2.999898977E0
1.587097074E1,-2.781780720E0,1.077699661E-1,-5.931851864E-1,2.846363821E0
1.588099470E1,-1.209059000E0,1.332340240E-1,-4.325153828E-1,1.290985874E0
1.589097855E1,-1.087480187E0,1.730343819E0,5.493460894E-1,2.116242901E0
1.590098011E1,-1.206269741E0,2.453089714E0,6.771397591E-1,2.816248229E0
1.591097933E1,-1.118428349E0,3.122788429E0,7.908091545E-1,3.409995406E0
1.592098272E1,-1.032420039E0,3.264028549E0,8.892196417E-1,3.537016409E0
1.593098089E1,-9.482802749E-1,4.171708107E0,9.479243755E-1,4.381888250E0
1.594098480E1,-2.684657574E0,4.242177963E0,9.380531311E-1,5.107191384E0
1.595098220E1,-3.354044914E0,4.312108994E0,8.673088551E-1,5.531376493E0
1.596097907E1,-4.073592663E0,4.339508057E0,7.643901110E-1,6.000814911E0
1.597098428E1,-4.739320278E0,4.295771599E0,6.336632967E-1,6.427778738E0
1.598099261E1,-4.816547394E0,4.157621384E0,5.055204630E-1,6.382828159E0
1.599098845E1,-5.369727612E0,3.142086983E0,3.741012812E-1,6.232707036E0
1.600097553E1,-5.276176453E0,2.277815819E0,2.418272495E-1,5.751952997E0
1.601096089E1,-5.030196190E0,1.326539993E0,1.386784315E-1,5.204019002E0
1.602096818E1,-3.727931261E0,-7.323741913E-2,7.545220852E-2,3.729413927E0
1.603097256E1,-2.685439587E0,-6.428432465E-2,3.231453896E-2,2.686403260E0
1.604097725E1,-1.388581872E0,-1.374384880E0,-9.413957596E-4,1.953738544E0
1.605098011E1,-1.411225796E-1,-1.474013329E0,-4.858970642E-3,1.480761454E0
1.606098246E1,1.408567548E0,-1.475192070E0,1.274955273E-2,2.039709963E0
1.607098063E1,3.415914297E0,-7.221698761E-2,6.273722649E-2,3.417253537E0
1.608097595E1,3.650951385E0,1.793201447E0,2.834212780E-2,4.067655433E0
1.609097959E1,4.597422123E0,3.267417908E0,-7.385373116E-2,5.640723742E0
1.610098089E1,4.630727291E0,4.546851158E0,-7.156472206E-1,6.529137894E0
1.611097907E1,4.570279121E0,5.472810745E0,-7.345530987E-1,7.167892086E0
1.612097777E1,4.387921333E0,5.596529007E0,-7.400194407E-1,7.150008344E0
1.613098167E1,3.531104565E0,5.640584946E0,-6.944981813E-1,6.690831466E0
1.614096970E1,3.270396948E0,5.544656754E0,-6.072430611E-1,6.465868762E0
1.615097100E1,2.213495255E0,4.719873428E0,6.325125694E-2,5.213517732E0
1.616096938E1,1.353568673E0,3.922983170E0,1.956506968E-1,4.154542610E0
1.617099058E1,4.635924101E-1,3.188959122E0,1.926561713E0,3.754466438E0
1.618097574E1,-6.113099456E-1,3.033722878E0,1.939684868E0,3.652335107E0
1.619097423E1,-8.608596325E-1,2.086212158E0,1.754424453E0,2.858560063E0
1.620096475E1,-9.047539234E-1,1.978619576E0,1.770233750E0,2.804860534E0
1.621097204E1,-9.438064098E-1,1.311234474E0,1.786588073E0,2.408734798E0
1.622096761E1,-9.467692971E-1,1.249964714E0,1.798997998E0,2.386457141E0
1.623097022E1,-9.246838689E-1,1.126659393E0,1.761932611E0,2.286658736E0
1.624096917E1,-1.077288389E0,-2.645931244E-1,1.532764554E0,1.892069495E0
1.625096970E1,-9.612231851E-1,-2.365140915E-1,1.043200493E-2,9.899483591E-1
1.626096970E1,-8.854660392E-1,-2.275466919E-1,-1.512917280E-1,9.266697311E-1
1.627095699E1,-8.129442930E-1,-2.083210945E0,-8.500250578E-1,2.392318721E0
1.628097178E1,-9.412580729E-1,-2.252883434E0,-9.815692902E-1,2.631525945E0
1.629097282E1,-8.695417643E-1,-3.474884033E0,-1.143957734E0,3.760260792E0
1.630097829E1,-8.023450971E-1,-4.206433773E0,-1.875545621E0,4.674988141E0
1.631097022E1,-7.360108495E-1,-4.921549797E0,-1.929416776E0,5.337229007E0
1.632096839E1,-6.702939272E-1,-5.072509766E0,-1.919673681E0,5.464869286E0
1.633096891E1,-8.061680794E-1,-6.129962444E0,-1.895639300E0,6.466822628E0
1.634096725E1,7.510908246E-1,-6.231177330E0,-1.813140869E0,6.532931054E0
1.635099074E1,8.347435594E-1,-6.915531158E0,-1.682945967E0,7.166147859E0
1.636097444E1,9.445222020E-1,-6.982089043E0,-9.656329155E-1,7.111549516E0
1.637097579E1,1.613213778E0,-7.075212002E0,-7.601641417E-1,7.296501428E0
1.638096844E1,1.680758715E0,-7.888810635E0,5.026248693E-1,8.081516865E0
1.639097438E1,1.744862080E0,-7.931218147E0,1.653540492E0,8.287518394E0
1.640097412E1,1.721328616E0,-7.944416046E0,3.249484539E0,8.754191470E0
1.641097048E1,1.627983332E0,-7.867106915E0,4.702480316E0,9.308867926E0
1.642097516E1,1.438485384E0,-6.768939495E0,5.885981560E0,9.084743310E0
1.643097126E1,-9.754327536E-1,3.855991364E-2,7.833776951E0,7.894366171E0
1.644097126E1,-1.017948627E0,3.723847389E0,9.009170532E0,9.801449508E0
1.645097386E1,-2.727261543E0,7.036071777E0,9.742015839E0,1.232278922E1
1.646096891E1,-2.970144749E0,9.098337173E0,9.627521515E0,1.357536996E1
1.647096944E1,-3.950166702E0,1.006523609E1,9.338022232E0,1.428675799E1
1.648096891E1,-4.109016895E0,1.006225491E1,8.391719818E0,1.373149501E1
1.649097048E1,-4.733775616E0,9.186323166E0,7.344391823E0,1.267821975E1
1.650097282E1,-4.672747612E0,6.858948708E0,6.116356373E0,1.030968297E1
1.651097126E1,-4.476151466E0,3.475720406E0,4.407573700E0,7.179364192E0
1.652096944E1,-3.470235109E0,-2.688808441E-1,2.031601906E0,4.030165620E0
1.653098813E1,-3.183791161E0,-1.465305328E0,-6.209908128E-1,3.559392567E0
1.654097053E1,-2.001087666E0,-1.500336647E0,-3.283460140E0,4.127526183E0
1.655096011E1,-4.912954271E-1,-1.864376068E-1,-5.092633247E0,5.119672213E0
1.656097006E1,8.213135004E-1,1.038833618E0,-6.035326481E0,6.178907418E0
1.657097308E1,2.338767052E0,2.560094833E0,-6.223841190E0,7.124613396E0
1.658097100E1,3.353545189E0,3.652087212E0,-6.348559856E0,8.055322376E0
1.659097100E1,3.541986704E0,3.769851685E0,-6.410992622E0,8.237613607E0
1.660097126E1,3.628907681E0,3.694723129E0,-6.354048729E0,8.197187640E0
1.661097568E1,3.670910835E0,1.101540565E0,-5.944820404E0,7.073179456E0
1.662096996E1,3.409525633E0,-2.790861130E-1,-5.699810505E0,6.647600612E0
1.663096970E1,1.700584173E0,-2.219700813E0,-5.627394676E0,6.283838721E0
1.664097334E1,6.317236423E-1,-3.054154396E0,-6.598464966E0,7.298402136E0
1.665097256E1,4.186664224E-1,-3.086570263E0,-6.521228790E0,7.226937283E0
