"Time (s)","Linear Acceleration x (m/s^2)","Linear Acceleration y (m/s^2)","Linear Acceleration z (m/s^2)","Absolute acceleration (m/s^2)"
9.497640800E-2,0.000000000E0,0.000000000E0,0.000000000E0,0.000000000E0
1.049758870E-1,1.999999955E-2,-2.455091476E-2,-4.430294037E-2,5.445638551E-2
1.149764080E-1,7.500000298E-2,-2.226018906E-2,-5.918388367E-1,5.969872068E-1
1.249751060E-1,-1.117441535E0,1.505374908E-2,-5.591320992E-1,1.249612301E0
1.349743240E-1,-1.512369633E0,5.476236343E-2,-1.072678089E0,1.854966066E0
1.449797930E-1,-1.948431253E0,1.059603691E-1,-9.848127365E-1,2.185741996E0
1.549935950E-1,-2.381143093E0,1.668982506E-1,-9.587397575E-1,2.572329563E0
1.649732310E-1,-2.826381922E0,2.273769379E-1,-1.535451889E0,3.224553852E0
1.751638040E-1,-2.690978527E0,2.834792137E-1,-1.457820892E0,3.073591979E0
1.849742720E-1,-3.172115088E0,3.050904274E-1,-1.419147491E0,3.488462971E0
1.949845330E-1,-2.934019566E0,3.034825325E-1,-1.939995527E0,3.530461033E0
2.049774490E-1,-2.713338614E0,2.875370979E-1,-1.848047495E0,3.295476226E0
2.149782310E-1,-2.610496044E0,2.689561844E-1,-1.752798319E0,3.155840454E0
2.249771890E-1,-3.127242088E0,2.115373611E-1,-1.595007420E0,3.516879270E0
2.349756260E-1,-3.045000553E0,1.268153191E-1,-1.413346291E0,3.359413376E0
2.449766680E-1,-3.544974804E0,4.269456863E-2,-6.910610199E-1,3.611957159E0
2.549787510E-1,-3.408977985E0,-4.088878632E-2,-5.771803856E-1,3.457736253E0
2.649756260E-1,-3.315585375E0,-1.146645546E-1,-4.991364479E-1,3.354905592E0
2.749805740E-1,-3.220628262E0,-1.755523682E-1,-4.230351448E-1,3.253033010E0
2.849732830E-1,-3.138734341E0,-2.256326675E-1,-3.533544540E-1,3.166610606E0
2.949743240E-1,-2.969766617E0,-2.713108063E-1,-2.798018456E-1,2.995231608E0
3.049758870E-1,-2.756583214E0,-2.757096291E-1,-2.266125679E-1,2.779589910E0
3.149779700E-1,-2.521016121E0,-2.549114227E-1,-1.671023369E-1,2.539374983E0
3.249761470E-1,-1.768139839E0,-2.224254608E-1,-1.024031639E-1,1.785014842E0
3.349770330E-1,-1.689947128E0,-1.849012375E-1,-2.875089645E-2,1.700275383E0
3.449937510E-1,-1.623153687E0,-1.148734093E-1,5.717458725E-1,1.724736830E0
3.550151580E-1,-1.552040100E0,-4.595136642E-2,5.847754478E-1,1.659187248E0
3.649715120E-1,-1.463322163E0,7.685661316E-3,5.749692917E-1,1.572246961E0
3.749766680E-1,-1.393193245E0,6.725692749E-2,5.032267570E-1,1.482817616E0
3.849771890E-1,-1.353286743E0,1.507282257E-1,3.649744987E-1,1.409719969E0
3.949787510E-1,-1.286891460E0,2.162795067E-1,-5.716400146E-1,1.424653910E0
4.049766680E-1,-4.883608818E-1,3.075532913E-1,-1.311568737E0,1.432933331E0
4.149769290E-1,-3.911538124E-1,3.053078651E-1,-1.304064989E0,1.395277640E0
4.249764080E-1,-3.121514320E-1,2.977862358E-1,-1.260698318E0,1.332469665E0
4.349792720E-1,-2.583694458E-1,3.144445419E-1,-1.167863846E0,1.236744154E0
4.449758870E-1,-1.975336075E-1,3.564648628E-1,-1.042685032E0,1.119499352E0
4.549769290E-1,-9.257173538E-2,4.009237289E-1,-3.492474556E-1,5.397065387E-1
4.649756260E-1,6.408877373E-1,4.856634140E-1,-2.550582886E-1,8.435998898E-1
4.749758870E-1,6.979084015E-1,1.186947823E0,3.701715469E-1,1.425814940E0
4.849740640E-1,7.544779778E-1,1.219559193E0,4.258508682E-1,1.495964774E0
4.949787510E-1,8.249659538E-1,1.278033733E0,4.963698387E-1,1.600100642E0
5.049769290E-1,1.443932533E0,1.315422058E0,5.602908134E-1,2.032043835E0
5.150847410E-1,1.495545387E0,1.310771942E0,5.848941803E-1,2.072891770E0
5.249709910E-1,2.169697762E0,1.265402317E0,5.662236214E-1,2.574770007E0
5.349812510E-1,2.228506565E0,1.190095425E0,5.105500221E-1,2.577446402E0
5.449735950E-1,2.822469234E0,1.094124794E0,4.280972481E-1,3.057238770E0
5.549774490E-1,2.815163612E0,9.902653694E-1,-2.054390907E-1,2.991316915E0
5.649766680E-1,2.826926231E0,8.894758224E-1,-3.110938072E-1,2.979842028E0
5.749748450E-1,2.859936714E0,8.059554100E-1,-1.142616034E0,3.183453083E0
5.849756260E-1,2.896787167E0,7.566719055E-1,-1.241931200E0,3.241345611E0
5.949745850E-1,2.893649101E0,7.368898392E-1,-1.998446941E0,3.593049114E0
6.049761470E-1,2.852764845E0,7.698459625E-1,-2.101212025E0,3.625744343E0
6.149758870E-1,2.782842398E0,8.081188202E-1,-2.146527529E0,3.606223547E0
6.249784910E-1,2.683668613E0,8.587527275E-1,-2.181374550E0,3.563415272E0
6.349753660E-1,2.554755926E0,9.199595451E-1,-2.202405453E0,3.496239864E0
6.449748450E-1,1.867594242E0,9.998345375E-1,-2.206757069E0,3.058979260E0
6.549743240E-1,1.757783890E0,1.785678387E0,-2.196809769E0,3.332330215E0
6.649753660E-1,1.626321793E0,1.874759674E0,-2.179455996E0,3.302979692E0
6.749743240E-1,8.539118767E-1,2.706755638E0,-2.179942131E0,3.578804168E0
6.849751060E-1,7.520585060E-1,2.746504307E0,-2.200671911E0,3.598865761E0
6.949953140E-1,6.533675194E-1,2.761494637E0,-2.263007164E0,3.629592700E0
7.049710430E-1,6.058683395E-1,2.740705967E0,-3.048317909E0,4.143764921E0
7.149668240E-1,6.025671959E-1,2.679515362E0,-3.105052710E0,4.145388055E0
7.249753660E-1,6.325478554E-1,2.598148823E0,-4.280735493E0,5.047295360E0
7.349751060E-1,6.670231819E-1,2.518897057E0,-4.178371906E0,4.924282089E0
7.449748450E-1,7.053394318E-1,2.451304913E0,-4.078395367E0,4.810375064E0
7.549725010E-1,7.420930862E-1,2.422931194E0,-3.980703831E0,4.718824081E0
7.649768760E-1,7.822995186E-1,2.438152313E0,-4.082384109E0,4.818966617E0
7.749758870E-1,8.544712067E-1,2.486178398E0,-3.986239910E0,4.775072009E0
7.849769290E-1,1.630194902E0,4.341126442E0,-3.853452921E0,6.029263107E0
7.949753660E-1,2.520823956E0,4.302978516E0,-3.762606859E0,6.247190400E0
8.049745850E-1,4.002269268E0,4.167413235E0,-3.870993376E0,6.954860321E0
8.149792720E-1,3.989772320E0,4.133030891E0,-2.190029383E0,6.147882254E0
8.249756260E-1,5.148748398E0,4.099787235E0,-2.128570318E0,6.917273815E0
8.349758870E-1,5.912171841E0,4.067637444E0,-2.101475477E0,7.477676740E0
8.449751060E-1,5.966084003E0,4.036542416E0,-2.123521090E0,7.509805246E0
8.549756260E-1,6.550981998E0,3.907696247E0,-2.192885399E0,7.936888652E0
8.650011470E-1,6.500632286E0,3.879796982E0,-3.648260355E0,8.403621145E0
8.749711990E-1,6.457856655E0,3.852811813E0,-3.564787388E0,8.322005802E0
8.850407830E-1,6.397541523E0,3.826706409E0,-3.482825756E0,8.228140417E0
8.949715120E-1,6.312530518E0,3.801451683E0,-3.402322054E0,8.116333642E0
9.049761470E-1,6.196658134E0,3.678179264E0,-3.520899534E0,8.020243654E0
9.149800540E-1,6.083415985E0,3.655671120E0,-3.440889120E0,7.887432999E0
9.249751060E-1,5.948415756E0,3.633902550E0,-3.362242699E0,7.739093856E0
9.349751060E-1,5.775427818E0,3.612846851E0,-3.284914255E0,7.562994812E0
9.449745850E-1,4.991891861E0,3.592482567E0,-3.208859682E0,6.936980309E0
9.549753660E-1,4.785262108E0,3.494085789E0,-3.292676210E0,6.778575482E0
9.649792720E-1,4.647963524E0,4.895259380E0,-3.217701197E0,7.478016469E0
9.749748450E-1,4.542810440E0,4.920820236E0,-4.764059067E0,8.218750348E0
9.849764080E-1,4.441387653E0,4.966089249E0,-4.768981457E0,8.193360168E0
9.949764080E-1,4.387053490E0,5.004157066E0,-4.801480293E0,8.206219548E0
1.004976147E0,4.354186058E0,5.600656509E0,-4.848168850E0,8.592498517E0
1.014975887E0,4.310859680E0,5.599348545E0,-4.863447666E0,8.578422845E0
1.024975626E0,4.243999958E0,5.635363102E0,-4.851558685E0,8.561920031E0
1.034986564E0,4.166585922E0,6.200379372E0,-4.840485573E0,8.901429277E0
1.045108699E0,4.094727516E0,6.186045170E0,-4.820467949E0,8.847081978E0
1.054965783E0,4.018085003E0,6.186006069E0,-4.802488327E0,8.802020922E0
1.064970418E0,3.976285696E0,6.203277588E0,-4.781484604E0,8.783740421E0
1.074985574E0,3.955046654E0,6.230735779E0,-4.728777885E0,8.765032953E0
1.084986824E0,3.980843544E0,6.257337093E0,-4.668132782E0,8.763152771E0
1.094986304E0,4.023122311E0,6.268651962E0,-4.595856190E0,8.752337097E0
1.104983699E0,4.084544659E0,6.276484966E0,-4.489313126E0,8.731076734E0
1.114987866E0,4.703258514E0,6.261909485E0,-4.358075142E0,8.962419874E0
1.124990470E0,4.698720932E0,6.223117352E0,-4.220180511E0,8.866515185E0
1.134986304E0,4.672953606E0,6.104078770E0,-3.532265186E0,8.460092811E0
1.144985783E0,4.614332676E0,5.952225685E0,-3.510862827E0,8.309465352E0
1.154986564E0,4.548985481E0,5.170596600E0,-3.493525028E0,7.722244183E0
1.164989168E0,4.511946678E0,5.014460564E0,-3.508936644E0,7.603625053E0
1.174985522E0,4.494671822E0,4.164025307E0,-3.567359447E0,7.089938996E0
1.184985262E0,4.480004787E0,4.020179749E0,-4.158621788E0,7.316175455E0
1.194985522E0,4.467649460E0,3.251471996E0,-4.200974941E0,6.941192426E0
1.204985522E0,4.481669426E0,2.208569527E0,-4.272452831E0,6.573963294E0
1.214986304E0,4.494272709E0,2.209841728E0,-4.966628075E0,7.053317097E0
1.224994897E0,4.486209869E0,2.211260319E0,-5.015252113E0,7.082972889E0
1.234972189E0,4.450523853E0,2.113646507E0,-5.696360588E0,7.531479807E0
1.244986929E0,4.390932083E0,2.116157055E0,-5.735429764E0,7.526855905E0
1.254978491E0,4.330142975E0,2.118790150E0,-5.778444290E0,7.525279284E0
1.264987085E0,4.273266792E0,2.121541500E0,-5.800554276E0,7.510537752E0
1.274983699E0,4.224735260E0,2.124409676E0,-5.809409142E0,7.490710184E0
1.284986043E0,4.168918133E0,2.028184414E0,-5.816524506E0,7.438102429E0
1.294975366E0,4.116589546E0,2.032056332E0,-5.807562828E0,7.402928368E0
1.304975887E0,4.085536003E0,9.732093811E-1,-5.678166866E0,7.062600080E0
1.314974324E0,4.056406498E0,3.639407158E-1,-5.521492481E0,6.861032411E0
1.324981095E0,4.027452469E0,3.187537193E-1,-4.660648823E0,6.167951424E0
1.334973022E0,3.988963127E0,2.889666557E-1,-4.546030998E0,6.054892765E0
1.344983960E0,3.947120428E0,2.725801468E-1,-4.418105125E0,5.930742998E0
1.354977189E0,3.897555828E0,2.873234749E-1,-4.293364525E0,5.805727789E0
1.364973804E0,3.846219540E0,3.242249489E-1,-4.176388741E0,5.686892779E0
1.374976668E0,3.793410778E0,3.559937477E-1,-4.071149349E0,5.575926282E0
1.384975106E0,3.744258165E0,3.832802773E-1,-4.010306358E0,5.499902733E0
1.395007033E0,3.693474054E0,4.066534042E-1,-4.022193909E0,5.475870837E0
1.404984793E0,3.631593943E0,4.509644508E-1,-4.082665920E0,5.482700477E0
1.415007658E0,3.579628468E0,5.134320259E-1,-4.685050011E0,5.918365147E0
1.424972293E0,3.546081066E0,5.770139694E-1,-4.704698563E0,5.919613553E0
1.434974845E0,3.533453941E0,6.415157318E-1,-4.703221321E0,5.917527354E0
1.444984741E0,3.529290199E0,7.067708969E-1,-4.698030472E0,5.918353211E0
1.454978491E0,3.517888069E0,7.726330757E-1,-4.699387074E0,5.920873010E0
1.464976929E0,3.490479231E0,8.535919189E-1,-4.657735825E0,5.882734690E0
1.474974845E0,3.458945274E0,1.936609745E0,-4.573895931E0,6.052708791E0
1.484979012E0,3.408442020E0,1.963254452E0,-4.369453430E0,5.879112886E0
1.494982918E0,3.338427067E0,1.969943523E0,-4.248147488E0,5.750872094E0
1.504977189E0,3.245682478E0,1.976677895E0,-3.612905502E0,5.243548075E0
1.514973804E0,3.143013954E0,1.884117126E0,-3.550242901E0,5.102220959E0
1.524973022E0,3.056179523E0,1.891589642E0,-3.473495483E0,4.998351281E0
1.534975887E0,2.958819389E0,1.899096012E0,-3.404074669E0,4.893761559E0
1.544982397E0,2.852395058E0,1.906633854E0,-3.336215973E0,4.785577001E0
1.554975106E0,2.231949091E0,1.914204597E0,-3.274655104E0,4.401038745E0
1.564976408E0,2.192211628E0,1.822446823E0,-3.204006672E0,4.288678468E0
1.575016408E0,2.146246910E0,1.830710888E0,-3.110898972E0,4.199472653E0
1.584978283E0,2.094910860E0,1.838997841E0,-2.988595486E0,4.086840778E0
1.594965106E0,2.034075499E0,1.847305775E0,-2.250857830E0,3.551951961E0
1.604975158E0,1.974783301E0,1.855635643E0,-2.173488140E0,3.473788051E0
1.614975106E0,8.556593060E-1,1.764606953E0,-2.060717583E0,2.844740322E0
1.624977449E0,8.901305199E-1,1.773590088E0,-9.228160977E-1,2.188502614E0
1.634977449E0,9.244242311E-1,1.782587051E0,-8.774000406E-1,2.191348349E0
1.644984481E0,9.585435987E-1,1.791595459E0,-8.322939277E-1,2.195753470E0
1.654975887E0,9.924917817E-1,1.800616264E0,-7.874921560E-1,2.201681804E0
1.664979012E0,8.672672510E-1,1.730193138E0,-9.020580649E-1,2.135282073E0
1.674974064E0,9.018668532E-1,1.739775658E0,-8.569267392E-1,2.138809621E0
1.684974585E0,9.362937212E-1,1.749361992E0,-8.120928407E-1,2.143923528E0
1.694982137E0,9.705507755E-1,1.758954048E0,-7.675511837E-1,2.150586657E0
1.704975366E0,8.058107495E-1,1.669136047E0,-2.089416027E0,2.793028006E0
1.714975106E0,8.408932090E-1,1.679314613E0,-2.165524960E0,2.866478207E0
1.724974845E0,8.758013844E-1,1.689492226E0,-2.254622698E0,2.950378883E0
1.734976929E0,9.105381966E-1,1.699666977E0,-2.835465908E0,3.428966981E0
1.745011564E0,9.451065063E-1,1.709840775E0,-2.794931412E0,3.410047416E0
1.754985210E0,7.806457281E-1,1.620580673E0,-2.713857889E0,3.255873787E0
1.765113179E0,8.160092831E-1,1.631311417E0,-2.597575188E0,3.174026614E0
1.774978804E0,8.512002826E-1,1.642034531E0,-1.942137837E0,2.681924440E0
1.784975626E0,8.862215281E-1,1.652749062E0,-1.918180466E0,2.682607753E0
1.794981356E0,9.210758209E-1,1.663456917E0,-1.930205345E0,2.709457927E0
1.804977710E0,7.568710446E-1,1.574708939E0,-1.929630399E0,2.603081923E0
1.814977710E0,7.924925685E-1,1.768293381E-1,-1.898582458E0,2.064928192E0
1.824975366E0,8.279434443E-1,3.024101257E-2,-1.870317221E0,2.045602936E0
1.834976147E0,9.030356407E-1,-9.272241592E-1,-1.846102238E0,2.254620030E0
1.844984481E0,7.390408516E-1,-1.022715569E0,-1.861321211E0,2.248698549E0
1.854975887E0,7.748748064E-1,-1.628076553E0,-1.858730316E0,2.589583483E0
1.864977449E0,8.105403781E-1,-1.655382156E0,-1.826006889E0,2.594526344E0
1.874983439E0,8.460401893E-1,-1.682973862E0,-1.796363115E0,2.602903276E0
1.884974845E0,8.813768029E-1,-1.730324268E0,-1.774303436E0,2.630399176E0
1.894980835E0,7.175999880E-1,-1.794850349E0,-1.758864403E0,2.613434810E0
1.904978491E0,7.536541224E-1,-1.859651566E0,-1.783365726E0,2.684528226E0
1.914973543E0,7.895419598E-1,-1.885615349E0,-1.901190996E0,2.791674937E0
1.925100314E0,8.252660036E-1,-1.794791222E0,-3.052367687E0,3.635833880E0
1.934966095E0,8.608286977E-1,-7.923908234E-1,-3.740458488E0,3.919175802E0
1.944962918E0,6.972530484E-1,5.022420883E-1,-3.877677441E0,3.971749144E0
1.954974376E0,7.335106134E-1,1.671131134E0,-4.756673813E0,5.094768184E0
1.964978491E0,7.696040273E-1,3.909559250E0,-4.781490326E0,6.224113883E0
1.974975366E0,2.097177029E0,5.637668610E0,-4.805079937E0,7.698717558E0
1.984976147E0,2.178874016E0,7.010571480E0,-4.778788090E0,8.759704336E0
1.994985262E0,2.273103714E0,7.871520042E0,-4.670043945E0,9.430648903E0
2.004975366E0,2.334262371E0,7.925006866E0,-3.661587238E0,9.036688318E0
2.014975626E0,2.332393646E0,7.726628304E0,-2.052147150E0,8.327794005E0
2.024975106E0,2.246487856E0,6.213507652E0,-1.894456148E0,6.873379746E0
2.034974845E0,6.195602417E-1,4.941990852E0,-4.604463577E-1,5.001913566E0
2.044993335E0,6.563739181E-1,3.731083870E0,-4.184152186E-1,3.811415073E0
2.054976929E0,6.930260062E-1,2.670440674E0,-3.765959144E-1,2.784486114E0
2.064978751E0,7.295187116E-1,2.502909660E0,-3.349854052E-1,2.628491876E0
2.074974585E0,-4.458556771E-1,1.425884247E0,-3.336703777E-1,1.530774017E0
2.084976147E0,-5.667094588E-1,1.339619637E0,-1.821992278E0,2.331393627E0
2.094982137E0,-5.948071480E-1,1.353775024E0,-1.944267750E0,2.442678743E0
2.104995262E0,-4.871135950E-1,1.370625496E0,-2.055464268E0,2.518099931E0
2.114980991E0,6.899160147E-1,1.386898994E0,-2.727245808E0,3.136453829E0
2.124972554E0,7.398468852E-1,-2.919101715E-2,-2.790741444E0,2.887293427E0
2.134985522E0,5.912649632E-1,-1.090326309E-1,-2.854764223E0,2.917389439E0
2.144983960E0,6.382002831E-1,-8.108043671E-1,-2.886640072E0,3.065516959E0
2.154977710E0,2.800124168E0,-9.653940201E-1,-2.870783329E0,4.124812468E0
2.164976668E0,2.925268650E0,-1.992853165E0,-2.839064121E0,4.537504325E0
2.174980574E0,2.959161043E0,-2.052186966E0,-2.836878538E0,4.584319498E0
2.184976147E0,2.033189297E0,-2.058248043E0,-2.911193132E0,4.104301302E0
2.194979533E0,1.866877913E0,-1.996862888E0,-2.927610397E0,4.005445940E0
2.204976929E0,6.444383264E-1,-1.920882702E0,-2.904020309E0,3.540963862E0
2.214976408E0,6.458770633E-1,-1.270844460E0,-2.858030081E0,3.193828230E0
2.224973543E0,-7.470520735E-1,-3.848147392E-1,-2.796105623E0,2.919653377E0
2.234974324E0,-2.016422987E0,1.394340515E0,-2.726832390E0,3.666846331E0
2.244980054E0,-3.089965820E0,1.405244827E0,-2.632083893E0,4.295400728E0
2.254975626E0,-3.264670610E0,2.728571892E0,-2.514229059E0,4.942117616E0
2.264974845E0,-3.943011761E0,3.387518883E0,-2.367807150E0,5.712191928E0
2.274999324E0,-3.912663221E0,3.520491600E0,-1.725153327E0,5.538858058E0
2.284977449E0,-3.884417057E0,4.380764008E0,-1.682628036E0,6.091881997E0
2.294995158E0,-3.714070797E0,4.424684525E0,-1.640612483E0,6.005311345E0
2.304973595E0,-2.253712893E0,4.352540016E0,-1.607971311E0,5.158429812E0
2.314979324E0,-9.299344420E-1,3.692022324E0,-1.580480695E0,4.122344737E0
2.324978022E0,8.126737475E-1,3.552774429E0,-1.584044456E0,3.973895017E0
2.334990470E0,9.379732013E-1,2.686952591E0,-1.632048607E0,3.280714954E0
2.344987345E0,1.057788253E0,2.613667488E0,-1.714475989E0,3.299939643E0
2.354985262E0,1.172346354E0,2.540217400E0,-1.802381873E0,3.328014547E0
2.364989168E0,1.096605420E0,2.482119560E0,-1.972088456E0,3.354488610E0
2.374985783E0,1.123844385E0,2.462869644E0,-2.032119274E0,3.385005440E0
2.384985522E0,1.149858952E0,2.425128937E0,-2.071363449E0,3.390276170E0
2.394986564E0,1.174866199E0,2.376107216E0,-2.083126068E0,3.371292082E0
2.404987085E0,1.200065613E0,2.317478180E0,-2.112895489E0,3.357854961E0
2.414987606E0,1.024761558E0,1.206354141E0,-2.097681999E0,2.627869162E0
2.424993595E0,1.048666239E0,1.220128059E0,-2.057996750E0,2.612233524E0
2.434988387E0,1.072994828E0,1.233890533E0,-2.025753260E0,2.603359372E0
2.444983699E0,1.097925305E0,-9.090518951E-2,-2.046044827E0,2.323790688E0
2.455012501E0,1.122602344E0,-2.222776413E-1,-2.121697903E0,2.410652476E0
2.464982137E0,9.472587705E-1,-9.732542038E-1,-2.215830803E0,2.598928447E0
2.474994376E0,9.737103581E-1,-1.059269428E0,-2.846417665E0,3.189397609E0
2.484974637E0,1.001121759E0,-1.676256657E0,-2.838021994E0,3.444771399E0
2.494974897E0,1.028971434E0,-1.714839935E0,-2.838650227E0,3.472375746E0
2.504988126E0,1.055539966E0,-1.718574047E0,-2.832713127E0,3.477344538E0
2.514989949E0,8.834313154E-1,-1.735845566E0,-2.793362856E0,3.405361473E0
2.524986043E0,9.130315781E-1,-1.769536018E0,-2.682507515E0,3.340768018E0
2.534987866E0,9.431877732E-1,-1.803148746E0,-2.540511847E0,3.255019051E0
2.544979272E0,1.013637424E0,-1.866020679E0,-2.346839905E0,3.164988395E0
2.554975106E0,8.437149525E-1,-1.885442257E0,-2.223842382E0,3.035164306E0
2.564979012E0,8.739832044E-1,-1.896454811E0,-2.101695299E0,2.962686386E0
2.574974845E0,9.056314230E-1,-1.841344833E0,-2.053763390E0,2.903215998E0
2.584974324E0,9.371089935E-1,-1.004384041E0,-2.055892944E0,2.472580912E0
2.594985783E0,9.686011076E-1,1.339313507E0,-2.133857250E0,2.699128663E0
2.604976147E0,7.995541096E-1,2.446183205E0,-2.847558737E0,3.838188349E0
2.614977970E0,8.313430548E-1,4.785223961E0,-2.895832777E0,5.654674801E0
2.624978751E0,8.627391458E-1,6.704235077E0,-2.967955351E0,7.382401084E0
2.635068856E0,8.933657408E-1,7.902185440E0,-3.012222290E0,8.503888534E0
2.644993647E0,9.240535498E-1,8.030940056E0,-3.625811577E0,8.859818437E0
2.654974272E0,7.552246451E-1,8.075138092E0,-3.584624052E0,8.867228939E0
2.664976199E0,7.864494920E-1,8.006900787E0,-3.581031799E0,8.806404020E0
2.674980314E0,8.175225258E-1,7.141786575E0,-3.569612980E0,8.025932681E0
2.684976668E0,8.485969901E-1,5.543670654E0,-3.548289061E0,6.636471686E0
2.694984481E0,8.800424933E-1,3.446849823E0,-3.495254278E0,4.987188683E0
2.704977970E0,7.126926780E-1,1.023072243E0,-3.400698900E0,3.622065802E0
2.714976929E0,7.460174561E-1,1.039744377E0,-3.302906036E0,3.542146058E0
2.724979793E0,8.195540905E-1,1.076341629E0,-3.173988104E0,3.450272553E0
2.734975887E0,8.532733321E-1,1.092903137E0,-2.279029608E0,2.667674755E0
2.744982397E0,2.098396063E0,1.009807587E0,-1.539986610E0,2.791869653E0
2.754976668E0,2.125110626E0,1.028044701E0,-7.356701493E-1,2.472687131E0
2.764977606E0,2.154051542E0,1.047712326E0,6.325463057E-1,2.477449090E0
2.774977189E0,2.208551884E0,1.067395210E0,7.134347558E-1,2.554608210E0
2.784976668E0,2.198808908E0,1.087254524E0,7.922869325E-1,2.577712474E0
2.794984481E0,2.137516260E0,1.005309105E0,6.432270408E-1,2.448134634E0
2.804975626E0,1.995506525E0,1.018270493E0,6.724669337E-1,2.339045289E0
2.814977554E0,6.638584733E-1,1.029536247E0,6.773147583E-1,1.399788641E0
2.825026668E0,6.700877547E-1,1.041210175E0,-7.560666203E-1,1.450783568E0
2.834973335E0,6.770981550E-1,1.053196907E0,-9.175366759E-1,1.552275487E0
2.844982189E0,4.858870506E-1,9.658584595E-1,-2.119102478E0,2.378983838E0
2.854977970E0,-6.987789869E-1,9.788188934E-1,-2.212711811E0,2.518426504E0
2.864979272E0,-7.654888034E-1,9.919881821E-1,-2.305905819E0,2.624350454E0
2.874981356E0,-8.247004151E-1,1.005440712E0,-2.325187206E0,2.664120370E0
2.884981876E0,-8.628299236E-1,1.021388054E0,-2.292883873E0,2.654246690E0
2.894984741E0,-9.600999355E-1,9.579744339E-1,-2.278921843E0,2.651978821E0
2.904978231E0,-1.015843153E0,9.771280289E-1,-2.235537767E0,2.642791253E0
2.914976408E0,-1.052178621E0,9.990081787E-1,-2.202968359E0,2.637833729E0
2.924978491E0,-1.699426889E0,1.021183014E0,-2.196299553E0,2.958817032E0
2.934977449E0,-1.678543091E0,9.439983368E-1,-2.207014322E0,2.929087228E0
2.944985001E0,-1.661642551E0,9.672727585E-1,-2.266794682E0,2.972377951E0
2.954978751E0,-1.629982471E0,9.908227921E-1,-2.350605726E0,3.027196714E0
2.964975106E0,-1.575312734E0,1.014706612E0,-2.347436428E0,3.003614073E0
2.974975887E0,-1.480348825E0,1.038990021E0,-2.346793652E0,2.962831982E0
2.984990158E0,-1.354772687E0,9.639902115E-1,-2.378385544E0,2.901965533E0
2.994987189E0,-1.167379141E0,9.919509888E-1,-2.409262180E0,2.855045547E0
3.005007137E0,-3.197599649E-1,1.020135880E0,-2.384706974E0,2.613379230E0
3.014974637E0,-1.682512760E-1,1.048667908E0,-2.201922178E0,2.444682833E0
3.024974897E0,4.014611244E-3,1.077278137E0,-2.098220348E0,2.358616741E0
3.034983960E0,1.335131168E0,1.006088257E0,-2.069499969E0,2.660379473E0
3.044986304E0,1.433752060E0,1.035019875E0,-2.118324995E0,2.759386145E0
3.054978751E0,1.501012802E0,1.059010506E0,-2.108356476E0,2.796374387E0
3.064976668E0,1.564197302E0,1.082342148E0,-2.053169489E0,2.798871679E0
3.074979272E0,1.462964416E0,1.025064468E0,-1.914533615E0,2.618484487E0
3.084983699E0,1.478555918E0,1.040349007E0,-1.941504955E0,2.652903155E0
3.094982397E0,1.494823813E0,1.055693626E0,-1.914243698E0,2.648266641E0
3.104978751E0,4.430038929E-1,1.070696831E0,-1.865539789E0,2.196106295E0
3.114976147E0,3.558658361E-1,1.085895538E0,-1.796476722E0,2.129116771E0
3.124977710E0,2.735911608E-1,1.001559258E0,-1.783163190E0,2.063405930E0
3.134977710E0,2.003437281E-1,1.017315865E0,-1.769671082E0,2.051049711E0
3.144981616E0,1.546399593E-1,1.033152580E0,-1.756124854E0,2.043353194E0
3.154976408E0,1.280287504E-1,1.048921585E0,-1.787495017E0,2.076479301E0
3.165077970E0,1.291848421E-1,1.064923286E0,-1.857343316E0,2.144871680E0
3.174982189E0,1.905268431E-1,9.861001968E-1,-1.927992344E0,2.173901689E0
3.184965574E0,2.626349926E-1,1.007498741E0,-1.968495488E0,2.226882426E0
3.194971668E0,3.322399855E-1,1.028754234E0,-1.997409940E0,2.271203459E0
3.204975366E0,3.998168707E-1,1.049998283E0,-2.035109043E0,2.324654543E0
3.214975106E0,1.543975234E0,1.071031570E0,-2.086258888E0,2.807747192E0
3.224979012E0,1.397977710E0,9.921789169E-1,-2.129439116E0,2.733728521E0
3.234978751E0,1.451265216E0,1.013619423E0,-2.123396397E0,2.764490427E0
3.244981616E0,1.503547072E0,1.035503387E0,-2.072763920E0,2.762113562E0
3.254979793E0,1.593510747E0,1.077147484E0,-1.946630955E0,2.736584601E0
3.264976929E0,1.410861492E0,9.938182831E-1,-1.884812355E0,2.555527840E0
3.274978491E0,1.429647088E0,2.224987984E0,-1.837806702E0,3.220558305E0
3.284979533E0,1.449185967E0,2.218778610E0,-1.812877893E0,3.210863551E0
3.294982397E0,1.470083475E0,2.188436508E0,-1.793110490E0,3.188360865E0
3.304979012E0,1.490210772E0,2.141551971E0,-1.802803159E0,3.171288732E0
3.314981095E0,1.313174605E0,2.061327934E0,-1.812734723E0,3.042943899E0
3.324979533E0,1.336891890E0,9.821519852E-1,-1.823745728E0,2.465350061E0
3.334977189E0,1.361112595E0,1.000374794E0,-1.821236849E0,2.484005009E0
3.345002866E0,1.386696100E0,1.018859863E0,-1.806265354E0,2.494713616E0
3.354989897E0,-4.138780832E-1,1.037336349E0,-1.786019802E0,2.106473001E0
3.364972710E0,-1.133937836E0,9.561052322E-1,-1.775817990E0,2.313759228E0
3.374974845E0,-1.808288693E0,2.059700966E0,-1.789020777E0,3.273052307E0
3.384982918E0,-1.948354363E0,2.930286407E0,-1.793775797E0,3.949720846E0
3.394980835E0,-2.754984856E0,3.058526993E0,-1.786331773E0,4.487260871E0
3.404979533E0,-2.796757221E0,4.026221275E0,-1.753052473E0,5.206294429E0
3.414974324E0,-2.757486343E0,4.143049240E0,-1.735630512E0,5.270768560E0
3.424978231E0,-2.605869770E0,4.860107422E0,-1.680972099E0,5.765142549E0
3.434982397E0,-2.432002306E0,4.900304794E0,-1.622107387E0,5.706036686E0
3.444982397E0,-2.244179964E0,4.931249619E0,-1.552632213E0,5.635976694E0
3.454980054E0,-1.442552328E0,4.959935188E0,-1.512905717E0,5.382452787E0
3.464976929E0,-1.266760468E0,4.950775146E0,-1.505014062E0,5.327281104E0
3.474974845E0,-1.060143471E0,4.872988701E0,-1.529707193E0,5.216313560E0
3.484976668E0,-4.956722260E-3,4.219438553E0,-1.544020295E0,4.493070770E0
3.494981876E0,2.174139023E-1,4.082648277E0,-1.544999361E0,4.370618810E0
3.504978231E0,2.095971584E0,3.097719193E0,-1.515161514E0,4.035427548E0
3.514975522E0,2.175457478E0,2.971168518E0,-1.466204882E0,3.963611277E0
3.524994741E0,2.248878717E0,2.206155777E0,-8.367192745E-1,3.259551801E0
3.534979012E0,2.316315889E0,2.146780968E0,-7.164945602E-1,3.238418175E0
3.544981929E0,2.353685379E0,2.102581978E0,1.661338806E-1,3.160425019E0
3.554983960E0,3.502849817E0,2.102689743E0,2.221646309E-1,4.091530046E0
3.564983960E0,3.485669374E0,2.133879662E0,2.553343773E-1,4.094939443E0
3.574988387E0,3.487711668E0,2.229611397E0,2.107392550E-1,4.144841456E0
3.584985001E0,3.507995367E0,3.036209106E0,4.663407803E-2,4.639695245E0
3.594988908E0,3.548881292E0,3.106860161E0,-6.630316973E-1,4.763060940E0
3.604989949E0,4.283744812E0,3.257453918E0,-6.568619013E-1,5.421525911E0
3.614986304E0,4.262161255E0,3.274149895E0,-6.399545670E-1,5.412542650E0
3.624990210E0,4.178600311E0,3.228693962E0,-6.052039862E-1,5.315208098E0
3.634988647E0,4.014290810E0,3.108656883E0,-5.619901419E-1,5.108239544E0
3.644997241E0,3.128810167E0,2.363145828E0,3.705227375E-2,3.921133017E0
3.654980835E0,1.544436812E0,2.217200279E0,1.071543694E-1,2.704208610E0
3.664983699E0,1.523949385E0,7.110967636E-1,1.310648918E-1,1.686789359E0
3.674988647E0,1.030603647E-1,7.165966034E-1,5.606353283E-2,7.261372119E-1
3.684987866E0,-9.337383509E-1,7.227706909E-1,-6.621527672E-2,1.182645020E0
3.695082085E0,-1.670430303E0,6.299295425E-1,-1.803661585E-1,1.794346838E0
3.704983231E0,-1.831897616E0,6.375656128E-1,-2.787765265E-1,1.959605863E0
3.714966460E0,-1.966368198E0,6.463718414E-1,-3.146147728E-1,2.093653005E0
3.724991512E0,-2.038175344E0,6.615953445E-1,-3.010636568E-1,2.163909994E0
3.734987085E0,-2.084444523E0,6.779212952E-1,-2.401740551E-1,2.205032841E0
3.744988126E0,-2.054940462E0,5.997276306E-1,-1.442157030E-1,2.145518982E0
3.754985001E0,-1.940876603E0,6.259288788E-1,9.558202624E-1,2.252194779E0
3.765003804E0,-1.774767518E0,-5.483255386E-1,9.682419300E-1,2.094744155E0
3.774990470E0,-1.578815222E0,-6.510906219E-1,9.788326025E-1,1.968423167E0
3.784987606E0,-7.101877928E-1,-1.483971119E0,8.285238147E-1,1.842006703E0
3.795028491E0,-5.233253241E-1,-1.586259842E0,8.373425007E-1,1.868483916E0
3.804989168E0,4.862405062E-1,-2.368088722E0,8.126206398E-1,2.550416893E0
3.814977970E0,6.841481924E-1,-2.425451279E0,7.862105370E-1,2.639886297E0
3.824978491E0,2.042767048E0,-2.526248455E0,7.652435303E-1,3.337727689E0
3.834974845E0,1.922665238E0,-3.467890263E0,5.454610586E-1,4.002553217E0
3.844978231E0,2.000543118E0,-3.617578983E0,5.297231674E-1,4.167692059E0
3.854976408E0,2.071138859E0,-4.876049995E0,5.122750401E-1,5.322396589E0
3.864984741E0,2.109169006E0,-5.647019386E0,4.965541065E-1,6.048469875E0
3.874981564E0,2.143848658E0,-6.378201485E0,4.840734005E-1,6.746248461E0
3.884993908E0,1.939371943E0,-6.520041466E0,2.733807564E-1,6.807851444E0
3.895012137E0,1.933088064E0,-7.385268688E0,2.616226375E-1,7.638551529E0
3.904975626E0,1.927817225E0,-7.430842400E0,2.539698780E-1,7.681041513E0
3.914979012E0,1.923693180E0,-7.429696560E0,1.709603190E0,7.862806718E0
3.924977710E0,5.312761068E-1,-7.338037491E0,1.806880355E0,7.575873886E0
3.934981356E0,3.336231709E-1,-6.477489471E0,2.779461622E0,7.056527558E0
3.944987345E0,-8.120154142E-1,-5.590900421E0,2.895021200E0,6.348124471E0
3.954978491E0,-1.923884630E0,-3.535644054E0,4.904023647E0,6.344411626E0
3.964975366E0,-2.039323807E0,-2.317082882E0,5.674616337E0,6.459797616E0
3.974975887E0,-2.151032209E0,-9.050836563E-1,6.390880585E0,6.803636575E0
3.984979533E0,-2.217671871E0,8.668270111E-1,6.959249496E0,7.355311764E0
3.994975106E0,-2.264147758E0,2.191627502E0,7.468057156E0,8.105644568E0
4.004975366E0,-2.260726929E0,3.479249001E0,7.373934269E0,8.461144512E0
4.014976408E0,-2.219966650E0,4.318610191E0,7.775097847E0,9.166831101E0
4.024976147E0,-2.090456963E0,4.474727631E0,7.441455841E0,8.931319204E0
4.034975626E0,-1.898775339E0,4.576349258E0,6.994049549E0,8.571175498E0
4.045095991E0,-9.467475414E-1,4.624819756E0,5.625283241E0,7.343643525E0
4.054964845E0,-7.960009575E-2,4.645950317E0,5.144534588E0,6.932346403E0
4.064996668E0,8.480989933E-1,4.710560799E0,3.718472481E0,6.060997651E0
4.074975939E0,2.229915380E0,5.519825935E0,3.302710295E0,6.808002369E0
4.084977970E0,2.271830082E0,7.275449753E0,1.506010771E0,7.769263123E0
4.094974845E0,2.308940411E0,9.391626358E0,6.114797592E-1,9.690601579E0
4.104974064E0,2.318794250E0,1.071776390E1,2.754104137E-1,1.096918961E1
4.114975106E0,2.270143986E0,1.076261902E1,-1.684880853E0,1.112772867E1
4.124977710E0,1.982213378E0,9.829731941E0,-3.777467728E0,1.071550570E1
4.134976929E0,1.935557365E0,5.611216545E0,-5.628738880E0,8.180148826E0
4.144978491E0,1.862204909E0,1.504269600E0,-6.890983105E0,7.294949095E0
4.154974064E0,1.799802423E0,-1.839445114E0,-8.299008369E0,8.688865691E0
4.164975626E0,1.544631243E0,-5.524068832E0,-1.019644356E1,1.169908900E1
4.174974845E0,1.500967622E0,-8.407801628E0,-1.175535583E1,1.453039651E1
4.184975887E0,1.467991352E0,-8.409914017E0,-1.169937134E1,1.448298802E1
4.194974845E0,2.813567638E0,-7.131334305E0,-1.154499912E1,1.385853876E1
4.204974324E0,2.848047733E0,-5.110018730E0,-1.067765903E1,1.217522360E1
4.214975106E0,2.847678185E0,-2.636547089E0,-9.567783356E0,1.032487917E1
4.224978022E0,2.713885784E0,3.600406647E-2,-9.262478828E0,9.651942105E0
4.235161876E0,1.246517420E0,2.604137421E0,-8.164411545E0,8.659847184E0
4.244974376E0,1.263404727E0,4.929944038E0,-7.178520203E0,8.799527943E0
4.254977189E0,-2.902172804E-1,6.626386642E0,-6.155838966E0,9.049175619E0
4.264975626E0,-1.200404882E0,7.638314247E0,-5.232099056E0,9.335934712E0
4.274976408E0,-2.106212139E0,7.647088051E0,-4.905213833E0,9.326049967E0
4.284975887E0,-2.985412598E0,7.503746033E0,-4.654446602E0,9.321092536E0
4.294974324E0,-3.167492390E0,6.342251778E0,-4.431130886E0,8.360148718E0
4.304975887E0,-3.219825506E0,3.359400749E0,-2.416117430E0,5.243135810E0
4.314972762E0,-2.393217087E0,6.623115540E-1,-8.713636994E-1,2.631619143E0
4.324976408E0,-1.233056664E0,6.791181564E-1,-7.198329568E-1,1.581072324E0
4.334976668E0,-1.120392084E-1,-1.314507008E0,-5.743240714E-1,1.438863995E0
4.344975366E0,1.436030030E0,-2.259126186E0,-4.357695580E-1,2.712144628E0
4.354976929E0,1.328801513E0,-2.406476974E0,-5.271390080E-1,2.799057060E0
4.364975366E0,1.418125510E0,-3.163606167E0,-4.587444961E-1,3.497131747E0
4.374976147E0,1.509639978E0,-3.124250889E0,-1.436214924E0,3.755352152E0
4.384973283E0,1.606673598E0,-3.003442287E0,-2.422202826E0,4.179609091E0
4.394972293E0,1.667646408E0,-2.092127800E0,-2.490329981E0,3.655104197E0
4.404965991E0,1.492979050E0,-1.358435154E0,-2.525214434E0,3.232806899E0
4.414986356E0,1.516230583E0,-6.396627426E-1,-2.486922503E0,2.982097775E0
4.424975939E0,1.539018750E0,7.607107162E-1,-2.399352312E0,2.950279821E0
4.434977449E0,1.560990810E0,7.765092850E-1,-1.756835222E0,2.475101812E0
4.444979793E0,1.583234191E0,7.908678055E-1,-1.645377874E0,2.416478996E0
4.454982397E0,1.408004642E0,7.056608200E-1,-1.517727137E0,2.187219679E0
4.464975106E0,1.430501461E0,7.203063965E-1,-1.432643890E0,2.148870459E0
4.474975366E0,1.449667096E0,7.346553802E-1,-1.390937090E0,2.139149178E0
4.484974585E0,1.509265304E0,7.691936493E-1,-1.419684887E0,2.210213973E0
4.494975626E0,1.329178333E0,-7.067737579E-1,-1.415745735E0,2.066538210E0
4.504977449E0,1.349320889E0,-7.762870789E-1,-1.383491755E0,2.082627649E0
4.514977449E0,-4.104218483E-1,-8.463449478E-1,-1.321949959E0,1.622435687E0
4.524975366E0,-5.509127378E-1,-9.071388245E-1,-1.254601359E0,1.643298592E0
4.534976668E0,-1.482371569E0,-9.696731567E-1,-1.191647768E0,2.134880770E0
4.544977710E0,-1.607851386E0,-1.058033943E0,-1.147919059E0,2.241057802E0
4.554974585E0,-2.371203423E0,-1.690319061E0,-1.121517897E0,3.120510630E0
4.564976408E0,-2.432998657E0,-1.714870453E0,-1.115564466E0,3.178796504E0
4.574997658E0,-2.457619429E0,-1.755342960E0,-1.111685872E0,3.218224300E0
4.584971772E0,-2.351174831E0,-1.776177883E0,-1.132950425E0,3.156961771E0
4.594961876E0,-2.189088821E0,-1.757543087E0,-1.177764297E0,3.044371250E0
4.604980835E0,-1.299538136E0,-1.689718246E0,-1.220040560E0,2.456103843E0
4.614976929E0,-1.076453209E0,-1.558944225E0,-1.253475428E0,2.271620403E0
4.624978231E0,-5.006849766E-2,-6.271018982E-1,-1.285025835E0,1.430753313E0
4.634977710E0,1.473319530E-1,-4.890861511E-1,-1.310357928E0,1.406396057E0
4.644979272E0,1.823032379E0,8.156442642E-1,-1.349261284E0,2.410234145E0
4.654976408E0,1.974287391E0,8.707704544E-1,-2.175770760E0,3.064315631E0
4.664974324E0,2.079369783E0,9.052658081E-1,-2.218049765E0,3.172227867E0
4.674977189E0,2.146414518E0,9.315700531E-1,-2.281891823E0,3.268325005E0
4.684977189E0,2.007261753E0,8.567724228E-1,-2.845346928E0,3.585966797E0
4.694977710E0,2.003011227E0,8.670072556E-1,-2.822952509E0,3.568307221E0
4.704975366E0,5.894895792E-1,8.778266907E-1,-2.797845840E0,2.990989637E0
4.714974585E0,4.335744381E-1,8.893079758E-1,-2.754117966E0,2.926434902E0
4.724975366E0,-4.262410402E-1,9.028196335E-1,-2.654906034E0,2.836422177E0
4.734977189E0,-5.537066460E-1,8.174190521E-1,-2.505838633E0,2.693323636E0
4.744983126E0,-7.026606798E-1,8.327884674E-1,-1.783167839E0,2.089726347E0
4.754998387E0,-1.343134642E0,8.486766815E-1,-1.628167391E0,2.274904795E0
4.764981095E0,-1.362934351E0,8.650703430E-1,-1.477793932E0,2.188563832E0
4.774974897E0,-1.319607377E0,8.911476135E-1,-1.346018672E0,2.085011742E0
4.784975626E0,-1.256310940E0,8.181438446E-1,-1.227157116E0,1.937418673E0
4.794976668E0,-1.164846063E0,8.507394791E-1,-1.132692814E0,1.834016636E0
4.804976408E0,-1.092393994E0,8.830490112E-1,-1.047634721E0,1.752323801E0
4.814985001E0,-1.050130606E0,9.150838852E-1,-9.582262039E-1,1.690665627E0
4.824995158E0,-1.016716719E0,-7.181863785E-1,-8.347066641E-1,1.498746068E0
4.834987345E0,-1.012651205E0,-2.702487469E0,1.040983081E0,3.067987411E0
4.844989949E0,-9.345407486E-1,-3.809851646E0,1.087354302E0,4.070709442E0
4.854987606E0,-7.680509090E-1,-4.800354004E0,1.130052567E0,4.991023899E0
4.864987606E0,3.654701710E-1,-5.536221504E0,1.168730855E0,5.670030758E0
4.874993074E0,2.279075861E0,-5.589756012E0,-8.063292503E-2,6.037057290E0
4.884988908E0,3.597401142E0,-5.422828674E0,-2.592744827E-1,6.512725164E0
4.894986564E0,4.992367744E0,-2.601914406E0,-1.358471513E0,5.791298570E0
4.904987345E0,5.717007637E0,1.128092766E0,-1.478519320E0,6.011887307E0
4.914987866E0,5.790942669E0,6.569134712E0,-1.452300429E0,8.876808233E0
4.925038179E0,5.817400932E0,1.077608967E1,-7.374105453E-1,1.226825320E1
4.934985054E0,5.745275021E0,1.376553345E1,1.004851341E0,1.495017800E1
4.944987814E0,5.576961517E0,1.575027752E1,1.050772905E0,1.674150129E1
4.954976408E0,4.370387554E0,1.732468224E1,3.017680645E0,1.812046629E1
4.964985262E0,2.213260889E0,1.806656837E1,3.768874645E0,1.858773339E1
4.974989168E0,1.891139507E0,1.729394531E1,4.578871250E0,1.798952515E1
4.984985783E0,1.764568686E0,1.504648876E1,5.356612682E0,1.606872198E1
4.994985522E0,1.648278594E0,1.248253441E1,5.247586727E0,1.364066179E1
5.004984220E0,2.410567999E-1,1.056700516E1,4.383235931E0,1.144257242E1
5.014990470E0,-1.115314960E0,9.624703407E0,3.269708633E0,1.022593945E1
5.024985262E0,-1.874424577E0,9.543401718E0,2.494970083E0,1.004066032E1
5.034986564E0,-2.061336279E0,9.427839279E0,2.301674843E0,9.921238220E0
5.044982918E0,-3.015815258E0,8.630307198E0,1.349974155E0,9.241199826E0
5.054984220E0,-3.134536266E0,8.466788292E0,-8.283238113E-2,9.028769727E0
5.064974324E0,-3.774484634E0,7.301090240E0,-3.408541679E-1,8.226106887E0
5.074978491E0,-3.807933807E0,6.414392471E0,-2.526400566E0,7.875753328E0
5.084975887E0,-3.740518808E0,5.423625946E0,-3.613178015E0,7.514136991E0
5.095004793E0,-3.511653185E0,4.303702354E0,-4.405657291E0,7.089667003E0
5.104973960E0,-1.889005423E0,2.982929230E0,-4.588227272E0,5.789476468E0
5.115086356E0,-4.320272207E-1,1.464211464E0,-5.391196251E0,5.603174078E0
5.124991304E0,1.603904009E0,3.362703323E-1,-5.474249840E0,5.714280105E0
5.134975418E0,2.973150253E0,-1.944954395E0,-5.558807373E0,6.597181932E0
5.144975887E0,4.795619488E0,-3.842310429E0,-5.568738937E0,8.292898712E0
5.154975626E0,6.581981659E0,-5.799464226E0,-5.488461494E0,1.034792141E1
5.164977189E0,7.999702454E0,-7.633559704E0,-5.358421326E0,1.228735741E1
5.174976408E0,8.871174812E0,-9.402916908E0,-5.210846901E0,1.393791643E1
5.184976147E0,8.990542412E0,-1.170646858E1,-5.074323654E0,1.560833175E1
5.194978751E0,8.891072273E0,-1.264797115E1,-4.888132095E0,1.621469012E1
5.204977970E0,8.658254623E0,-1.342764091E1,-4.122244358E0,1.650029734E1
5.214975106E0,8.278595924E0,-1.355906677E1,-3.866511345E0,1.635033187E1
5.224975106E0,6.730181694E0,-1.421818924E1,-2.675218821E0,1.595647350E1
5.234978751E0,5.806958675E0,-1.417529869E1,-1.448078632E0,1.538690332E1
5.244975106E0,5.445967674E0,-1.398903751E1,7.687525749E-1,1.503139099E1
5.254974324E0,4.505001545E0,-1.201304245E1,7.557662725E-1,1.285221422E1
5.264976408E0,3.368149042E0,-9.197617531E0,4.151020050E0,1.063821243E1
5.275107866E0,1.198238134E0,-4.133684158E0,6.352373123E0,7.673054388E0
5.284963595E0,-1.883867264E0,7.377223969E-1,8.264716148E0,8.508743927E0
5.294961408E0,-5.375145912E0,6.764321327E0,9.621216774E0,1.293120446E1
5.304972033E0,-8.072275162E0,1.062100220E1,1.097109413E1,1.727229633E1
5.314975887E0,-1.001262283E1,1.286974716E1,1.096424484E1,1.964936826E1
5.324976668E0,-1.157637215E1,1.375946140E1,1.079659367E1,2.097383143E1
5.334976668E0,-1.164671421E1,1.376054859E1,8.411000252E0,1.989330477E1
5.344978231E0,-1.150024605E1,1.352515507E1,5.938573360E0,1.872036678E1
5.354977710E0,-1.117024040E1,1.156839275E1,3.187729597E0,1.639401115E1
5.364974585E0,-6.620398521E0,7.261452675E0,-2.901839972E0,1.024592830E1
5.374974585E0,-3.136881113E0,7.090965271E0,-5.192987919E0,9.332145258E0
5.384976929E0,-5.740146339E-2,7.062626839E0,-6.689280033E0,9.727818879E0
5.394975366E0,1.674106836E0,7.114715576E0,-6.942936897E0,1.008098131E1
5.404974585E0,2.668431997E0,7.067391396E0,-7.053303719E0,1.033526215E1
5.414977189E0,3.024160385E0,5.459065437E0,-7.029046059E0,9.399703718E0
5.424974845E0,4.081249714E0,3.269314766E0,-6.284528732E0,8.175592924E0
5.434975366E0,4.250651360E0,4.986276627E-1,-6.020031929E0,7.386301575E0
5.444975887E0,4.230118752E0,-1.344369888E0,-4.754941463E0,6.504667814E0
5.454997501E0,3.390058994E0,-3.513746738E0,-4.620316029E0,6.722070836E0
5.464987606E0,2.008611202E0,-4.714542389E0,-4.615200996E0,6.896485274E0
5.474980106E0,6.757293940E-1,-4.737518311E0,-5.756866932E0,7.486134305E0
5.484976147E0,6.592522860E-1,-3.846850395E0,-6.552681446E0,7.626959137E0
5.494978231E0,4.468117952E-1,-2.055371284E0,-7.083338737E0,7.389037797E0
5.504975626E0,4.367942810E-1,3.979797363E-1,-6.896632671E0,6.921901424E0
5.514975626E0,4.287491441E-1,2.065182686E0,-5.845686913E0,6.214568435E0
5.524977970E0,4.286142290E-1,3.655778885E0,-4.489928722E0,5.805849580E0
5.534974585E0,3.091398478E-1,4.827356339E0,-1.903928041E0,5.198449639E0
5.544976147E0,3.500642180E-1,4.878982544E0,-7.217730284E-1,4.944489046E0
5.554977189E0,3.927787542E-1,4.767903328E0,6.891998053E-1,4.833443252E0
5.564976408E0,4.367495179E-1,3.445042610E0,8.016877770E-1,3.563954548E0
5.574976929E0,4.823240042E-1,1.965995789E0,9.048666954E-1,2.217331645E0
5.584976408E0,3.303093314E-1,3.503370285E-1,7.934144139E-1,9.280876684E-1
5.594975626E0,3.799755573E-1,-6.281280518E-1,8.432849646E-1,1.118058945E0
5.604975887E0,1.709009886E0,-1.536817551E0,-1.775718927E-1,2.305223362E0
5.614975626E0,1.809324980E0,-2.204760075E0,-2.861533761E-1,2.866445120E0
5.624989376E0,1.910868645E0,-2.309339523E0,-4.316878915E-1,3.028336581E0
5.634995210E0,2.000004292E0,-2.395034790E0,-1.350032806E0,3.399823141E0
5.644975783E0,2.041921854E0,-2.449103832E0,-1.459277153E0,3.506714167E0
5.654979429E0,2.014703274E0,-2.465616226E0,-2.138647079E0,3.835636060E0
5.664974845E0,1.856875420E0,-2.451029778E0,-2.251571417E0,3.811181856E0
5.674979272E0,4.562690258E-1,-2.388332844E0,-3.219217300E0,4.034312237E0
5.684977970E0,2.652537823E-1,-2.268761635E0,-3.353903770E0,4.057870060E0
5.694977189E0,2.743339241E-1,-1.427577972E0,-4.208107471E0,4.452123815E0
5.704976147E0,-1.166780233E0,-1.303206444E0,-4.165904045E0,4.518238557E0
5.714976147E0,-1.927829027E0,4.876909256E-1,-3.082772255E0,3.668494510E0
5.724974585E0,-1.983278513E0,4.133682251E-1,-2.223511934E0,3.008034619E0
5.734978491E0,-1.954322577E0,4.412784576E-1,-1.360116959E0,2.421574189E0
5.744976147E0,-1.872850418E0,4.692506790E-1,-5.038666725E-1,1.995406353E0
5.754974324E0,-1.768338203E0,4.975023270E-1,-2.925072908E-1,1.860131469E0
5.764973908E0,-1.615603685E0,5.269966125E-1,1.392057061E0,2.196752958E0
5.774974585E0,-1.474175453E0,2.230950356E0,1.282822609E0,2.965799488E0
5.784975106E0,-1.375220656E0,2.341302872E0,1.371357083E0,3.041965030E0
5.794974845E0,-1.363850594E0,3.000617981E0,1.431070566E0,3.593293708E0
5.805058439E0,-2.026937008E0,3.060451508E0,3.777931929E-1,3.690198472E0
5.814982710E0,-2.742242336E0,3.097487450E0,-2.526592016E-1,4.144654172E0
5.824963074E0,-3.507602692E0,3.100819588E0,-2.736352682E-1,4.689694555E0
5.834977762E0,-4.161634445E0,3.048396111E0,-2.850481272E-1,5.166543577E0
5.844974845E0,-4.216749191E0,2.934030533E0,-2.825313807E-1,5.144835555E0
5.854975366E0,-4.898393154E0,2.021884918E0,-2.767406702E-1,5.306492204E0
5.864975106E0,-4.831787109E0,1.876996994E0,-2.923549414E-1,5.191796972E0
5.874984220E0,-4.669545650E0,4.512681961E-1,-3.135726452E-1,4.701768536E0
5.884979012E0,-3.634748459E0,4.867105484E-1,-3.583388329E-1,3.684656054E0
5.894977710E0,-1.295288920E0,5.429868698E-1,-4.892697334E-1,1.487277042E0
5.904973283E0,8.835244179E-2,5.798625946E-1,-5.395299196E-1,7.969562828E-1
5.914973804E0,1.697550535E0,5.178985596E-1,-5.628376007E-1,1.861903032E0
5.924979272E0,1.841717124E0,1.800649643E0,-5.936932564E-1,2.643242854E0
5.934974845E0,3.789771557E0,3.446337700E0,-6.594171524E-1,5.164730678E0
5.944978491E0,4.648468018E0,5.210522652E0,-7.708693743E-1,7.025100768E0
5.954980054E0,4.823376656E0,6.984626770E0,-1.384606957E0,8.600413357E0
5.964974585E0,5.539825439E0,8.424139023E0,-1.370272636E0,1.017513790E1
5.974984481E0,5.496612549E0,9.336669922E0,-1.313754916E0,1.091384931E1
5.984974585E0,5.431883812E0,9.392299652E0,-1.268564582E0,1.092382308E1
5.995115262E0,5.272008896E0,9.310607910E0,-1.227565050E0,1.076979171E1
6.004974116E0,5.036061287E0,8.427143097E0,-1.104519606E0,9.879201264E0
6.014979012E0,4.213948250E0,7.147192001E0,-8.074796200E-2,8.297363050E0
6.024975106E0,3.926982880E0,5.727319717E0,4.713010788E-2,6.944465921E0
6.034977970E0,2.522068977E0,4.338987350E0,1.189735532E0,5.157820643E0
6.044975887E0,1.173642278E0,3.203929901E0,1.214429259E0,3.621800855E0
6.054974324E0,1.104212642E0,2.354262352E0,1.240097523E0,2.880916286E0
6.064985522E0,-1.289303780E0,1.361334801E0,1.088908315E0,2.168238454E0
6.074987085E0,-1.518699646E0,1.300293922E0,1.094945550E0,2.279499651E0
6.084986043E0,-2.373744965E0,1.239070892E0,1.074138522E0,2.885088456E0
6.094989168E0,-2.412684679E0,2.287635803E-1,1.059370875E0,2.644928503E0
6.104986043E0,-2.349232674E0,1.435565948E-1,8.495061994E-1,2.502231691E0
6.114986824E0,-2.208847523E0,1.591119766E-1,-1.281855106E-1,2.218277603E0
6.124989949E0,-1.109889746E0,1.785039902E-1,-3.027081490E-1,1.164195493E0
6.134986304E0,-9.304741621E-1,1.996107101E-1,-1.259786367E0,1.578824972E0
6.144986043E0,-1.016889811E-1,-1.005260468E0,-1.427897930E0,1.749223186E0
6.154973856E0,8.740057349E-1,-1.825642586E0,-2.402971506E0,3.141835281E0
6.164966668E0,9.627580047E-1,-2.818280697E0,-2.557524681E0,3.925626263E0
6.174983804E0,1.049166441E0,-3.915287018E0,-3.374761343E0,5.274394446E0
6.184973074E0,1.133527160E0,-5.002099991E0,-3.433129787E0,6.171893411E0
6.194985783E0,1.211856604E0,-6.083842278E0,-3.486018896E0,7.115761451E0
6.204988908E0,2.167938709E0,-7.045412064E0,-3.491383314E0,8.156442045E0
6.214985783E0,2.263373852E0,-7.830628872E0,-3.456358194E0,8.853701017E0
6.224984220E0,3.096593380E0,-7.972035885E0,-3.325964928E0,9.176289523E0
6.234987345E0,3.209157944E0,-9.415279388E0,-3.087257624E0,1.041524557E1
6.244984741E0,4.166877747E0,-9.503096581E0,-1.795547247E0,1.053070295E1
6.254989168E0,4.758322716E0,-9.432732582E0,-3.511055708E-1,1.057077831E1
6.264987085E0,4.741613388E0,-9.360477448E0,1.252106905E0,1.056736520E1
6.274988387E0,4.661674500E0,-9.288872719E0,2.625249386E0,1.071943561E1
6.284983439E0,4.542792797E0,-7.673443317E0,4.358955860E0,9.925683600E0
6.294982397E0,4.255760193E0,-5.558775902E0,5.594144344E0,8.961357893E0
6.304985262E0,2.311125517E0,-2.242145538E0,6.496078014E0,7.250348084E0
6.314984481E0,2.824866176E-1,1.955929756E0,7.670050621E0,7.920551523E0
6.324979012E0,-2.070394516E0,5.898357391E0,8.846099854E0,1.083192670E1
6.334998022E0,-3.702600479E0,8.688380241E0,9.664836884E0,1.351318887E1
6.344971668E0,-4.790278912E0,1.015223789E1,9.580305099E0,1.475794539E1
6.354973335E0,-5.080845833E0,1.022655392E1,9.338202477E0,1.475125164E1
6.364979793E0,-6.196289062E0,1.018071461E1,8.940104485E0,1.489853739E1
6.374974897E0,-6.274249077E0,8.967845917E0,8.458356857E0,1.383229058E1
6.384975887E0,-6.049764156E0,6.457417488E0,7.150841236E0,1.137683688E1
6.394980054E0,-4.136233807E0,3.486124992E0,5.519539833E0,7.728312722E0
6.404974845E0,-2.577327728E0,2.606763840E-1,3.529835701E0,4.378391311E0
6.414973022E0,-1.341179371E0,3.335895538E-1,-1.159369826E0,1.803935279E0
6.424975887E0,2.639330626E-1,1.947244644E0,-3.579649448E0,4.083541666E0
6.434975366E0,2.111250013E-1,3.432604790E0,-5.234885693E0,6.263495639E0
6.444977449E0,2.145537615E0,4.605199814E0,-6.312517643E0,8.103028815E0
6.454977449E0,2.375295162E0,4.780101776E0,-6.621033669E0,8.504674417E0
6.464975626E0,3.093194485E0,4.817546844E0,-7.600834370E0,9.515739216E0
6.474971460E0,3.153601885E0,4.638225555E0,-7.648077965E0,9.484273178E0
6.484973804E0,3.136327982E0,2.838540077E0,-7.543274403E0,8.648401684E0
6.494974064E0,3.066224575E0,3.820133209E-1,-7.280371666E0,7.908949293E0
6.505002918E0,2.880041361E0,3.630199432E-1,-6.984371185E0,7.563587943E0
6.514981616E0,1.635369658E0,-1.709955215E0,-6.847280502E0,7.244558719E0
6.525030001E0,3.457742929E-1,-2.470059395E0,-7.490151882E0,7.894499889E0
6.534973074E0,1.204239428E-1,-2.504987717E0,-7.396331787E0,7.809941696E0
6.544981616E0,9.848602861E-2,-2.414342880E0,-7.262506962E0,7.653937445E0
6.554978231E0,7.995096594E-2,-1.220039368E0,-7.080667019E0,7.185452919E0
6.564977970E0,6.182787195E-2,2.653274536E-1,-6.779113293E0,6.784585351E0
6.574977189E0,4.587601125E-2,2.791166306E-1,-5.625819683E0,5.632926221E0
6.584985783E0,-1.026573107E-1,1.681442261E0,-4.317740917E0,4.634724720E0
6.594978751E0,-1.149384025E-2,1.787837982E0,-2.025026560E0,2.701338432E0
6.604980835E0,4.071754590E-2,1.728927612E0,-1.698163271E0,2.423758879E0
6.614977449E0,9.289158136E-2,2.781400681E-1,-8.204439878E-1,8.712744003E-1
6.624974585E0,-5.484707654E-2,2.071352005E-1,-6.770402193E-1,7.101384736E-1
6.634975887E0,1.066592574E0,2.351474762E-1,-6.501129866E-1,1.271047186E0
6.644976668E0,1.204947591E0,-7.384109497E-1,-1.386581898E0,1.979838071E0
6.654980574E0,2.060924292E0,-1.543058395E0,-1.501623392E0,2.980488376E0
6.664975887E0,2.142834187E0,-1.561937332E0,-2.433513641E0,3.599079775E0
6.674974845E0,2.194342136E0,-1.567711830E0,-2.442244530E0,3.638326007E0
6.685075262E0,2.192181587E0,-1.566856384E0,-2.406288624E0,3.612606259E0
6.694982449E0,2.064299822E0,-1.550652504E0,-2.345630646E0,3.488243121E0
6.704963387E0,1.101489186E0,-1.530649662E0,-2.298664093E0,2.973217689E0
6.714974116E0,9.099033475E-2,-1.531036377E0,-2.286567211E0,2.753314591E0
6.724977710E0,-9.010230750E-2,-1.548630714E0,-2.266544819E0,2.746561656E0
6.734978491E0,-1.821281433E0,-1.567831039E0,-2.203378677E0,3.260373878E0
6.744979793E0,-2.664442062E0,-1.557786465E0,-2.119400978E0,3.744036682E0
6.754978491E0,-2.809644461E0,-1.502456188E0,-2.011484861E0,3.767963368E0
6.764974064E0,-2.917987108E0,-1.393135071E0,-1.894284844E0,3.747504391E0
6.774975887E0,-2.922888279E0,3.724317551E-1,-1.676172972E0,3.389916980E0
6.784975626E0,-2.805371761E0,4.036369324E-1,-8.691037893E-1,2.964519335E0
6.794975626E0,-2.042904377E0,4.353570938E-1,-6.939481497E-1,2.201035694E0
6.804977710E0,-1.818367720E0,1.553570747E0,1.491855383E-1,2.396309570E0
6.814974585E0,-8.668100834E-1,1.636896133E0,2.989246845E-1,1.876204850E0
6.824974585E0,-6.692693830E-1,1.729806900E0,4.271664619E-1,1.903319365E0
6.834977449E0,4.824723303E-1,1.825094223E0,5.368256569E-1,1.962633501E0
6.844977189E0,6.091064811E-1,1.918553352E0,5.981409550E-1,2.099911968E0
6.854978491E0,7.314698696E-1,2.524724960E0,6.136227846E-1,2.699225299E0
6.864987293E0,-3.403912187E-1,2.525927544E0,5.251879692E-1,2.602306389E0
6.874989012E0,-1.087539434E0,2.520856857E0,3.932051659E-1,2.773458422E0
6.884972554E0,-1.168151140E0,2.540405273E0,-3.082103729E-1,2.813046333E0
6.894978751E0,-2.132536411E0,2.566768646E0,-4.044557810E-1,3.361487365E0
6.904977241E0,-2.222082615E0,2.584333420E0,-4.916427135E-1,3.443565439E0
6.914980835E0,-3.118109465E0,2.578642845E0,-5.748747587E-1,4.086867571E0
6.924982137E0,-3.152487993E0,2.534026146E0,-6.353771687E-1,4.094285432E0
6.934976668E0,-3.173129082E0,2.455495834E0,-6.316097975E-1,4.061667010E0
6.944978751E0,-3.177534819E0,2.285124779E0,1.257449389E-1,3.915907886E0
6.954980054E0,-3.060404539E0,1.667055130E0,1.972122192E-1,3.490564626E0
6.964975887E0,-2.891966343E0,1.606648445E0,2.439935207E-1,3.317276201E0
6.974976929E0,-2.065369606E0,1.496526718E0,2.629505396E-1,2.564076211E0
6.984976147E0,-1.802646041E0,4.569835663E-1,2.589373589E-1,1.877608927E0
6.994977189E0,-5.965703726E-1,4.926681519E-1,2.448191643E-1,8.115137340E-1
7.005004793E0,2.391839027E-1,4.253339767E-1,2.113677263E-1,5.317840227E-1
7.014973543E0,1.890230060E0,4.578628540E-1,2.017930746E-1,1.955333352E0
7.024975106E0,2.016648769E0,4.915399551E-1,2.077467442E-1,2.086059083E0
7.035005106E0,2.119124413E0,1.662446976E0,1.961922646E-1,2.700538766E0
7.044987137E0,3.134996414E0,3.016184807E0,1.354399920E-1,4.352461062E0
7.055015731E0,4.184835434E0,4.721599579E0,-5.221843719E-3,6.309229546E0
7.064977241E0,4.280961037E0,6.344466209E0,-7.728116512E-1,7.692601428E0
7.074975626E0,4.987973213E0,7.563446045E0,-7.814666033E-1,9.093749661E0
7.084979272E0,4.978028297E0,8.311644554E0,-6.924198866E-1,9.713065748E0
7.094979272E0,4.922311306E0,8.316107750E0,-6.155401468E-1,9.683268373E0
7.105006876E0,4.706684113E0,8.181363106E0,-5.924406052E-1,9.457196386E0
7.114974324E0,3.784187794E0,6.960947990E0,-6.539889574E-1,7.950004764E0
7.124971720E0,1.521963716E0,3.954640388E0,2.269647121E-1,4.243473475E0
7.134972501E0,3.983640671E-2,2.471380234E0,1.413956046E0,2.847556654E0
7.144976668E0,-1.276793122E0,1.447224617E0,1.238690972E0,2.293254258E0
7.154978231E0,-2.197331905E0,1.517972946E-1,1.263621926E0,2.539301143E0
7.164975626E0,-2.409238577E0,1.583986282E-1,1.289010167E0,2.736981523E0
7.174974585E0,-2.580272198E0,1.666698456E-1,1.314734697E0,2.900708668E0
7.184975106E0,-2.630389690E0,1.760730743E-1,1.316385031E0,2.946662722E0
7.194976668E0,-2.516612530E0,8.696079254E-2,1.094508171E0,2.745696440E0
7.204999845E0,-1.349049807E0,1.033306122E-1,1.080447912E0,1.731467669E0
7.215091564E0,-3.832958341E-1,1.236209869E-1,-5.303894281E-1,6.659660579E-1
7.224991304E0,1.089746237E0,-1.078825951E0,-7.087773085E-1,1.689312749E0
7.234961043E0,1.183598161E0,-1.195110321E0,-1.574649930E0,2.304065035E0
7.244975158E0,1.075853586E0,-2.146839142E0,-1.702942014E0,2.943873425E0
7.254977710E0,1.165257692E0,-2.296710014E0,-2.410440922E0,3.527453446E0
7.264979012E0,1.252535343E0,-3.408520699E0,-2.485633373E0,4.400594438E0
7.274978491E0,1.307781100E0,-3.560571671E0,-2.560649872E0,4.576558728E0
7.284975626E0,1.319011331E0,-4.604935646E0,-2.584667206E0,5.442952118E0
7.294980574E0,1.133298516E0,-4.708055496E0,-2.545731544E0,5.470914108E0
7.305003491E0,2.519500256E0,-5.489981174E0,-2.418905973E0,6.506833404E0
7.314975366E0,2.607477188E0,-5.581225395E0,-2.253896952E0,6.559654386E0
7.324988908E0,3.408974648E0,-6.325533390E0,-1.473456383E0,7.335158794E0
7.334989689E0,3.444028854E0,-6.377533913E0,-1.305200338E0,7.364633153E0
7.344985783E0,3.477577448E0,-6.457754135E0,-4.254267216E-1,7.346912363E0
7.354985783E0,3.474818468E0,-7.089516640E0,1.348692536E0,8.009655494E0
7.364989168E0,3.446114063E0,-7.100240707E0,1.466998696E0,8.027527977E0
7.374985262E0,3.367036343E0,-7.052290916E0,2.812543869E0,8.305548984E0
7.384988387E0,3.205344677E0,-6.194068909E0,4.182650566E0,8.132360660E0
7.394999585E0,2.404824495E0,-4.318992615E0,5.185513020E0,7.164246181E0
7.404989637E0,4.892159104E-1,-1.364839554E0,6.265567303E0,6.431131536E0
7.414973335E0,-8.982783556E-1,2.232842445E0,7.466950417E0,7.845243012E0
7.424979064E0,-2.664319277E0,5.448798180E0,8.466557503E0,1.041492174E1
7.434974116E0,-3.992499828E0,7.699632645E0,8.506876945E0,1.214871817E1
7.444988647E0,-4.945061207E0,8.896630287E0,9.016461372E0,1.359780263E1
7.454983439E0,-5.208237648E0,8.926529884E0,8.717325211E0,1.352037107E1
7.464987866E0,-6.281598568E0,8.712775230E0,7.636355400E0,1.317895506E1
7.474990991E0,-6.047762394E0,3.057140350E0,5.524094582E0,8.742834669E0
7.484985001E0,-3.802575827E0,1.268310547E-1,3.274977922E0,5.020074643E0
7.494987345E0,-2.081067085E0,-2.255821228E0,8.468046784E-1,3.183810263E0
7.505028751E0,-1.031918526E0,-2.279215336E0,-7.988659739E-1,2.626378730E0
7.514987606E0,-7.367205620E-1,-1.035370827E0,-4.354310513E0,4.535942016E0
7.524983439E0,6.777320504E-1,1.613252640E0,-6.842840195E0,7.063028157E0
7.534985262E0,2.131293058E0,4.521813393E0,-8.372449875E0,9.751262655E0
7.544986043E0,3.113354206E0,6.940181732E0,-8.564378738E0,1.145459210E1
7.554986304E0,3.153936863E0,8.606914520E0,-8.467863083E0,1.247922275E1
7.565021199E0,2.998724461E0,8.724811554E0,-7.069313049E0,1.162281687E1
7.574974168E0,2.123137474E0,8.542078972E0,-5.875624657E0,1.058290088E1
7.584994168E0,2.099106789E0,6.348970413E0,-4.529923439E0,8.076873218E0
7.594977501E0,2.059853077E0,3.672542572E0,-3.115820408E0,5.238215388E0
7.605002710E0,1.952145100E0,1.839399338E-1,-1.083054662E0,2.240024953E0
7.614975366E0,8.322201967E-1,-2.358866215E0,-9.003723860E-1,2.658479022E0
7.624975887E0,6.099261045E-1,-4.260117531E0,-2.377742290E0,4.916733634E0
7.634976147E0,5.908543468E-1,-4.973649979E0,-3.692036390E0,6.222333620E0
7.644980574E0,2.274102449E0,-4.885238171E0,-4.971857071E0,7.331879477E0
7.654988647E0,2.369702339E0,-2.126221657E0,-6.049913406E0,6.836502025E0
7.664977970E0,2.246706247E0,9.012794495E-2,-5.952435970E0,6.362963617E0
7.674977710E0,2.024544716E0,1.042652130E-1,-5.840538025E0,6.182356910E0
7.684975366E0,3.048918843E-1,1.221874237E0,-5.731101036E0,5.867832206E0
7.694975106E0,3.022889495E-1,1.307287216E0,-5.565607071E0,5.725064239E0
7.704998022E0,3.008061051E-1,1.290247917E0,-5.266616344E0,5.430697167E0
7.714975626E0,-1.253852010E0,1.161169052E0,-3.901089430E0,4.258985462E0
7.724974585E0,-1.311105728E0,9.840488434E-2,-3.559601068E0,3.794659605E0
7.734975626E0,-1.296991467E0,1.284704208E-1,-2.664282560E0,2.965989393E0
7.744973908E0,-1.171508312E0,1.607685089E-1,-2.522169352E0,2.785608816E0
7.754969637E0,2.751589417E-1,-1.442345619E0,-2.344478607E0,2.766342941E0
7.764977449E0,1.171327829E-1,-1.396043777E0,-2.082361698E0,2.509758666E0
7.774974376E0,1.606856108E0,-1.288615227E0,-1.117439866E0,2.343328318E0
7.784974116E0,1.733188152E0,2.067823410E-1,-9.525506496E-1,1.988480035E0
7.794976147E0,2.368699789E0,2.351360321E-1,-8.644450903E-1,2.532448017E0
7.804998543E0,2.363691330E0,2.634248734E-1,-8.214496374E-1,2.516189356E0
7.814974845E0,2.265248060E0,1.913671494E-1,-8.063273430E-1,2.412080833E0
7.824974585E0,1.353063822E0,2.137889862E-1,-8.461217880E-1,1.610096120E0
7.834974585E0,1.478054374E-1,2.562217712E-1,-1.600314379E0,1.627421935E0
7.844975626E0,-1.191844940E0,2.786788940E-1,-1.637146711E0,2.044114880E0
7.854976408E0,-1.387699366E0,2.014169693E-1,-1.647148490E0,2.163186648E0
7.864975626E0,-2.339702129E0,2.241973877E-1,-1.618942142E0,2.854022456E0
7.874982397E0,-2.418641567E0,2.469558716E-1,-1.533211708E0,2.874291630E0
7.884975106E0,-2.465105057E0,2.696943283E-1,-1.397274852E0,2.846375763E0
7.894978231E0,-2.425525427E0,2.927818298E-1,-4.952460527E-1,2.492822386E0
7.904998804E0,-2.353276730E0,2.160081863E-1,-3.419898748E-1,2.387787255E0
7.914974324E0,-2.212378979E0,2.393112183E-1,5.315884352E-1,2.287897915E0
7.924996512E0,-2.062361240E0,2.629985809E-1,6.361482143E-1,2.174209440E0
7.934994481E0,-1.917966247E0,2.875051498E-1,7.334382534E-1,2.073447710E0
7.944973335E0,-1.812971115E0,1.940139771E0,8.047181368E-1,2.774631124E0
7.954974116E0,-1.761309028E0,2.081496239E0,8.191884756E-1,2.847087256E0
7.964975106E0,-1.763651133E0,2.984745026E0,7.930790186E-1,3.556422713E0
7.974977449E0,-2.364879131E0,3.060753822E0,7.051988840E-1,3.931688280E0
7.984972762E0,-2.373804092E0,3.116827965E0,5.793206692E-1,3.960451347E0
7.994975106E0,-2.928401470E0,3.128941536E0,4.348870516E-1,4.307544202E0
8.004999585E0,-2.939313173E0,2.977612495E0,-3.481318951E-1,4.198444226E0
8.014975887E0,-2.887825489E0,2.317866325E0,-4.325417280E-1,3.728154061E0
8.024975106E0,-2.832450390E0,2.213935852E0,-4.750311375E-1,3.626284841E0
8.034976408E0,-2.733053923E0,1.528727531E0,-4.814784527E-1,3.168345485E0
8.044974324E0,-2.592396736E0,1.430201530E0,-4.754865170E-1,2.998680490E0
8.054976929E0,-2.382032871E0,1.996021271E-1,-4.700905085E-1,2.436166393E0
8.064974064E0,-1.422978163E0,2.302112579E-1,-4.642944336E-1,1.514408596E0
8.074976408E0,-1.190743446E0,2.609634399E-1,-4.697074890E-1,1.306367864E0
8.084974064E0,1.671123505E-2,2.926931381E-1,-4.421422482E-1,5.305075929E-1
8.094977554E0,1.535047293E0,2.248058319E-1,-3.592032194E-1,1.592461869E0
8.105006772E0,1.650723934E0,2.579450607E-1,-2.587798834E-1,1.690678026E0
8.115001304E0,2.985449791E0,2.909040451E-1,-1.753792763E-1,3.004711884E0
8.124974376E0,3.876446962E0,2.595713615E0,-1.116031408E-1,4.666586063E0
8.134974324E0,4.624281883E0,4.139833450E0,-6.087136269E-2,6.206924299E0
8.144975366E0,4.763325214E0,5.664307594E0,-2.566337585E-2,7.400966574E0
8.154976408E0,5.605924129E0,6.780193329E0,4.383099079E-2,8.797688792E0
8.164975626E0,5.543728352E0,7.433288574E0,1.441196203E-1,9.274021432E0
8.174977970E0,5.411283016E0,7.459073067E0,1.490998387E0,9.335032463E0
8.184979012E0,4.429357052E0,7.234942436E0,1.347119570E0,8.589431127E0
8.194974324E0,3.502600193E0,5.480151176E0,1.354368806E0,6.643386177E0
8.205000887E0,2.441008329E0,3.943230629E0,1.360735893E0,4.833134762E0
8.214974064E0,9.226923585E-1,2.459834099E0,1.365500093E0,2.960867353E0
8.224981616E0,8.353013396E-1,1.353453636E0,1.331325769E0,2.074124726E0
8.234975366E0,-9.298092723E-1,1.198169708E0,1.100160718E0,1.873635380E0
8.244978751E0,-1.782956362E0,-4.044723511E-2,1.072672606E0,2.081152538E0
8.254975887E0,-2.005569458E0,-3.224945068E-2,1.048692346E0,2.263427603E0
8.264976408E0,-2.181482315E0,-2.153110504E-2,1.026458144E0,2.411004977E0
8.275054376E0,-2.262030602E0,-8.070945740E-3,1.012684107E0,2.478381868E0
8.284982189E0,-2.234057188E0,-9.206962585E-2,8.052235842E-1,2.376525480E0
8.294964116E0,-2.144445181E0,-7.531070709E-2,-7.603079081E-1,2.276485219E0
8.305000158E0,-1.980070710E0,-5.654621124E-2,-8.802721500E-1,2.167661539E0
8.314978751E0,-1.180181026E0,-3.711700439E-2,-1.019943953E0,1.560285421E0
8.324974324E0,-1.053279161E0,-1.246018410E0,-1.729157805E0,2.377382087E0
8.334979793E0,-8.986154199E-1,-2.027664661E0,-1.801016808E0,2.857025585E0
8.344984741E0,5.464839339E-1,-2.864823341E0,-1.870629549E0,3.464839445E0
8.354980835E0,6.285614371E-1,-3.646901131E0,-1.870678306E0,4.146614843E0
8.364978751E0,7.487124205E-1,-4.461453915E0,-1.860007524E0,4.891295259E0
8.374974845E0,1.887180567E0,-5.447502136E0,-1.827442884E0,6.047832464E0
8.384975887E0,2.082035542E0,-5.523115158E0,-1.765186071E0,6.160807976E0
8.394980835E0,3.221868515E0,-5.619122028E0,-1.683246732E0,6.692405297E0
8.404997501E0,3.336087465E0,-6.355400085E0,-1.562281609E0,7.345836484E0
8.414976147E0,4.055158615E0,-6.378903389E0,-1.403200150E0,7.687892461E0
8.424972762E0,4.080276012E0,-6.420803070E0,-6.442739964E-1,7.634818491E0
8.434975106E0,4.068099976E0,-6.466610909E0,-4.918841124E-1,7.655615196E0
8.444992554E0,4.024152279E0,-6.512898445E0,1.167048573E0,7.744265626E0
8.454976668E0,3.912183523E0,-6.576219559E0,1.267318726E0,7.756154998E0
8.465136772E0,3.744394302E0,-6.622894287E0,1.365467906E0,7.729664937E0
8.474980626E0,3.474445581E0,-6.620277882E0,2.836548567E0,7.996615478E0
8.484980574E0,2.305188179E0,-6.523381233E0,3.880443096E0,7.932605743E0
8.494978231E0,1.330820560E0,-5.229689598E0,4.803021431E0,7.224247471E0
8.504999585E0,-3.070785105E-1,-3.062417984E0,5.481945992E0,6.286846028E0
8.514976668E0,-1.905489445E0,2.946386337E-1,6.185733795E0,6.479275001E0
8.524975887E0,-3.813504696E0,3.148586273E0,7.153444290E0,8.696446332E0
8.534981876E0,-6.569693565E0,7.985198975E0,9.171558380E0,1.382178568E1
8.544976668E0,-7.480415344E0,9.200912476E0,9.052302361E0,1.491836392E1
8.554975366E0,-7.647535801E0,9.296890259E0,8.812428474E0,1.491897677E1
8.564975887E0,-8.195397377E0,9.187413216E0,8.478825569E0,1.494869836E1
8.574988908E0,-7.954936504E0,7.486153603E0,8.058476448E0,1.357433436E1
8.584986824E0,-6.460183620E0,4.997067451E0,6.821351051E0,1.064121636E1
8.594989429E0,-4.944313049E0,2.471577644E0,5.178174973E0,7.574194586E0
8.605017814E0,-3.707355738E0,1.417627335E-1,3.184312105E0,4.889215358E0
8.614987085E0,-2.603961468E0,9.918403625E-2,1.050697565E0,2.809700726E0
8.624970574E0,-1.557860136E0,1.629590988E-1,-1.676633239E0,2.294467888E0
8.634994064E0,-4.712442756E-1,2.305068970E-1,-3.350876331E0,3.391692319E0
8.644968126E0,7.924085259E-1,2.070939064E0,-5.350213528E0,5.791501072E0
8.654979064E0,9.662598372E-1,3.249238014E0,-6.972993374E0,7.753311701E0
8.664983699E0,2.730675697E0,4.296449661E0,-8.182142258E0,9.636572076E0
8.674984220E0,2.918076038E0,4.418765068E0,-8.368888855E0,9.903481871E0
8.684988387E0,3.683623314E0,4.389430046E0,-8.939656258E0,1.061855126E1
8.694989429E0,3.657974243E0,3.656304359E0,-8.772140503E0,1.018330919E1
8.705018856E0,3.609217644E0,2.374722481E0,-7.794838905E0,8.912085750E0
8.714989168E0,3.327137470E0,1.863355637E-1,-6.486468315E0,7.292382045E0
8.724986564E0,2.328639746E0,-1.793690205E0,-6.223260403E0,6.882503734E0
8.734988647E0,2.156283379E0,-2.815793037E0,-6.025689602E0,6.991937043E0
8.744986824E0,2.032278299E0,-2.942937851E0,-5.905961990E0,6.904449675E0
8.754987345E0,1.975041747E0,-2.928162098E0,-6.508041382E0,7.404696199E0
8.764997866E0,1.956721306E0,-2.196702003E0,-6.331929207E0,6.981947110E0
8.774987866E0,1.978999853E0,-9.986934662E-1,-6.045228481E0,6.438836576E0
8.784987085E0,1.995685577E0,8.325767517E-2,-4.984046936E0,5.369396300E0
8.794986043E0,1.992725611E0,1.007881165E-1,-4.084587574E0,4.545873871E0
8.805021772E0,1.929832578E0,2.238273621E-2,-3.746867657E0,4.214709006E0
8.814980106E0,1.819660068E0,1.750102997E0,-2.386607885E0,3.474179106E0
8.824976929E0,1.694480777E0,1.706771851E0,-2.105237961E0,3.196304448E0
8.834976304E0,1.562135696E0,9.512519836E-2,-1.855739832E0,2.427568137E0
8.844983179E0,1.432226896E0,1.263380051E-1,-1.733344793E0,2.252047812E0
8.854974845E0,1.304155469E0,5.739784241E-2,-2.353904247E0,2.691650275E0
8.864978491E0,1.202448964E0,-1.000925064E0,-3.232164860E0,3.590908545E0
8.874983699E0,1.124011278E0,-1.723246574E0,-3.259692669E0,3.854682400E0
8.884984481E0,1.017657280E0,-1.680716515E0,-3.796721458E0,4.274988675E0
8.894974324E0,8.615206480E-1,-1.533721924E0,-3.678909302E0,4.077854144E0
8.904999585E0,-4.717010260E-1,1.619424820E-1,-3.512930393E0,3.548155461E0
8.914977970E0,-4.632642269E-1,1.971759796E-1,-2.738406181E0,2.784306112E0
8.924976147E0,-1.844419003E0,2.335748672E-1,-2.492404461E0,3.109424171E0
8.934980835E0,-2.658758640E0,2.701120377E-1,-1.479941964E0,3.054862720E0
8.944976408E0,-2.819905281E0,2.070102692E-1,-1.308649778E0,3.115651343E0
8.954977189E0,-3.628635168E0,2.439222336E-1,-1.160944819E0,3.817628074E0
8.964976929E0,-3.711789608E0,2.805719376E-1,-1.019724369E0,3.859525942E0
8.975000366E0,-3.724129200E0,3.145008087E-1,-9.041509628E-1,3.845196747E0
8.984986772E0,-3.685614586E0,-7.434358597E-1,-8.004567623E-1,3.844110142E0
8.994996408E0,-3.541596889E0,-8.185501099E-1,-7.209663391E-1,3.705769188E0
9.005006929E0,-3.310496092E0,-8.598346710E-1,-6.121883392E-1,3.474690576E0
9.014977710E0,-2.342761278E0,-8.114337921E-1,1.012580395E-1,2.481372281E0
9.024976408E0,-2.155550718E0,3.514270782E-1,2.085611820E-1,2.193945682E0
9.034983179E0,-1.958554864E0,3.752851486E-1,8.682243824E-1,2.174991880E0
9.044977189E0,-1.266238809E0,2.994012833E-1,9.505736828E-1,1.611394482E0
9.054979012E0,-1.140945554E0,1.980730057E0,1.035467505E0,2.509430467E0
9.064978751E0,-1.034738541E0,2.769207001E0,1.076380968E0,3.146074896E0
9.074975887E0,-1.024063230E0,2.866517067E0,1.014811754E0,3.208655246E0
9.084982658E0,-1.059989214E0,2.906374931E0,8.978152275E-1,3.221283061E0
9.094979012E0,-1.794276476E0,2.919307709E0,7.751100063E-1,3.513200975E0
9.105000626E0,-1.823488712E0,2.911563873E0,6.505758762E-1,3.496507435E0
9.114977449E0,-1.860402107E0,2.897445679E0,5.417965651E-1,3.485660767E0
9.124975626E0,-1.908652067E0,2.888683319E0,4.613257647E-1,3.492887844E0
9.134979272E0,-1.942492604E0,2.889536858E0,4.205298424E-1,3.507070874E0
9.144976147E0,-1.929607391E0,2.893996239E0,4.198182821E-1,3.503547674E0
9.155105106E0,-1.851560473E0,2.857628822E0,4.691665173E-1,3.437213391E0
9.164965522E0,-1.688698173E0,2.783559799E0,5.349793434E-1,3.299410488E0
9.174987449E0,-8.954682946E-1,2.644930840E0,1.921235442E0,3.389493802E0
9.184975418E0,-7.077820301E-1,1.568088531E0,1.719455123E0,2.432361602E0
9.194975626E0,9.669579864E-1,1.585197449E-1,1.719493985E0,1.979089645E0
9.204997762E0,1.053485513E0,1.772069931E-1,1.721279979E0,2.025842740E0
9.214977449E0,1.137480140E0,1.962890625E-1,1.724973798E0,2.075554159E0
9.224979272E0,2.322396517E0,2.059412003E-1,1.684338808E0,2.876270950E0
9.234983699E0,2.424048901E0,1.166324615E-1,-3.666952848E-1,2.454400464E0
9.244976668E0,3.179988861E0,2.823511124E0,-1.609682441E0,4.547045390E0
9.254974845E0,3.233464956E0,4.606657028E0,-1.783496857E0,5.904019448E0
9.264976408E0,3.832923889E0,6.248268127E0,-2.471810579E0,7.735761609E0
9.274976147E0,3.812524796E0,7.559385300E0,-2.504805088E0,8.829139253E0
9.284982137E0,3.798857927E0,8.217247009E0,-2.395788193E0,9.364521933E0
9.294975366E0,3.770478725E0,8.156234741E0,-1.066250086E0,9.048622228E0
9.304997501E0,3.706384420E0,7.225574493E0,-3.651016951E-1,8.128930525E0
9.314975106E0,3.592120647E0,5.883346558E0,-2.572501898E-1,6.898063143E0
9.324988908E0,3.373442888E0,4.341642380E0,1.220612764E0,5.632039683E0
9.334995470E0,2.304213762E0,2.802227020E0,1.251986384E0,3.837883172E0
9.345148179E0,1.303762317E0,1.442680359E0,1.283324242E0,2.329816282E0
9.354975158E0,1.574185044E-1,-7.015895844E-2,1.314737320E0,1.325985326E0
9.364977189E0,1.071937308E-1,-5.287647247E-2,1.334273458E0,1.339616392E0
9.374975887E0,-1.761815429E0,-1.348762512E-1,1.151790023E0,2.109219160E0
9.384983960E0,-1.975779533E0,-1.217317581E-1,1.123766541E0,2.276263303E0
9.394976408E0,-2.763355494E0,-1.065587997E-1,1.105459571E0,2.978175486E0
9.405000887E0,-2.789361954E0,-9.065246582E-2,1.099367499E0,2.999561114E0
9.414977970E0,-2.689271688E0,-1.500772476E0,9.392915368E-1,3.219746703E0
9.424977970E0,-2.555265188E0,-1.628430367E0,-2.808899283E-1,3.043035457E0
9.434979272E0,-1.656502962E0,-2.540237427E0,-4.768673778E-1,3.069887741E0
9.444973804E0,-1.475610614E0,-2.672338009E0,-1.608745217E0,3.450634477E0
9.454976147E0,1.126866490E-1,-3.772681236E0,-1.785493493E0,4.175381301E0
9.464977189E0,1.518931240E-2,-4.507214069E0,-2.736995697E0,5.273173127E0
9.474975626E0,1.154646948E-1,-5.181788445E0,-2.856752157E0,5.918217339E0
9.484981616E0,2.130619586E-1,-5.883933067E0,-2.955620766E0,6.588001051E0
9.494974064E0,1.613758683E0,-6.556600571E0,-2.969502926E0,7.376393140E0
9.504996876E0,1.767114162E0,-6.681972504E0,-2.912244797E0,7.500174582E0
9.514976043E0,2.508110762E0,-7.541255951E0,-2.733004093E0,8.404193732E0
9.525000574E0,2.585803032E0,-7.601151943E0,-1.815071583E0,8.231547426E0
9.534981876E0,2.670878649E0,-7.664198875E0,-1.591846704E0,8.270883453E0
9.544980835E0,2.750917435E0,-8.264447212E0,-4.724689722E-1,8.723064908E0
9.554975106E0,3.316864967E0,-8.260183334E0,1.296340227E0,8.995149799E0
9.564975887E0,3.286525488E0,-8.207508087E0,1.211634398E0,8.923704203E0
9.574977970E0,3.212654114E0,-8.073643684E0,1.327668667E0,8.790197545E0
9.584982137E0,3.115652800E0,-6.811991692E0,3.487349033E0,8.262694866E0
9.594976929E0,2.050206184E0,-2.694235325E0,5.286074638E0,6.277327016E0
9.604974324E0,-3.707393408E-1,1.679420471E-1,6.067130089E0,6.080766375E0
9.614977189E0,-1.780383229E0,4.902376175E0,7.199814320E0,8.890465839E0
9.624978231E0,-3.878284454E0,8.054998398E0,8.404005051E0,1.226993848E1
9.634983439E0,-5.604772568E0,1.011641312E1,9.182876587E0,1.476754930E1
9.644978231E0,-6.785923958E0,1.112331486E1,9.089451790E0,1.588694531E1
9.654975106E0,-7.585975170E0,1.107586002E1,8.849984169E0,1.607930080E1
9.664976147E0,-7.725782394E0,9.928503036E0,8.515108109E0,1.519111425E1
9.674979793E0,-7.595513344E0,7.602134705E0,8.109799385E0,1.346302793E1
9.685037345E0,-6.275671005E0,4.319693565E0,6.935991287E0,1.030299831E1
9.694980366E0,-4.276124954E0,1.742649078E-2,5.268455505E0,6.785438211E0
9.704964949E0,-2.372250319E0,-1.176365852E0,3.130165100E0,4.099919724E0
9.714972293E0,-6.234892085E-2,-1.268216133E0,8.122963905E-1,1.507343682E0
9.724985001E0,1.207931861E-1,-1.084983826E0,-1.392547488E0,1.769454549E0
9.734982658E0,2.888260186E-1,1.131944656E-1,-4.028015137E0,4.039942994E0
9.744974845E0,2.069140911E0,2.842648506E0,-6.059043884E0,7.005284251E0
9.754975887E0,3.213284969E0,5.108551979E0,-7.505959988E0,9.631299962E0
9.764970835E0,3.330986500E0,6.910057068E0,-8.480254173E0,1.143499325E1
9.774975106E0,3.441184282E0,7.700258255E0,-9.418534279E0,1.264296304E1
9.784980574E0,3.456425428E0,6.038297653E0,-9.313834190E0,1.162563644E1
9.794978491E0,3.376842737E0,3.876408577E0,-9.073728561E0,1.042890983E1
9.804975366E0,3.176889896E0,1.442417145E0,-8.711864471E0,9.384550027E0
9.814973804E0,2.110874653E0,-1.080348015E0,-7.833979607E0,8.184997258E0
9.824974845E0,1.020884633E0,-3.385244370E0,-7.609200954E0,8.390591400E0
9.834988387E0,-5.896256864E-2,-4.907112122E0,-7.379915237E0,8.862639272E0
9.844992293E0,-3.045870662E-1,-5.005599022E0,-7.089739323E0,8.684077298E0
9.855000887E0,-3.452956080E-1,-4.883492470E0,-6.159209251E0,7.867883220E0
9.864983595E0,-3.813160956E-1,-3.246716022E0,-4.928361893E0,5.913993392E0
9.875006772E0,-4.174908102E-1,-1.572293282E0,-3.639004707E0,3.986070747E0
9.884973595E0,-4.244397283E-1,4.182434082E-2,-2.518843174E0,2.554695538E0
9.894960158E0,5.146135688E-1,-2.330780029E-2,-1.527297139E0,1.611833406E0
9.904983439E0,5.378016829E-1,1.703554153E0,-1.169918060E0,2.135424003E0
9.914988387E0,5.616512895E-1,1.776439667E0,-1.927640438E-1,1.873058471E0
9.924986564E0,6.003465652E-1,1.712639809E0,-1.289213896E-1,1.819387764E0
9.934986824E0,6.425503492E-1,1.008596420E-1,-9.541190863E-1,1.154723711E0
9.944985783E0,6.236553192E-1,-1.453380585E0,-3.266095161E0,3.628861899E0
9.954983699E0,6.017012596E-1,-1.566199303E0,-3.943625212E0,4.285697665E0
9.964991772E0,5.702962875E-1,-1.633519173E0,-3.948108673E0,4.310589848E0
9.974986824E0,5.446512699E-1,-1.636612892E0,-3.842924118E0,4.212269286E0
9.984986564E0,4.958807230E-1,-1.583747864E0,-3.637437820E0,3.998138177E0
9.994986824E0,3.882132173E-1,-1.472305298E0,-2.473803997E0,2.904840548E0
1.000498188E1,-6.689540744E-1,1.492767334E-1,-1.726219177E0,1.857314121E0
1.001498734E1,-6.396760941E-1,1.806297302E-1,-9.113322496E-1,1.127980086E0
1.002499021E1,-6.100895405E-1,2.119235992E-1,-6.989532709E-1,9.516598837E-1
1.003497412E1,-7.797265649E-1,1.433877945E-1,1.020418406E-1,7.993410491E-1
1.004498047E1,-2.425406218E0,1.747713089E-1,1.181985140E-1,2.434565920E0
1.005496115E1,-2.537540913E0,2.059173584E-1,2.474069595E-2,2.546002346E0
1.006497125E1,-3.295331478E0,2.363910675E-1,-1.053716183E0,3.467767017E0
1.007498552E1,-3.312754154E0,2.622785568E-1,-1.096167564E0,3.499244698E0
1.008497719E1,-3.293637276E0,1.883745193E-1,-1.075201750E0,3.469811272E0
1.009497745E1,-3.247485399E0,2.142019272E-1,-9.950702190E-1,3.403264407E0
1.010497485E1,-3.166540861E0,2.393751144E-1,-8.599047661E-1,3.289941896E0
1.011497615E1,-2.985283852E0,2.610540390E-1,-4.619789124E-2,2.997032387E0
1.012497641E1,-2.138612986E0,2.006292343E-1,7.996654510E-1,2.292025834E0
1.013497511E1,-1.395261765E0,2.197704315E-1,8.365396261E-1,1.641600737E0
1.014497667E1,-1.258833170E0,1.835957527E0,7.924293280E-1,2.362910331E0
1.015497589E1,-1.160893917E0,1.994650841E0,6.567226648E-1,2.399498140E0
1.016497485E1,-1.106634021E0,3.087693214E0,-3.208298683E-1,3.295666859E0
1.017497849E1,-1.095765471E0,3.219752312E0,-4.290606976E-1,3.428060676E0
1.018497511E1,-1.131728768E0,4.162908554E0,-5.283975601E-1,4.346242241E0
1.019497563E1,-1.915875912E0,4.239901543E0,-6.048538685E-1,4.691822013E0
1.020497537E1,-1.981861353E0,4.293253899E0,-6.549365520E-1,4.773755895E0
1.021499214E1,-2.699018002E0,4.294274330E0,-6.467378139E-1,5.113096908E0
1.022497698E1,-2.730577707E0,4.238000870E0,-6.003172398E-1,5.077114020E0
1.023497344E1,-2.769119740E0,4.135855675E0,-4.980728626E-1,5.002139829E0
1.024497412E1,-2.794356108E0,3.351613998E0,2.178034782E-1,4.369116708E0
1.025497563E1,-2.798211098E0,3.203139305E0,2.717504501E-1,4.261916830E0
1.026497875E1,-2.729341984E0,2.068734169E0,3.321883678E-1,3.440830981E0
1.027497615E1,-2.605931282E0,1.279866219E0,3.889212608E-1,2.929197011E0
1.028497641E1,-2.402429819E0,1.015758514E-1,4.320305586E-1,2.443079428E0
1.029497563E1,-1.434937000E0,1.212425232E-1,4.246838093E-1,1.501366139E0
1.030497563E1,9.650767446E-1,-2.225964546E0,4.221935272E-1,2.462628404E0
1.031497537E1,8.778208494E-1,-2.320153236E0,4.077198505E-1,2.513944303E0
1.032497823E1,9.892944694E-1,-2.331017494E0,3.932398558E-1,2.562612669E0
1.033497719E1,2.681566715E0,-2.166750431E0,3.575102091E-1,3.466038232E0
1.034497511E1,2.867122412E0,1.743383408E-1,3.127835989E-1,2.889397577E0
1.035497849E1,3.819864511E0,1.534119606E0,2.382507324E-1,4.123305866E0
1.036497458E1,3.880586147E0,3.724523544E0,1.937227249E-1,5.382244232E0
1.037497458E1,4.457223892E0,5.710284233E0,2.077631950E-1,7.246885979E0
1.038499386E1,4.457212448E0,7.199788094E0,2.828620672E-1,8.472526326E0
1.039497250E1,4.370242596E0,7.984975815E0,9.923933744E-1,9.156620759E0
1.040499969E1,4.215846539E0,8.003358841E0,2.065575361E0,9.278669966E0
1.041497448E1,3.947598934E0,7.880154610E0,1.885204792E0,9.013011213E0
1.042497615E1,2.734290600E0,6.530301094E0,1.889469624E0,7.327432901E0
1.043497667E1,1.815331221E0,4.865229607E0,1.886052012E0,5.524769566E0
1.044497354E1,3.982708752E-1,3.123574257E0,1.884283423E0,3.669585787E0
1.045497563E1,3.358108401E-1,1.669877052E0,1.831146121E0,2.500870730E0
1.046497328E1,-1.958291173E0,-1.517133713E-1,1.583379984E0,2.522897826E0
1.047497484E1,-3.880986691E0,-1.256713867E-1,1.578861356E0,4.191736415E0
1.048497589E1,-4.022154808E0,-1.175479889E-1,1.538781881E0,4.308061804E0
1.049497589E1,-4.078108311E0,-1.080961227E-1,1.501641035E0,4.347134454E0
1.050497693E1,-4.023855209E0,-1.962060928E-1,1.276877046E0,4.226147485E0
1.051497927E1,-3.905877113E0,-1.827898026E-1,1.260936022E0,4.108436173E0
1.052497380E1,-2.855178595E0,-1.674156189E-1,-5.243330002E-1,2.907747907E0
1.053497563E1,-2.046565056E0,-1.506080627E-1,-1.243303776E0,2.399357330E0
1.054497641E1,-1.785079241E0,-1.326026917E-1,-1.430876493E0,2.291614913E0
1.055497537E1,-6.886703968E-1,-2.048990250E0,-2.424654245E0,3.248318976E0
1.056497229E1,-4.820355177E-1,-2.857023239E0,-2.581277847E0,3.880455560E0
1.057496834E1,6.163806319E-1,-3.666423798E0,-3.246047020E0,4.935525281E0
1.058496302E1,7.441333532E-1,-4.436183929E0,-3.299805403E0,5.578725482E0
1.059497677E1,8.447478414E-1,-4.569679260E0,-3.281553507E0,5.688950771E0
1.060498396E1,7.384895086E-1,-5.482303143E0,-3.229591608E0,6.405566053E0
1.061497719E1,2.922890186E0,-5.546005726E0,-3.150926352E0,7.016395330E0
1.062497693E1,3.099638939E0,-5.608470917E0,-3.022142887E0,7.084917445E0
1.063497563E1,4.216784000E0,-5.680393696E0,-2.873299360E0,7.635704883E0
1.064497224E1,4.327955246E0,-6.312089920E0,-2.640022993E0,8.095887671E0
1.065497719E1,5.069666862E0,-6.362795830E0,-1.512529135E0,8.274928232E0
1.066497459E1,4.986968994E0,-6.389243603E0,-2.670048475E-1,8.109475023E0
1.067497745E1,4.866219521E0,-6.406780243E0,1.875705123E0,8.261065017E0
1.068497615E1,4.618766785E0,-6.383850098E0,2.024708033E0,8.135477325E0
1.069497745E1,3.611753464E0,-6.288206100E0,4.367281914E0,8.465190509E0
1.070497667E1,2.761101961E0,-5.305943966E0,6.101730347E0,8.544462454E0
1.071497641E1,1.239444017E0,-3.480558395E0,7.408132553E0,8.278341388E0
1.072497693E1,-1.625413299E-1,2.497711182E-1,8.887145996E0,8.892140870E0
1.073497458E1,-2.876976252E0,2.575061798E0,1.040890503E1,1.110194756E1
1.074500089E1,-4.550893307E0,5.294793129E0,1.179719067E1,1.370836138E1
1.075498656E1,-5.855885506E0,7.252455711E0,1.163870049E1,1.491136673E1
1.076498448E1,-6.768314838E0,8.375706673E0,1.139565468E1,1.567875931E1
1.077497698E1,-7.004220009E0,8.436067581E0,1.107994556E1,1.558818552E1
1.078497464E1,-7.966380119E0,8.315083504E0,1.067704105E1,1.570359932E1
1.079497667E1,-7.878157139E0,6.546792984E0,9.049262047E0,1.366802846E1
1.080497563E1,-6.993467331E0,3.756163597E0,7.054604530E0,1.062001861E1
1.081498005E1,-5.914224148E0,-8.672046661E-2,4.754148960E0,7.588642833E0
1.082497745E1,-4.923765659E0,-1.206989288E0,2.515470505E0,5.659318269E0
1.083497615E1,-3.864133596E0,-1.880820751E0,-1.290998340E0,4.487281121E0
1.084497667E1,-2.345455408E0,3.010749817E-3,-3.815979481E0,4.479159467E0
1.085497823E1,-9.524372816E-1,2.106482506E0,-5.281629086E0,5.765415087E0
1.086497797E1,7.354227901E-1,4.398029327E0,-6.565201759E0,7.936333082E0
1.087497875E1,9.315341115E-1,6.075814247E0,-7.582995415E0,9.761408404E0
1.088497693E1,2.625394106E0,6.886561394E0,-8.393669128E0,1.117009863E1
1.089497458E1,2.858414173E0,6.816210747E0,-8.474267960E0,1.124475335E1
1.090497589E1,3.656185627E0,5.626954079E0,-8.429818153E0,1.077460624E1
1.091498787E1,3.703750610E0,4.009780884E0,-8.237860680E0,9.882229500E0
1.092498115E1,3.634646416E0,1.726149559E0,-8.100903511E0,9.045158073E0
1.093499474E1,3.500228405E0,-6.352329254E-2,-8.589380264E0,9.275402278E0
1.094497802E1,3.296343803E0,-2.956289768E0,-8.328979492E0,9.432784904E0
1.095497771E1,3.134795427E0,-4.184439182E0,-7.949884892E0,9.515100810E0
1.096497745E1,3.043309689E0,-4.249458313E0,-6.669824123E0,8.473852940E0
1.097497927E1,3.016824245E0,-4.093431473E0,-5.576219559E0,7.546630660E0
1.098497927E1,3.018762350E0,-2.353268623E0,-4.606596947E0,5.989284997E0
1.099497823E1,3.647282362E0,-1.119709015E-1,-4.234431267E0,5.589777658E0
1.100497302E1,3.479717731E0,1.539480209E0,-2.825629473E0,4.739474309E0
1.101497511E1,2.697862864E0,2.349115372E0,-1.659790874E0,3.943566001E0
1.102497563E1,2.463759661E0,2.470632553E0,-1.390430689E0,3.755986472E0
1.103497667E1,1.425619125E0,2.514222145E0,-1.186143756E0,3.124202281E0
1.104497771E1,1.191872120E0,2.402778625E0,-1.059615016E0,2.883866893E0
1.105497797E1,-2.247130573E-1,1.216878891E0,-1.033974171E0,1.612573341E0
1.106497589E1,-2.595868707E-1,-6.170272827E-3,-1.059761405E0,1.091108451E0
1.107497771E1,-4.903428555E-1,-7.958316803E-2,-1.844581366E0,1.910301026E0
1.108497589E1,-5.175939798E-1,-1.255013466E0,-1.959003210E0,2.383412659E0
1.109497427E1,-5.408940911E-1,-1.388076782E0,-2.892312050E0,3.253427818E0
1.110496839E1,-5.273041129E-1,-2.310277462E0,-2.950515747E0,3.784306377E0
1.111496797E1,-5.073413253E-1,-2.391844273E0,-3.003096104E0,3.872583176E0
1.112497584E1,-6.397979856E-1,-2.484105587E0,-3.036208153E0,3.974755587E0
1.113497953E1,-5.763306022E-1,-2.552530766E0,-3.001259804E0,3.981850158E0
1.114498604E1,-5.124502778E-1,-2.577237129E0,-2.865409851E0,3.887843891E0
1.115498734E1,-4.521662891E-1,-2.545741558E0,-2.650060177E0,3.702441542E0
1.116498917E1,-3.929569721E-1,-2.461782455E0,-1.606820345E0,2.965916327E0
1.117498448E1,-1.625991702E0,-2.311441422E0,-1.425533295E0,3.165241797E0
1.118498682E1,-1.778200626E0,-1.300639153E0,-1.184314728E0,2.501251896E0
1.119498552E1,-2.404045343E0,1.335182190E-1,-1.065352201E0,2.632914059E0
1.120498995E1,-2.405924559E0,1.662340164E-1,-9.637320042E-1,2.597091856E0
1.121498578E1,-2.380642176E0,9.942245483E-2,-8.626008034E-1,2.534052513E0
1.122498500E1,-2.339911461E0,1.318387985E-1,-7.270207405E-1,2.453798335E0
1.123498630E1,-2.247808933E0,1.603879929E-1,3.516983986E-2,2.253798178E0
1.124498318E1,-2.157703400E0,1.281342506E0,2.095539570E-1,2.518220689E0
1.125498422E1,-2.091349363E0,2.029797554E0,1.067343950E0,3.103714449E0
1.126498709E1,-2.042221546E0,2.833799362E0,1.125926852E0,3.669986232E0
1.127499464E1,-2.034907341E0,3.567060471E0,1.123843670E0,4.257674586E0
1.128498912E1,-2.643748045E0,3.694710732E0,1.057129383E0,4.664527162E0
1.129498412E1,-2.674509764E0,4.438004494E0,9.395591021E-1,5.266085612E0
1.130498266E1,-3.471842527E0,4.469705582E0,1.789884567E-1,5.662507871E0
1.131498917E1,-3.529809952E0,4.465573311E0,1.041109562E-1,5.693131158E0
1.132499255E1,-4.443191051E0,4.415348053E0,1.056766510E-2,6.263972927E0
1.133498578E1,-4.474029064E0,4.290742874E0,-8.409500122E-2,6.199555020E0
1.134499203E1,-4.507618904E0,3.520606041E0,-1.103963852E-1,5.720619061E0
1.135497875E1,-5.010602951E0,2.663190842E0,7.377696037E-2,5.674871843E0
1.136497615E1,-4.807320595E0,2.519439697E0,8.230116367E-1,5.489558802E0
1.137497693E1,-3.927146673E0,1.447000504E0,8.090180159E-1,4.262722323E0
1.138497511E1,-3.049110889E0,9.534740448E-2,7.444480658E-1,3.140122811E0
1.139498448E1,-1.918414712E0,1.258420944E-1,6.219971180E-1,2.020651295E0
1.140497380E1,-6.277265549E-1,-1.042814255E0,-1.245952845E-1,1.223530213E0
1.141497432E1,1.474713445E0,-1.698998451E0,-2.511965036E-1,2.263730365E0
1.142497563E1,1.625825524E0,-1.738993168E0,-8.857859373E-1,2.540083188E0
1.143497198E1,4.041920662E0,-1.638644218E0,-9.517813921E-1,4.464097370E0
1.144501182E1,5.250862122E0,2.113208771E-1,-9.976494312E-1,5.348973165E0
1.145497136E1,6.035752296E0,1.705901146E0,-1.013517737E0,6.353551976E0
1.146498375E1,6.161119938E0,3.909471512E0,-9.765067101E-1,7.361856542E0
1.147497438E1,6.765690804E0,5.834728241E0,-8.573950529E-1,8.975174203E0
1.148497360E1,6.715866566E0,7.214254379E0,1.705515385E-1,9.857860711E0
1.149499464E1,6.505872726E0,7.974856377E0,8.559926748E-1,1.032750878E1
1.150497198E1,5.648414612E0,8.001968384E0,1.893125415E0,9.975971606E0
1.151497589E1,4.755448818E0,7.913739204E0,1.911938071E0,9.428524214E0
1.152498005E1,4.397092819E0,6.854825020E0,1.917585254E0,8.366611292E0
1.153497745E1,2.992741346E0,3.650341988E0,1.953447819E0,5.108566900E0
1.154498370E1,5.452926159E-1,2.295273781E0,1.729240775E0,2.925046910E0
1.155497484E1,4.353140593E-1,1.583889961E0,1.674313426E0,2.345534308E0
1.156497771E1,-9.056606293E-1,1.513872147E0,1.624532819E0,2.398152816E0
1.157497459E1,-1.961162448E0,1.472791672E0,1.578294277E0,2.916553836E0
1.158497589E1,-2.752725840E0,1.447356224E0,1.536660910E0,3.468957529E0
1.159498266E1,-2.941068888E0,1.420682907E0,1.299815416E0,3.515358622E0
1.160497563E1,-3.655258417E0,1.368792534E0,1.274457455E0,4.105940684E0
1.161497875E1,-3.655408859E0,1.303879738E0,1.257501602E0,4.079635594E0
1.162509042E1,-3.608671188E0,1.183240891E0,1.245438695E0,3.996709183E0
1.163496474E1,-3.444588423E0,-2.125082016E-1,-9.622851610E-1,3.582784095E0
1.164496797E1,-2.373227358E0,-2.961988449E-1,-1.866255045E0,3.033619907E0
1.165497568E1,-1.586878777E0,-1.792785645E0,-2.669341564E0,3.585756406E0
1.166497537E1,-8.262414932E-1,-2.873091221E0,-2.863806248E0,4.139893041E0
1.167497459E1,4.008794427E-1,-3.996269226E0,-3.869386673E0,5.577008632E0
1.168497693E1,5.043918490E-1,-5.080433846E0,-3.966933966E0,6.465429938E0
1.169498005E1,4.058800340E-1,-6.104253769E0,-4.009264946E0,7.314428076E0
1.170497458E1,2.093912601E0,-6.930754185E0,-3.864715338E0,8.207060874E0
1.171497276E1,2.969505072E0,-7.762190342E0,-2.701305389E0,8.738799121E0
1.172497537E1,3.992927790E0,-8.398870468E0,-2.483392954E0,9.625577283E0
1.173497459E1,4.081602097E0,-8.427719116E0,-1.547928095E0,9.491154122E0
1.174498396E1,4.696613312E0,-8.446914673E0,-1.291134000E0,9.750670290E0
1.175497719E1,4.678052902E0,-8.459873199E0,-8.403980732E-2,9.667507238E0
1.176497281E1,4.632286549E0,-8.460278511E0,1.699895501E0,9.794081676E0
1.177497589E1,4.563055038E0,-8.433377266E0,1.855178237E0,9.766524954E0
1.178497458E1,4.417310238E0,-8.330101013E0,3.453450203E0,1.004139089E1
1.179498005E1,4.243844032E0,-7.608504295E0,5.061819077E0,1.007579089E1
1.180499136E1,3.964017868E0,-6.282184601E0,6.329028130E0,9.758887133E0
1.181497511E1,2.324082136E0,-3.806404591E0,7.462326050E0,8.693467879E0
1.182498568E1,-5.636625290E-1,2.370433807E-1,8.675046921E0,8.696570824E0
1.183499401E1,-2.032954693E0,3.002353668E0,9.899841309E0,1.054295453E1
1.184498526E1,-4.019508362E0,5.816123962E0,1.161075783E1,1.359387519E1
1.185497875E1,-5.540396214E0,7.654326439E0,1.142522907E1,1.482634691E1
1.186497641E1,-6.624706745E0,8.475643158E0,1.116615105E1,1.550503775E1
1.187498474E1,-7.458848953E0,8.456448555E0,1.074431896E1,1.557518346E1
1.188497537E1,-7.450583458E0,7.591537476E0,1.017583561E1,1.472040303E1
1.189498266E1,-5.703497887E0,2.621767044E0,6.062559605E0,8.726865390E0
1.190497667E1,-3.629455566E0,-2.218818665E-2,3.908755541E0,5.334023800E0
1.191497849E1,-1.988193631E0,4.911422729E-4,1.595878243E0,2.549459065E0
1.192497432E1,-6.842636466E-1,-6.210517883E-2,-1.185261488E0,1.370006783E0
1.193497641E1,-4.716771841E-1,1.090747833E0,-3.399004698E0,3.600755912E0
1.194498031E1,1.967031479E0,3.154755592E0,-4.974862576E0,6.210551774E0
1.195497432E1,3.055185318E0,5.060674667E0,-6.257066250E0,8.607872180E0
1.196497537E1,3.226294756E0,6.562433243E0,-7.139822960E0,1.022015557E1
1.197498526E1,3.232322454E0,7.303523064E0,-7.304607391E0,1.082343045E1
1.198497354E1,3.138701677E0,7.205328941E0,-7.382984161E0,1.078316598E1
1.199500047E1,3.030845165E0,5.778083801E0,-7.855288982E0,1.021165216E1
1.200497464E1,2.141826153E0,4.022946358E0,-7.606301308E0,8.867205662E0
1.201497979E1,1.237745881E0,1.834666252E0,-7.395636082E0,7.719679279E0
1.202497719E1,-3.261869550E-1,-1.345291138E-1,-7.283055305E0,7.291597259E0
1.203497771E1,-3.535678983E-1,-2.174327374E0,-7.664930344E0,7.975203255E0
1.204498344E1,-3.770641387E-1,-3.145563126E0,-7.358964443E0,8.011934998E0
1.205497458E1,-3.969351351E-1,-3.162363529E0,-6.306078911E0,7.065743543E0
1.206497484E1,-5.728949308E-1,-1.696782112E0,-5.198786736E0,5.498605429E0
1.207497797E1,-5.589074492E-1,-1.524391174E-1,-4.115044117E0,4.155623095E0
1.208497693E1,-5.001537204E-1,-1.316366196E-1,-3.792770386E0,3.827870053E0
1.209498292E1,-4.404539466E-1,-1.067190170E-1,-2.736528873E0,2.773802247E0
1.210497641E1,-3.813191652E-1,-7.807254791E-2,-2.447463989E0,2.478221057E0
1.211500479E1,-5.223373771E-1,9.298467636E-1,-2.266723871E0,2.505092503E0
1.212497354E1,-4.625491798E-1,-1.187019348E-1,-2.236087084E0,2.286509860E0
1.213497589E1,-4.035468996E-1,-8.832168579E-2,-3.199132919E0,3.225694073E0
1.214498031E1,1.130655527E0,-5.702400208E-2,-3.217131138E0,3.410508234E0
1.215497229E1,1.238925338E0,-2.495193481E-2,-3.187914371E0,3.420286045E0
1.216498328E1,1.976364255E0,-1.190443993E0,-3.073862553E0,3.843410407E0
1.217497823E1,2.114384890E0,-1.234675407E0,-2.896058083E0,3.792387011E0
1.218498089E1,2.923191786E0,-1.251152992E0,-2.677738190E0,4.157008039E0
1.219498266E1,2.935080767E0,-1.234253883E0,-1.830270648E0,3.672597500E0
1.220497927E1,2.828841686E0,-1.213354111E0,-1.697908878E0,3.515319053E0
1.221500349E1,2.107712507E0,-1.188361168E0,-1.563997626E0,2.881100979E0
1.222497511E1,1.289119959E0,-1.164143562E0,-1.436522245E0,2.254031203E0
1.223497589E1,-5.454113483E-1,-1.148923874E0,-1.336123824E0,1.844648064E0
1.224498240E1,-1.637820005E0,-1.181722641E0,-1.451665640E0,2.487218507E0
1.225497485E1,-2.528633118E0,-1.183705330E0,-2.321285963E0,3.630910667E0
1.226497667E1,-2.732709408E0,-1.173180580E0,-2.333311081E0,3.779999204E0
1.227497641E1,-3.750552654E0,-1.146857262E0,-2.308124304E0,4.550754288E0
1.228497693E1,-3.825574398E0,-1.106787682E0,-2.211459160E0,4.555277166E0
1.229498084E1,-3.788328648E0,-1.059844017E0,-2.047379017E0,4.434688729E0
1.230497667E1,-3.706794739E0,-9.926872253E-1,-1.096653938E0,3.991040594E0
1.231499698E1,-3.533079386E0,-8.810729980E-1,-8.867099285E-1,3.747691832E0
1.232497849E1,-2.706000805E0,2.038278580E-1,2.782490253E-1,2.727894549E0
1.233502151E1,-2.515029907E0,2.311306000E-1,4.601144791E-1,2.567197328E0
1.234501344E1,-2.321154833E0,1.349380493E0,1.255855083E0,2.964078181E0
1.235497021E1,-2.146757841E0,2.132366180E0,1.345753431E0,3.311586788E0
1.236497281E1,-2.028877497E0,2.878039360E0,1.388103843E0,3.785008155E0
1.237498735E1,-1.975311875E0,3.031414986E0,1.368323803E0,3.868286940E0
1.238498344E1,-1.987666130E0,3.873598099E0,1.232985258E0,4.525022820E0
1.239498630E1,-2.749023914E0,3.915001869E0,4.599647522E-1,4.805823518E0
1.240498943E1,-2.800639629E0,3.911092758E0,3.480217457E-1,4.823001973E0
1.241503005E1,-3.638403893E0,3.870588303E0,2.355022430E-1,5.317414597E0
1.242498630E1,-3.705252409E0,3.700102806E0,1.311786175E-1,5.238021002E0
1.243498630E1,-3.676611900E0,3.584517479E0,1.105523109E-1,5.135996732E0
1.244498526E1,-3.607092142E0,2.927885056E0,1.532621384E-1,4.648345287E0
1.245498943E1,-3.484509230E0,2.891040802E0,8.281319141E-1,4.602795233E0
1.246498344E1,-3.311820507E0,2.849266052E0,8.807915449E-1,4.456710205E0
1.247498787E1,-3.071811199E0,2.800883293E0,9.376724958E-1,4.261478731E0
1.248498604E1,-2.081966877E0,2.705496788E0,9.747513533E-1,3.550273109E0
1.249498578E1,-1.864805222E0,1.924057007E0,9.895553589E-1,2.856346213E0
1.250500531E1,-9.202558994E-1,1.775328636E0,9.908183813E-1,2.231677340E0
1.251499552E1,-6.669869423E-1,8.386898041E-2,9.729888439E-1,1.182629645E0
1.252498886E1,1.465072393E0,1.062746048E-1,9.359626770E-1,1.741768510E0
1.253496969E1,1.585243702E0,1.286926270E-1,8.772329092E-1,1.816341643E0
1.254497636E1,2.641690731E0,4.697895050E-2,8.258854151E-1,2.768180568E0
1.255498761E1,3.484468937E0,6.495952606E-2,8.203152418E-1,3.580315714E0
1.256498422E1,3.640219212E0,2.418892860E0,8.379056454E-1,4.450204990E0
1.257498656E1,4.573306084E0,4.075154305E0,1.890231490E0,6.410537125E0
1.258498630E1,4.630735397E0,5.495584488E0,1.889551520E0,7.430717605E0
1.259497641E1,5.216914177E0,7.418491364E0,1.731432676E0,9.232987965E0
1.260497458E1,4.972936153E0,7.462203979E0,1.734265804E0,9.133578712E0
1.261497693E1,3.807351589E0,7.399037361E0,1.736270308E0,8.500371438E0
1.262497849E1,2.793884277E0,6.429283142E0,1.697684169E0,7.212738912E0
1.263497484E1,7.284257412E-1,4.903388023E0,1.453788996E0,5.165977218E0
1.264498500E1,6.395822763E-1,3.383835793E0,1.414202571E0,3.722818700E0
1.265497511E1,-1.340685964E0,2.340524673E0,1.378748655E0,3.029264342E0
1.266497406E1,-2.673855782E0,2.182763100E0,1.345948219E0,3.704799063E0
1.267497537E1,-3.659484148E0,1.440860748E0,1.316972971E0,4.147568171E0
1.268497537E1,-3.881048679E0,1.416845322E0,1.090829730E0,4.273160308E0
1.269498906E1,-4.037390232E0,1.440592766E0,1.069205761E0,4.418034446E0
1.270499136E1,-4.038193703E0,1.515987396E0,1.051867843E0,4.439780639E0
1.271497229E1,-3.894236565E0,1.601292610E0,-3.780541420E-1,4.227545550E0
1.272497771E1,-2.517791986E0,1.647481918E0,-1.314921021E0,3.283670271E0
1.273497823E1,-1.249779463E0,1.623923302E0,-2.347963572E0,3.116409557E0
1.274497875E1,3.655351400E-1,1.520137787E0,-3.228847504E0,3.587463036E0
1.275497432E1,4.563828111E-1,7.241468430E-1,-3.395487785E0,3.501715468E0
1.276497391E1,1.885349870E0,-3.126039505E-1,-4.221035957E0,4.633509460E0
1.277497745E1,2.997303724E0,-2.008327484E0,-4.223364353E0,5.554639084E0
1.278497667E1,3.097276211E0,-3.085277557E0,-4.102211952E0,5.995014632E0
1.279498422E1,3.116823673E0,-4.104973316E0,-3.331127644E0,6.136921632E0
1.280497953E1,3.111109257E0,-5.052620888E0,-3.101001740E0,6.695087037E0
1.281497641E1,3.054911137E0,-5.907194614E0,-2.043209553E0,6.957164332E0
1.282497615E1,2.985719919E0,-6.614518166E0,-1.819782615E0,7.481843540E0
1.283497432E1,2.898096085E0,-6.753871441E0,-8.453742266E-1,7.397864417E0
1.284497875E1,2.825208187E0,-7.784504890E0,-6.469686031E-1,8.306556812E0
1.285497485E1,2.769520044E0,-7.866010189E0,8.075916767E-2,8.339716998E0
1.286500271E1,2.743501663E0,-8.540211678E0,2.613598108E-1,8.973869055E0
1.287498193E1,2.737230778E0,-8.585796356E0,4.280624390E-1,9.021727598E0
1.288496927E1,2.733313322E0,-8.634298325E0,1.786505818E0,9.231127359E0
1.289498193E1,2.714907885E0,-8.700019836E0,1.870197177E0,9.303693216E0
1.290497459E1,2.683727264E0,-9.717131615E0,1.951995254E0,1.026817045E1
1.291497693E1,2.594156265E0,-9.642055511E0,3.854296684E0,1.070301285E1
1.292497875E1,2.423638821E0,-9.765347481E0,4.952760696E0,1.121453856E1
1.293498057E1,1.618581772E0,-8.347356796E0,6.010396004E0,1.041263812E1
1.294498057E1,4.464223385E-1,-6.797827244E0,7.147171974E0,9.873794375E0
1.295497563E1,-2.469231606E0,-1.628335953E0,9.298666000E0,9.757754459E0
1.296497302E1,-3.771515369E0,1.393774033E0,9.310417175E0,1.014153845E1
1.297497484E1,-4.679091454E0,4.144009590E0,9.198936462E0,1.112147222E1
1.298497589E1,-4.875030994E0,6.304610252E0,8.953961372E0,1.198697051E1
1.299498110E1,-4.988731861E0,7.655548096E0,8.602792740E0,1.255001614E1
1.300497797E1,-4.929773331E0,7.720407486E0,8.144468307E0,1.225723137E1
1.301497537E1,-3.978240728E0,7.576225281E0,7.019309044E0,1.106780413E1
1.302497641E1,-2.645773888E0,6.142623901E0,5.788398743E0,8.845196881E0
1.303498292E1,-1.035348058E0,4.692286491E0,4.469021320E0,6.562137585E0
1.304497589E1,-8.428163528E-1,3.682700157E0,2.952850342E0,4.794991657E0
1.305499578E1,-6.650974751E-1,3.609140396E0,1.061816216E0,3.820432269E0
1.306497281E1,1.238805413E0,3.710479736E0,-1.616143465E0,4.232519158E0
1.307497464E1,2.043000460E0,5.207132339E0,-1.812325120E0,5.879846972E0
1.308497860E1,2.284402370E0,6.609805107E0,-3.229111195E0,7.702933003E0
1.309498266E1,2.359261274E0,7.586150169E0,-4.400028706E0,9.081632054E0
1.310497641E1,2.290032864E0,7.675209045E0,-5.697935104E0,9.829524346E0
1.311497927E1,1.454320908E0,7.592910767E0,-6.671854973E0,1.021180650E1
1.312497484E1,-4.661736488E-1,4.298776627E0,-7.378330231E0,8.551991309E0
1.313497953E1,-4.644828737E-1,1.880019188E0,-7.244117737E0,7.498497068E0
1.314498370E1,-1.629486561E0,-4.887580872E-2,-7.795876503E0,7.964502856E0
1.315497797E1,-2.741599798E0,-3.017412186E0,-8.768141747E0,9.669615062E0
1.316497406E1,-2.874349594E0,-4.214738846E0,-9.382495880E0,1.067975365E1
1.317497615E1,-2.922943115E0,-4.287084579E0,-9.185341835E0,1.054955901E1
1.318497511E1,-2.908290863E0,-4.194438457E0,-8.917708397E0,1.027506656E1
1.319498266E1,-2.736927509E0,-3.041976929E0,-8.548546791E0,9.477449449E0
1.320497615E1,-1.775468588E0,-1.944386482E0,-6.892602921E0,7.378407858E0
1.321497578E1,-1.550707698E0,-1.832265854E-1,-5.317209244E0,5.541748865E0
1.322497802E1,-4.417624474E-1,-1.651744843E-1,-3.676398993E0,3.706527515E0
1.323497214E1,6.290869713E-1,-1.421251297E-1,-2.106129646E0,2.202664763E0
1.324499047E1,1.741758823E0,9.870901108E-1,-8.308039308E-1,2.167557579E0
1.325497589E1,2.888259649E0,9.585514069E-1,-4.993035197E-1,3.083856126E0
1.326498396E1,3.912161350E0,-1.533374786E-1,-2.554231286E-1,3.923488217E0
1.327497667E1,4.107498646E0,-1.185474396E-1,-1.646194458E-1,4.112505098E0
1.328497589E1,4.951555729E0,-9.221076965E-2,-8.600180149E-1,5.026533393E0
1.329498005E1,4.911856651E0,-1.485816002E0,-1.709648728E0,5.408963277E0
1.330497849E1,3.922123432E0,-1.470577240E0,-2.579015732E0,4.919041754E0
1.331497406E1,2.563841105E0,-1.396858215E0,-3.291738510E0,4.400004148E0
1.332497953E1,1.037927151E0,-1.333849907E0,-3.275894165E0,3.686181076E0
1.333497432E1,-7.516304255E-1,-1.285106659E0,-3.213427544E0,3.541548249E0
1.334498266E1,-2.130083799E0,-1.224411964E0,-3.095740557E0,3.952221052E0
1.335497485E1,-3.593930483E0,-1.164116859E0,-2.922255278E0,4.776094669E0
1.336497406E1,-4.787349224E0,-1.102776527E0,-2.148028851E0,5.361796024E0
1.337497563E1,-5.568652153E0,-1.058589935E0,-2.034887314E0,6.022563062E0
1.338498500E1,-5.693050385E0,-1.029975891E0,-1.907675505E0,6.091871539E0
1.339502943E1,-5.697150707E0,-9.935283661E-1,-1.743487954E0,6.040229718E0
1.340498141E1,-5.561509609E0,-9.426136017E-1,-9.361290932E-1,5.717975797E0
1.341496787E1,-4.752273560E0,1.340837479E-1,-7.456758022E-1,4.812287901E0
1.342497542E1,-4.461370468E0,1.543922424E-1,2.066779137E-2,4.464088997E0
1.343498031E1,-3.271159172E0,1.769304276E-1,1.576302052E-1,3.279730780E0
1.344498292E1,-2.453057289E0,1.015300751E-1,2.823033333E-1,2.471334375E0
1.345497953E1,-2.182769775E0,1.273012161E-1,3.991010189E-1,2.222604579E0
1.346497823E1,-4.926516116E-1,1.449136734E-1,4.814043045E-1,7.038861325E-1
1.347497641E1,-3.321364820E-1,1.578826904E-1,5.389997959E-1,6.525046870E-1
1.348497693E1,-3.416697979E-1,1.885140419E0,6.257295609E-1,2.015447874E0
1.349498578E1,-2.219810784E-1,2.691820145E0,6.536068916E-1,2.778915842E0
1.350498500E1,-1.108007133E-1,2.778795242E0,6.598961353E-1,2.858223698E0
1.351497797E1,-1.592505693E0,2.858899117E0,6.720900536E-1,3.340820795E0
1.352497771E1,-1.656433105E0,2.941748619E0,6.885517836E-1,3.445541921E0
1.353497927E1,-1.758495450E0,3.519497871E0,6.813703775E-1,3.992923378E0
1.354498422E1,-2.582962513E0,3.496874809E0,6.602907181E-1,4.397250574E0
1.355497641E1,-2.656484365E0,3.429854393E0,6.217854023E-1,4.382627913E0
1.356498396E1,-3.268404007E0,3.296173096E0,5.693583488E-1,4.676685873E0
1.357497568E1,-3.324733257E0,2.341464043E0,5.193110704E-1,4.099510835E0
1.358498734E1,-3.338554621E0,2.176820755E0,4.958232641E-1,4.016258989E0
1.359498115E1,-3.347101688E0,1.055013657E0,4.914588928E-1,3.543681048E0
1.360498266E1,-3.320277452E0,-2.123641968E-2,4.996439219E-1,3.357728011E0
1.361498552E1,-3.216305971E0,-5.085945129E-3,5.038362741E-1,3.255533898E0
1.362499151E1,-3.046199322E0,1.219558716E-2,4.898518324E-1,3.085357979E0
1.363498787E1,-2.269861221E0,-6.903362274E-2,4.604097605E-1,2.317113021E0
1.364498865E1,-1.341846704E0,-1.696181297E0,4.353986979E-1,2.206163094E0
1.365498682E1,7.184578180E-1,-2.519607544E-3,3.800479174E-1,8.127880438E-1
1.366499151E1,8.390198946E-1,2.131748199E-2,3.333811760E-1,9.030790813E-1
1.367498735E1,2.689832687E0,1.832002640E0,2.619627714E-1,3.264974434E0
1.368498735E1,3.594930649E0,3.797164917E0,1.640343666E-1,5.231528940E0
1.369498917E1,4.380025864E0,5.614084244E0,8.276689053E-2,7.121054614E0
1.370498891E1,5.068051338E0,6.879798889E0,4.143464565E-2,8.545085953E0
1.371498761E1,5.107548714E0,7.676598549E0,3.847527504E-2,9.220558524E0
1.372498787E1,5.097080231E0,7.750742912E0,1.182219982E-1,9.277295889E0
1.373498761E1,4.949719429E0,7.717872620E0,2.270587683E-1,9.171523095E0
1.374511266E1,4.693898201E0,7.511858940E0,1.712179780E0,9.021766161E0
1.375497042E1,3.371619701E0,5.646694183E0,1.711478353E0,6.795743724E0
1.376497234E1,2.030925751E0,3.953450203E0,1.712755680E0,4.763188001E0
1.377497672E1,3.681482375E-2,2.455554008E0,1.516560078E0,2.886356750E0
1.378498266E1,-1.549242258E0,1.468856812E0,1.522305608E0,2.622042385E0
1.379499047E1,-3.179198980E0,1.320001602E0,1.529831529E0,3.766974236E0
1.380498787E1,-4.312241554E0,-2.322845459E-1,1.491110802E0,4.568675383E0
1.381498995E1,-4.560622215E0,-2.192707062E-1,1.455624342E0,4.792306006E0
1.382498500E1,-5.383220673E0,-3.053884506E-1,1.231330752E0,5.530687330E0
1.383498552E1,-5.181719780E0,-2.719783783E-1,1.256279945E0,5.338766844E0
1.384498474E1,-3.700955391E0,-2.588195801E-1,-6.695581675E-1,3.769929246E0
1.385498188E1,-2.403591394E0,-2.452821732E-1,-1.713724375E0,2.962138783E0
1.386497563E1,-1.191094518E0,-3.291902542E-1,-2.580813408E0,2.861410530E0
1.387498266E1,9.387577325E-2,-3.115806580E-1,-2.768564224E0,2.787623187E0
1.388497406E1,2.395712584E-1,-2.044095039E0,-3.685098886E0,4.220861609E0
1.389497354E1,3.821180761E-1,-2.934698582E0,-3.757751465E0,4.783217125E0
1.390497563E1,1.782030463E0,-3.863774300E0,-3.778878450E0,5.690721110E0
1.391497537E1,1.941144228E0,-4.805480480E0,-3.668926477E0,6.349937406E0
1.392499495E1,2.077772379E0,-5.577049732E0,-2.923795938E0,6.630927874E0
1.393498412E1,2.797318935E0,-6.242801189E0,-2.678450584E0,7.346540509E0
1.394498552E1,2.833529472E0,-6.342240334E0,-1.507493019E0,7.108124712E0
1.395497693E1,2.874126196E0,-7.097909927E0,-1.281535625E0,7.764229536E0
1.396498005E1,2.881937504E0,-7.129982948E0,-4.063318968E-1,7.701124998E0
1.397497693E1,2.894037485E0,-7.167342186E0,-2.337661982E-1,7.733103750E0
1.398497771E1,2.896344900E0,-7.214767456E0,-3.407669067E-2,7.774499627E0
1.399497797E1,3.490970373E0,-7.274329185E0,1.812109590E0,8.269611866E0
1.400497563E1,3.539000511E0,-7.945280552E0,1.757923245E0,8.873685920E0
1.401497771E1,3.520621538E0,-7.960642815E0,1.839428544E0,8.896634611E0
1.402497823E1,3.442504406E0,-7.920597076E0,3.784616947E0,9.429210999E0
1.403497875E1,3.266528606E0,-7.748890400E0,4.781779766E0,9.673723652E0
1.404497745E1,2.128799677E0,-5.727949142E0,4.888738632E0,7.825660027E0
1.405497537E1,-6.269984841E-1,-3.105540752E0,6.044127464E0,6.824147366E0
1.406497563E1,-7.308058739E-1,9.721088409E-2,7.004179001E0,7.042872330E0
1.407497432E1,-3.506478786E0,3.700603485E0,8.024308205E0,9.506807129E0
1.408497693E1,-5.055552483E0,6.408675194E0,8.716069221E0,1.194150708E1
1.409497589E1,-6.116408348E0,8.097283363E0,8.631765366E0,1.332230544E1
1.410499115E1,-6.363836288E0,8.926557541E0,8.470953941E0,1.385420162E1
1.411500365E1,-6.507647038E0,8.886036873E0,8.213606834E0,1.373952177E1
1.412497464E1,-6.354237556E0,7.554665565E0,7.945301056E0,1.267190260E1
1.413498110E1,-5.133913517E0,5.091489792E0,7.524236202E0,1.043525116E1
1.414497693E1,-3.452101707E0,2.124795914E0,6.118983746E0,7.339872339E0
1.415497667E1,-1.957399845E0,-1.749820709E-1,4.145568371E0,4.587784868E0
1.416497485E1,-5.991338491E-1,-1.126689911E0,1.776323795E0,2.187171175E0
1.417497953E1,-4.037051201E-1,-1.111841202E-1,-9.918465018E-1,1.076614702E0
1.418497745E1,-1.814053506E-1,1.918545723E0,-6.539855957E0,6.817876615E0
1.419497563E1,1.654594660E0,3.980548859E0,-8.152776718E0,9.222267667E0
1.420497406E1,1.874502778E0,5.861559868E0,-9.033699036E0,1.093066160E1
1.421497693E1,2.478255510E0,6.991932869E0,-9.107343674E0,1.174617318E1
1.422497797E1,2.492169619E0,6.976499557E0,-9.017311096E0,1.167023371E1
1.423497563E1,2.547031164E0,6.000668526E0,-8.139554977E0,1.042821872E1
1.424497485E1,2.603142500E0,4.507202148E0,-7.089224815E0,8.794789967E0
1.425497823E1,2.540260077E0,2.857710838E0,-5.539324284E0,6.730790890E0
1.426497615E1,2.347409248E0,-2.085790634E-1,-4.560283184E0,5.133226872E0
1.427504734E1,1.152464151E0,-1.531865120E0,-4.286777496E0,4.695875389E0
1.428498662E1,9.615602493E-1,-3.101094723E0,-4.124683857E0,5.249228849E0
1.429500219E1,8.342307210E-1,-3.216830730E0,-4.656161785E0,5.720470559E0
1.430497667E1,7.675942779E-1,-3.140838623E0,-4.510628700E0,5.549760310E0
1.431497641E1,7.689253092E-1,-2.074578285E0,-4.331309795E0,4.863678211E0
1.432497849E1,8.026030660E-1,-1.574335098E-1,-4.108117580E0,4.188745283E0
1.433497511E1,8.093543053E-1,-1.244525909E-1,-3.837880850E0,3.924267098E0
1.434497771E1,8.252860904E-1,1.143567085E0,-2.800306797E0,3.135372540E0
1.435497589E1,8.120667934E-1,2.083132744E0,-2.539911270E0,3.383791330E0
1.436497615E1,6.757271290E-1,2.268250465E0,-1.452727318E0,2.777045910E0
1.437497667E1,5.656123161E-1,2.164182663E0,-1.325652838E0,2.600184481E0
1.438498240E1,-9.145899415E-1,1.106957436E0,-1.264773011E0,1.913499489E0
1.439497719E1,-8.876508474E-1,-1.272821426E-1,-1.229148388E0,1.521489576E0
1.440497745E1,-8.602461815E-1,-9.566783905E-2,-1.239432216E0,1.511743380E0
1.441497485E1,-8.326222301E-1,-6.834983826E-2,-1.877125621E0,2.054636726E0
1.442497823E1,-8.046386838E-1,-1.717053413E0,-1.906698823E0,2.689092084E0
1.443497458E1,-9.757610559E-1,-1.826520920E0,-1.933580160E0,2.833199701E0
1.444497667E1,-9.444689155E-1,-2.536339760E0,-1.938617826E0,3.329156047E0
1.445497781E1,-8.658712506E-1,-2.587215900E0,-1.900150180E0,3.324754103E0
1.446515021E1,-7.919206619E-1,-2.633790016E0,-1.816832304E0,3.296189892E0
1.447498089E1,-2.520994663E0,-2.697389603E0,-1.705497026E0,4.066945398E0
1.448497724E1,-2.635852575E0,-2.717917919E0,-1.531823993E0,4.084272439E0
1.449497979E1,-3.656462431E0,-2.711905003E0,-7.037882805E-1,4.606458965E0
1.450497771E1,-3.741119385E0,-2.659873486E0,-5.645422935E-1,4.624890184E0
1.451497797E1,-4.322689533E0,-2.571571827E0,-4.210455418E-1,5.047366225E0
1.452497563E1,-4.276592255E0,-2.442840576E0,-2.732329369E-1,4.932683613E0
1.453497745E1,-3.354906082E0,-1.543169975E0,5.276111364E-1,3.730300511E0
1.454497927E1,-3.109345436E0,8.568763733E-2,6.393736601E-1,3.175558233E0
1.455497667E1,-1.913342476E0,1.091098785E-1,7.675840855E-1,2.064453856E0
1.456497641E1,-1.629218102E0,1.333713531E-1,2.316672087E0,2.835332273E0
1.457497771E1,-1.446181983E-1,5.852127075E-2,2.180357218E0,2.185931554E0
1.458497563E1,9.179472923E-3,8.249950409E-2,2.233038425E0,2.234580730E0
1.459497641E1,1.596999466E-1,1.014242172E-1,2.258755922E0,2.266664788E0
1.460497771E1,3.061062396E-1,1.865028381E0,2.267825842E0,2.952129052E0
1.461497641E1,4.045314789E-1,1.970387459E0,2.274453163E0,3.036315143E0
1.462497740E1,2.948435545E-1,2.717975616E0,2.029697895E0,3.404995994E0
1.463500479E1,3.275370002E-1,2.791975975E0,4.059007168E-1,2.840275642E0
1.464497651E1,-8.446628451E-1,2.884156227E0,2.553095818E-1,3.016122585E0
1.465497662E1,-1.832050562E0,3.546625137E0,1.073572636E-1,3.993304986E0
1.466497719E1,-2.855027199E0,3.546750069E0,-5.492579937E-2,4.553419945E0
1.467497745E1,-3.756556511E0,3.505954742E0,-2.180062532E-1,5.143049893E0
1.468497589E1,-4.538066864E0,3.394552231E0,-3.610291481E-1,5.678677465E0
1.469497511E1,-4.675650597E0,2.552650452E0,-4.666150808E-1,5.347472530E0
1.470497432E1,-5.316940784E0,1.842978477E0,-4.582735300E-1,5.645922741E0
1.471497484E1,-5.098733425E0,-1.373109818E-1,-3.346625566E-1,5.111549263E0
1.472497537E1,-3.979496956E0,-1.112318039E-1,-2.803934813E-1,3.990913309E0
1.473497797E1,-2.963389158E0,-8.186435699E-2,-2.730931044E-1,2.977071870E0
1.474497511E1,-1.765969157E0,-5.130958557E-2,-2.721180916E-1,1.787548040E0
1.475498110E1,-3.655823469E-1,-1.985359192E-2,-2.961586714E-1,4.709082460E-1
1.476497542E1,1.065186262E0,1.277757645E0,-3.039191961E-1,1.691050930E0
1.477497641E1,2.492524862E0,3.064597130E0,-3.220442533E-1,3.963350635E0
1.478497537E1,3.580659151E0,5.329970360E0,-3.710685968E-1,6.431749054E0
1.479497615E1,4.604109764E0,7.555148125E0,-4.131063223E-1,8.857129712E0
1.480503037E1,5.736932278E0,9.067578316E0,-3.845298290E-1,1.073690978E1
1.481497932E1,6.641304970E0,9.196911812E0,-2.352077961E-1,1.134660484E1
1.482498620E1,6.704354763E0,9.226830482E0,1.550322533E0,1.151026818E1
1.483497386E1,6.648521423E0,9.133568764E0,1.584396839E0,1.140768289E1
1.484497771E1,6.443235397E0,8.168690681E0,1.607449174E0,1.052742526E1
1.485498839E1,6.102837563E0,6.592497826E0,1.624205947E0,9.129277017E0
1.486498578E1,4.472054958E0,4.616405487E0,1.442609191E0,6.587229801E0
1.487499490E1,2.774636269E0,2.770256996E0,1.402095914E0,4.163988857E0
1.488498552E1,3.889608979E-1,1.604662895E0,1.365164638E0,2.142407075E0
1.489498839E1,-2.972800970E0,1.456622124E0,1.372797966E0,3.583834242E0
1.490498682E1,-4.193152905E0,1.487282753E0,1.144075513E0,4.593849154E0
1.491498943E1,-4.469410419E0,1.568675041E0,1.119684577E0,4.867244029E0
1.492498500E1,-5.265164375E0,2.225228310E0,-1.522279978E-1,5.718108979E0
1.493498500E1,-5.263996601E0,2.263104439E0,-2.921888828E-1,5.737305662E0
1.494498474E1,-4.409514427E0,2.230864525E0,-1.249704361E0,5.097287024E0
1.495498448E1,-3.331193686E0,2.108479500E0,-2.047291756E0,4.442290029E0
1.496498761E1,-2.298204184E0,1.009840012E0,-2.242520094E0,3.366068284E0
1.497501651E1,-1.336678624E0,-3.966169357E-1,-3.187812090E0,3.479390846E0
1.498497828E1,3.247817159E-1,-3.761043549E-1,-3.273883581E0,3.311382091E0
1.499499781E1,4.645420909E-1,-2.560840130E0,-3.302687168E0,4.204930922E0
1.500498297E1,4.013955593E-1,-3.939782143E0,-3.308905840E0,5.160606513E0
1.501498396E1,5.347453952E-1,-5.203701973E0,-3.229006767E0,6.147434551E0
1.502498500E1,6.362780333E-1,-6.291581154E0,-3.071546316E0,7.030166422E0
1.503498552E1,1.724197984E0,-7.174274921E0,-2.289665699E0,7.725648733E0
1.504498266E1,2.332281113E0,-7.818019390E0,-2.088237762E0,8.421502201E0
1.505498578E1,2.396675825E0,-7.926835060E0,-1.168346405E0,8.363241142E0
1.506498526E1,3.217791796E0,-8.711334229E0,-2.365300655E-1,9.289643403E0
1.507498526E1,3.270095348E0,-8.725505829E0,-6.059098244E-2,9.318350005E0
1.508498943E1,3.295432091E0,-8.753521919E0,1.434274912E-1,9.354388815E0
1.509498761E1,3.274866343E0,-8.768013000E0,1.574488997E0,9.491144143E0
1.510497511E1,3.219947815E0,-8.794230461E0,1.682378531E0,9.515090691E0
1.511497511E1,3.108558655E0,-8.807929039E0,1.787515998E0,9.509887713E0
1.512497537E1,2.936224699E0,-9.771755219E0,1.870102525E0,1.037332632E1
1.513497745E1,2.731875896E0,-9.700711250E0,1.950659513E0,1.026508730E1
1.514497511E1,2.521152020E0,-9.828427315E0,3.705473900E0,1.080207053E1
1.515497261E1,1.807677865E0,-9.765534401E0,4.604817390E0,1.094704091E1
1.516496719E1,1.622457623E0,-8.592693329E0,5.529625893E0,1.034618335E1
1.517496240E1,8.381270170E-1,-6.833816051E0,6.523550987E0,9.484735959E0
1.518497334E1,5.661934018E-1,-4.786753654E0,7.588749886E0,8.990145179E0
1.519498188E1,-7.208555341E-1,-2.249581814E0,8.452200890E0,8.776101123E0
1.520497406E1,-8.137047291E-1,1.095972061E-1,8.476716995E0,8.516387612E0
1.521497719E1,-9.056515098E-1,3.617617607E0,8.387062073E0,9.178789246E0
1.522497979E1,-9.590399861E-1,6.244304657E0,8.053543091E0,1.023575374E1
1.523498136E1,-9.592919946E-1,7.980208397E0,7.534811497E0,1.101713899E1
1.524497563E1,1.094579697E-1,8.654438019E0,5.241824150E0,1.011869551E1
1.525497537E1,1.193473697E0,8.592659950E0,3.973910093E0,9.542020012E0
1.526498031E1,2.010977745E0,8.510647774E0,2.599107981E0,9.123076198E0
1.527497875E1,2.148611069E0,8.394992828E0,8.465654254E-1,8.706842547E0
1.528497693E1,2.258369923E0,8.297012329E0,-9.380526543E-1,8.649889657E0
1.529497328E1,2.267466545E0,7.594801903E0,-2.691871643E0,8.370698502E0
1.530497719E1,2.119317532E0,7.552546501E0,-3.932747841E0,8.774905756E0
1.531497563E1,4.709219933E-1,7.495639801E0,-5.029353619E0,9.038848454E0
1.532497693E1,-8.592169881E-1,6.689447403E0,-6.049993515E0,9.060319085E0
1.533499511E1,-2.141071320E0,5.237582207E0,-6.988754272E0,8.992171042E0
1.534497547E1,-2.945455074E0,3.072049141E0,-7.714796543E0,8.810861321E0
1.535497417E1,-3.681959152E0,-1.340522766E-1,-7.689108849E0,8.526264604E0
1.536497386E1,-3.843063593E0,-2.065864563E0,-7.553766727E0,8.723320809E0
1.537497641E1,-3.934727669E0,-4.179359913E0,-7.418825626E0,9.380197481E0
1.538497667E1,-3.882034063E0,-5.198113918E0,-7.238206863E0,9.720196262E0
1.539497484E1,-3.713706493E0,-5.162679195E0,-6.960282326E0,9.428170684E0
1.540497667E1,-2.929740906E0,-3.909622192E0,-6.591641426E0,8.204770817E0
1.541497615E1,-1.890375376E0,-1.319971085E-1,-5.193696976E0,5.528601141E0
1.542497563E1,-1.666317463E0,1.527905464E0,-3.660300970E0,4.302198529E0
1.543498057E1,-5.170418620E-1,2.815991402E0,-2.456120491E0,3.772223181E0
1.544497589E1,-3.832645714E-1,3.576756477E0,-1.175606728E0,3.784458985E0
1.545497589E1,-2.522703707E-1,3.612884521E0,7.643965483E-1,3.701469571E0
1.546497589E1,-1.241434515E-1,3.485548019E0,9.663999677E-1,3.619169171E0
1.547497511E1,1.478075027E0,2.009972572E0,9.572148919E-1,2.672256701E0
1.548497432E1,1.644959569E0,-1.920261383E-1,1.089570761E0,1.982405222E0
1.549497537E1,2.563481092E0,-1.651954651E-1,-9.660439491E-1,2.744442706E0
1.550500948E1,2.723441362E0,-1.841393471E0,-1.640827656E0,3.674258859E0
1.551497943E1,3.822824955E0,-2.528858185E0,-1.734868169E0,4.900906234E0
1.552503880E1,3.926453590E0,-2.581471920E0,-2.379621029E0,5.267222353E0
1.553497438E1,3.917311192E0,-2.561833858E0,-2.368396997E0,5.245724357E0
1.554497589E1,3.831069469E0,-2.489257336E0,-2.316532135E0,5.122481478E0
1.555497563E1,3.597797394E0,-2.387936592E0,-2.221060038E0,4.855872213E0
1.556497589E1,2.302196264E0,-2.287344456E0,-2.070383549E0,3.849485724E0
1.557497927E1,1.112510204E0,-2.193381310E0,-1.144193411E0,2.712522642E0
1.558497589E1,-6.216428876E-1,-2.117784500E0,-1.011085391E0,2.427703593E0
1.559497406E1,-2.640878677E0,-2.047438145E0,-9.796708822E-1,3.482240397E0
1.560497380E1,-3.645721436E0,-2.042973995E0,-1.046352506E0,4.308118046E0
1.561497484E1,-3.861807823E0,-2.045343876E0,-1.776731491E0,4.717389747E0
1.562497875E1,-4.579615593E0,-2.008997917E0,-1.761007547E0,5.301895811E0
1.563497615E1,-4.575148582E0,-1.904942989E0,-1.678174496E0,5.232309431E0
1.564497615E1,-4.448249340E0,-1.106731415E0,-1.543066859E0,4.836613686E0
1.565497641E1,-3.676524401E0,-9.363670349E-1,-1.348104715E0,4.026288765E0
1.566497589E1,-3.426816702E0,5.178356171E-2,-3.841173649E-1,3.448666466E0
1.567497511E1,-2.232255459E0,7.302474976E-2,-2.079443932E-1,2.243108985E0
1.568507490E1,-4.351807833E-1,9.541606903E-2,6.401617527E-1,7.799317983E-1
1.569497125E1,-2.696320117E-1,1.164828300E0,7.426500320E-1,1.407499720E0
1.570496177E1,-1.064075232E-1,1.245479584E0,8.336782455E-1,1.502518343E0
1.571497334E1,-1.470876038E-1,1.331723213E0,9.141265154E-1,1.621958312E0
1.572497641E1,8.314311504E-3,1.415390015E0,9.450864792E-1,1.701936096E0
1.573497620E1,1.159800291E-1,1.502427101E0,9.190382957E-1,1.765041062E0
1.574497875E1,-1.055430174E0,2.089492798E0,7.973421812E-1,2.472987577E0
1.575497745E1,-1.691069365E0,2.099952698E0,4.805636406E-2,2.696632408E0
1.576497599E1,-2.357595205E0,2.132548332E0,-4.136490822E-2,3.179265418E0
1.577498031E1,-3.560649633E0,2.273082733E0,-2.242875099E-2,4.224409305E0
1.578497667E1,-3.627153397E0,2.359967232E0,2.326631546E-2,4.327381243E0
1.579497823E1,-4.308778286E0,2.974601746E0,9.555387497E-2,5.236693270E0
1.580497302E1,-4.321612358E0,2.969278336E0,7.727992535E-1,5.300015650E0
1.581497537E1,-4.273024559E0,2.929930687E0,8.292977810E-1,5.246996047E0
1.582497693E1,-4.148634434E0,2.852313042E0,2.021605015E0,5.425287475E0
1.583497563E1,-3.982543230E0,2.750408173E0,2.025510788E0,5.246721800E0
1.584497537E1,-3.730310917E0,2.019812584E0,2.029435396E0,4.702496192E0
1.585497537E1,-2.533111095E0,1.915863037E0,1.835097551E0,3.668073884E0
1.586498453E1,-1.723497987E0,1.121910095E0,1.836188197E0,2.756939366E0
1.587507526E1,-8.167088032E-1,1.005776405E0,1.835500836E0,2.246700418E0
1.588498380E1,1.355028152E-1,1.155662537E-2,1.795173883E0,1.800317705E0
1.589497615E1,1.473747969E0,3.217983246E-2,1.524857283E-1,1.481965085E0
1.590497511E1,1.402372956E0,1.264061928E0,-7.837593555E-2,1.889615107E0
1.591497537E1,2.860771179E0,2.320302963E0,-1.147947311E0,3.858186181E0
1.592497589E1,3.638982296E0,3.698092461E0,-1.260205984E0,5.339119695E0
1.593497719E1,4.311241150E0,5.136493683E0,-1.307556391E0,6.832281560E0
1.594497589E1,5.097959518E0,7.200114250E0,-1.173743725E0,8.899916337E0
1.595497589E1,5.820958138E0,7.285284996E0,-1.030496359E-1,9.325746637E0
1.596497589E1,5.708212376E0,7.287891388E0,4.681575298E-2,9.257388461E0
1.597497771E1,5.503278732E0,7.141480446E0,1.428993464E0,9.128463293E0
1.598497485E1,4.625771999E0,5.908717155E0,1.456297278E0,7.644050417E0
1.599497563E1,3.569201946E0,4.576825142E0,1.280951619E0,5.943683030E0
1.600497458E1,2.200105429E0,3.315196991E0,1.305681825E0,4.187576867E0
1.601497589E1,4.540013969E-1,2.345786095E0,1.329626083E0,2.734361935E0
1.602497354E1,-1.061120749E0,2.179149628E0,1.349034786E0,2.773907929E0
1.603497615E1,-2.479300976E0,1.553704262E0,1.327678919E0,3.213045529E0
1.604499130E1,-3.534223318E0,1.591286659E0,1.108916759E0,4.031454337E0
1.605502490E1,-3.791826963E0,1.698000908E0,1.093439460E0,4.296134152E0
1.606497516E1,-4.489485741E0,2.546277046E0,1.083574653E0,5.273816743E0
1.607497511E1,-4.464507103E0,2.624315262E0,1.079498768E0,5.290006792E0
1.608497823E1,-3.764825583E0,2.695719719E0,1.077110887E0,4.754049256E0
1.609497693E1,-3.550343990E0,2.732167244E0,-2.286967039E-1,4.485753279E0
1.610498734E1,-2.347949028E0,2.704645157E0,-1.042335153E0,3.730205441E0
1.611498734E1,-2.105867386E0,2.543277740E0,-1.796022654E0,3.758807854E0
1.612498761E1,-8.355118036E-1,-3.512182236E-1,-2.875058413E0,3.014530658E0
1.613498630E1,1.979972571E-1,-1.397602081E0,-2.961908102E0,3.281066000E0
1.614498708E1,3.099994361E-1,-2.681361198E0,-2.989730358E0,4.027938076E0
1.615498995E1,4.194044769E-1,-3.941302299E0,-2.886275768E0,4.903096138E0
1.616498734E1,5.214207172E-1,-5.050326347E0,-1.922847986E0,5.429090178E0
1.617498578E1,2.266809225E0,-6.004977226E0,-1.118370056E0,6.515284118E0
1.618498500E1,2.413153410E0,-6.744386196E0,-9.251101017E-1,7.222595326E0
1.619498526E1,3.235162258E0,-6.876114368E0,-1.410582066E-1,7.600468476E0
1.620498552E1,3.312840462E0,-7.896285534E0,-6.471633911E-2,8.563318595E0
1.621510839E1,3.384482861E0,-8.026035309E0,-7.762312889E-3,8.710455055E0
1.622496386E1,3.455662012E0,-9.920066833E0,2.842712402E-2,1.050476720E1
1.623498860E1,3.448147535E0,-1.005213165E1,3.942859173E-2,1.062716457E1
1.624497620E1,3.424014091E0,-9.983971596E0,1.445317268E-2,1.055479845E1
1.625498943E1,3.348050117E0,-1.117893410E1,-2.317261696E-2,1.166955629E1
1.626499099E1,3.253839254E0,-1.128376102E1,-2.690410614E-2,1.174357086E1
1.627498526E1,3.133143425E0,-1.196498108E1,5.183911324E-2,1.236851031E1
1.628498917E1,2.951205015E0,-1.190949345E1,2.369956970E-1,1.227199300E1
1.629498969E1,2.698048115E0,-1.112450600E1,1.425443292E0,1.153542309E1
1.630498682E1,7.715440392E-1,-6.920588970E0,4.701619148E0,8.402086319E0
1.631498474E1,-4.357326627E-1,-3.403251648E0,6.170274734E0,7.060047807E0
1.632498761E1,-2.271974802E0,4.666328430E-2,7.506278515E0,7.842720453E0
1.633498396E1,-3.850007534E0,3.991522789E0,8.638714790E0,1.026558354E1
1.634498526E1,-5.004321098E0,6.739915848E0,9.361022949E0,1.257372045E1
1.635498656E1,-5.286147594E0,8.469702721E0,9.342473984E0,1.367336976E1
1.636497563E1,-5.456245899E0,9.108578682E0,9.115247726E0,1.399373310E1
1.637497458E1,-5.479673862E0,8.925445557E0,8.648410797E0,1.358254075E1
1.638497276E1,-5.278424740E0,6.610424995E0,6.860167503E0,1.089134448E1
1.639499641E1,-3.270797729E0,3.869433403E0,5.344855309E0,7.364652804E0
1.640498974E1,-7.030394077E-1,1.482921600E0,3.784053564E0,4.124606922E0
1.641497698E1,4.091197252E-1,-8.256435394E-2,2.158290863E0,2.198275522E0
1.642497646E1,1.631616116E0,-1.502971649E-1,4.757835865E-1,1.706203507E0
1.643498656E1,2.643009901E0,1.928821564E0,-1.097095013E0,3.451010204E0
1.644497849E1,2.904196978E0,4.940959930E0,-2.829898357E0,6.391851831E0
1.645497615E1,3.575897455E0,7.645725250E0,-4.140165329E0,9.401336403E0
1.646497615E1,3.430290222E0,9.493018150E0,-5.570581913E0,1.152890574E1
1.647497615E1,-3.766454756E-1,1.042020893E1,-7.735192299E0,1.298290476E1
1.648497589E1,-3.842333555E-1,8.631857872E0,-7.682293892E0,1.156175787E1
1.649497745E1,-3.873334229E-1,6.192362785E0,-7.439920902E0,9.687507785E0
1.650497484E1,-1.744110823E0,2.530796051E0,-6.245445728E0,6.960778948E0
1.651497771E1,-1.875571489E0,-1.401749611E0,-6.053210258E0,6.490302367E0
1.652497641E1,-1.967853785E0,-4.269943237E0,-5.854642868E0,7.508775325E0
1.653497302E1,-1.918139935E0,-5.582555771E0,-5.559269905E0,8.108617121E0
1.654497641E1,-4.878246486E-1,-5.581990242E0,-4.682727337E0,7.302364224E0
1.655497641E1,-4.121680260E-1,-4.332758904E0,-3.750535727E0,5.745363386E0
1.656500792E1,1.731213808E0,-2.310006618E0,-2.845092535E0,4.053120200E0
1.657497354E1,2.788072586E0,-2.124214172E-1,-2.602458715E0,3.819851171E0
1.658505604E1,2.936013222E0,1.571685791E0,-2.350779772E0,4.076338479E0
1.659497542E1,3.562866211E0,2.741562843E0,-2.093168020E0,4.958985261E0
1.660497458E1,3.550340414E0,2.873340607E0,-1.871775031E0,4.936045489E0
1.661497797E1,3.440864563E0,2.894736290E0,-1.721151829E0,4.814707753E0
1.662498005E1,2.419201851E0,2.743693352E0,-1.633872747E0,4.006236508E0
1.663497901E1,2.200244427E0,1.111365318E0,-1.667261362E0,2.975897992E0
1.664497745E1,1.013964534E0,-1.528892517E-1,-2.891772032E0,3.068198931E0
1.665497719E1,-7.663360238E-1,-2.624211311E0,-4.030436516E0,4.870130842E0
1.666497615E1,-7.904988527E-1,-2.726596355E0,-4.687293530E0,5.479957733E0
