"Time (s)","Linear Acceleration x (m/s^2)","Linear Acceleration y (m/s^2)","Linear Acceleration z (m/s^2)","Absolute acceleration (m/s^2)"
8.776939200E-2,0.000000000E0,0.000000000E0,0.000000000E0,0.000000000E0
9.772595400E-2,-7.999999821E-2,-1.476573944E-2,3.309988976E-1,3.408493758E-1
1.077376210E-1,-2.666666545E-2,-2.379989624E-2,3.313140869E-1,3.332365080E-1
1.177365790E-1,-1.083701372E0,-2.422904968E-2,1.106367111E0,1.548884726E0
1.277384020E-1,-1.570234656E0,-3.641891479E-2,1.554618835E0,2.209932790E0
1.377376210E-1,-1.402541637E0,-5.653452873E-2,1.370857716E0,1.962032129E0
1.477506420E-1,-1.269218564E0,-7.637524605E-2,1.255198479E0,1.786693080E0
1.577376730E-1,-1.148079395E0,-8.308529854E-2,1.139076233E0,1.619408574E0
1.677291310E-1,-1.028811932E0,-9.707021713E-2,9.884510040E-1,1.430004198E0
1.777203290E-1,-8.956623077E-1,-1.034896374E-1,8.349199295E-1,1.228825603E0
1.877592880E-1,-7.500895262E-1,-9.482383728E-2,6.866807938E-1,1.021350268E0
1.977397040E-1,-5.981889963E-1,-8.296442032E-2,4.225873947E-2,6.053915852E-1
2.077386630E-1,1.285828352E-1,-6.390905380E-2,2.906799316E-3,1.436188085E-1
2.177407460E-1,1.906708479E-1,-3.894352913E-2,-2.924156189E-2,1.967918688E-1
2.277373610E-1,2.546554804E-1,-4.513978958E-3,-4.630041122E-2,2.588696927E-1
2.377384020E-1,3.202022314E-1,2.847480774E-2,-5.093240738E-2,3.254756424E-1
2.477399650E-1,3.638516665E-1,7.415866852E-2,-3.139448166E-2,3.726568888E-1
2.577376210E-1,4.032744169E-1,1.163890362E-1,-1.133918762E-3,4.197355702E-1
2.677410060E-1,1.429567814E0,9.978127480E-2,1.169141769E0,1.849462872E0
2.777394440E-1,2.854754448E0,1.416344643E-1,2.338240623E0,3.692838000E0
2.877381420E-1,2.818704128E0,2.509953976E-1,2.155593395E0,3.557340936E0
2.977363190E-1,2.731392384E0,1.092412949E0,2.081001759E0,3.603392668E0
3.077381420E-1,2.648478508E0,1.121804476E0,2.013460636E0,3.510969584E0
3.177373610E-1,2.607296228E0,1.156720400E0,8.144693375E-1,2.966370848E0
3.277371000E-1,3.130848169E0,1.182157993E0,7.026553154E-1,3.419566094E0
3.378044440E-1,3.017254591E0,1.223271847E0,7.005844116E-1,3.330320975E0
3.477327250E-1,4.661174715E-1,1.966357708E0,-4.950323105E-1,2.080597299E0
3.578926730E-1,4.886651337E-1,1.898246288E0,-1.683618069E0,2.583931575E0
3.677351210E-1,5.110429525E-1,1.792021751E0,-1.735702515E0,2.546599709E0
3.777358500E-1,5.332673788E-1,1.677600861E0,-1.684290886E0,2.436299352E0
3.877407460E-1,3.616027832E-1,1.566082001E0,-1.526356697E0,2.216559084E0
3.977394440E-1,3.894330263E-1,1.471624851E0,-8.450002670E-1,1.741081054E0
4.077397040E-1,-1.031872272E0,1.401463509E0,-7.311096191E-1,1.887692143E0
4.177394440E-1,-1.027566314E0,1.295706749E0,-5.805749893E-1,1.752659644E0
4.277443920E-1,-9.823805690E-1,1.235924721E0,3.193325996E-1,1.610762182E0
4.377355380E-1,-9.460572004E-1,1.196047306E0,3.911499977E-1,1.574341674E0
4.477423090E-1,-9.269710183E-1,1.163721085E0,4.896035194E-1,1.566280191E0
4.577404860E-1,-9.370247722E-1,1.142742634E0,1.099515438E0,1.841958292E0
4.677360590E-1,-9.289042950E-1,1.121975422E0,1.104283810E0,1.827877121E0
4.777391840E-1,-8.861633539E-1,1.072747231E0,1.091278076E0,1.768321224E0
4.877368400E-1,-8.283311725E-1,9.945454597E-1,1.063156128E0,1.674978852E0
4.977404860E-1,-7.385615110E-1,8.773756027E-1,9.934420586E-1,1.517296338E0
5.077357980E-1,-6.168687344E-1,8.806800842E-2,8.931117058E-1,1.089004834E0
5.177408500E-1,7.504168153E-1,-6.837749481E-2,7.811942101E-1,1.085387153E0
5.277572040E-1,5.778548121E-1,-1.262480259E0,1.705894470E-1,1.398882893E0
5.377386630E-1,6.049827933E-1,-1.986515522E0,1.218729019E-1,2.080168528E0
5.477357460E-1,6.318199039E-1,-2.667325020E0,4.621076584E-2,2.741524136E0
5.577355900E-1,2.129971027E0,-3.301735878E0,-5.854182243E-1,3.972524497E0
5.677384020E-1,2.182961702E0,-3.375906944E0,-6.793937683E-1,4.077210490E0
5.777371000E-1,2.233547211E0,-4.409931183E0,-1.270789623E0,5.104031000E0
5.877368400E-1,2.262802839E0,-4.287479877E0,-1.306889534E0,5.021027847E0
5.977389230E-1,2.264134169E0,-4.168822765E0,-1.344904423E0,4.930938520E0
6.077376210E-1,2.188078165E0,-2.129558563E0,-1.497112751E0,3.400595877E0
6.177363190E-1,2.066697121E0,-1.354420662E0,-2.110704422E0,3.249733139E0
6.277391840E-1,1.934315681E0,-5.763580799E-1,-2.103916168E0,2.915515226E0
6.377407460E-1,1.812027574E0,1.002454758E-1,-2.113458157E0,2.785713277E0
6.477402250E-1,1.713137746E0,2.253704071E-1,-2.156390190E0,2.763268248E0
6.577389230E-1,1.620108247E0,9.330396652E-1,-2.228049278E0,2.908524941E0
6.677373610E-1,1.537135005E0,9.255728722E-1,-2.982243061E0,3.480408430E0
6.777350170E-1,1.458157897E0,8.885488510E-1,-2.968421459E0,3.424510107E0
6.877378810E-1,1.387606144E0,8.213148117E-1,-2.932056427E0,3.346186445E0
6.977696520E-1,1.324451208E0,7.426638603E-1,-2.871562481E0,3.248321366E0
7.077350170E-1,1.253298998E0,6.494765282E-1,-2.775935650E0,3.114224923E0
7.177392360E-1,1.156054616E0,5.487427711E-1,-2.655060291E0,2.947359166E0
7.277250690E-1,4.780934751E-2,4.561610222E-1,-2.531985760E0,2.573192667E0
7.377366310E-1,8.653675020E-2,3.707513809E-1,-1.879474640E0,1.917647026E0
7.477410060E-1,1.247290820E-1,3.109993935E-1,-1.817374229E0,1.848006238E0
7.577389230E-1,1.624089479E-1,2.783079147E-1,-1.765763283E0,1.794923935E0
7.677394440E-1,2.375498414E-3,2.932052612E-1,-1.723309994E0,1.748076744E0
7.777407460E-1,4.179500788E-2,3.491582870E-1,-1.703366756E0,1.739286244E0
7.877368400E-1,1.201710701E-1,1.564847946E0,-1.714501858E0,2.324372346E0
7.977384020E-1,1.580635607E-1,1.691100121E0,-1.710284233E0,2.410368409E0
8.077376210E-1,-1.911297441E-3,2.732748508E0,-1.738019943E0,3.238615659E0
8.177386630E-1,3.760038316E-2,2.848248005E0,-1.812722683E0,3.376372908E0
8.277376210E-1,7.661809772E-2,3.778120995E0,-2.749773502E0,4.673470113E0
8.377371000E-1,1.151603684E-1,3.848475933E0,-3.505049229E0,5.206668706E0
8.477420480E-1,1.532448083E-1,5.340370178E0,-4.457489014E0,6.957890910E0
8.577373610E-1,-6.672807038E-3,5.196219444E0,-5.501979828E0,7.567861195E0
8.677368400E-1,3.292565793E-2,5.153372765E0,-6.688607216E0,8.443684115E0
8.777371000E-1,7.205749303E-2,5.111785412E0,-6.569457054E0,8.324260229E0
8.877600690E-1,1.107391715E-1,5.071411133E0,-8.043873787E0,9.509751813E0
8.977557980E-1,1.489863992E-1,5.032208920E0,-8.062073708E0,9.504859600E0
9.077848090E-1,-1.088701189E-2,4.895287037E0,-8.047786713E0,9.419704065E0
9.177243400E-1,-9.223611951E-1,5.900729656E0,-7.981276035E0,9.968456641E0
9.277389230E-1,-9.968277216E-1,5.942193508E0,-7.840662956E0,9.888342874E0
9.377339750E-1,-1.588235736E0,6.501897335E0,-7.636198044E0,1.015424454E1
9.477365790E-1,-1.637635946E0,6.441688061E0,-5.873372555E0,8.869819712E0
9.577412670E-1,-1.717160225E0,6.352390289E0,-5.967792034E0,8.883470233E0
9.677394440E-1,-2.352006197E0,6.213828564E0,-5.864052296E0,8.861755351E0
9.777430900E-1,-2.424233913E0,4.490191460E0,-4.014597893E0,6.492744077E0
9.877360590E-1,-2.434056997E0,4.463210583E0,-2.983664274E0,5.894670022E0
9.977417880E-1,-2.454224110E0,4.338022709E0,-2.166971684E0,5.434834246E0
1.007740486E0,-2.478500128E0,4.313552380E0,-2.080598831E0,5.392456630E0
1.017736579E0,-2.472341299E0,4.289779663E0,-2.032486916E0,5.352166301E0
1.027743611E0,-2.410711050E0,4.266681194E0,-1.949595690E0,5.274184253E0
1.037739184E0,-2.281685352E0,4.244239330E0,-1.851254702E0,5.162053807E0
1.047736579E0,-1.515877604E0,4.123413563E0,-1.744508743E0,4.726916022E0
1.057746736E0,-1.443768978E0,4.103185654E0,-1.844374895E0,4.724650265E0
1.067872152E0,-1.355370522E0,4.083539963E0,-2.860929966E0,5.166937986E0
1.077738767E0,-1.238380790E0,4.064458370E0,-3.619474173E0,5.581577027E0
1.087747673E0,4.761372209E-1,4.045926094E0,-3.664122343E0,5.479235089E0
1.097724809E0,3.131826520E-1,3.928861618E0,-3.689109087E0,5.398477826E0
1.107737152E0,3.499124646E-1,3.912297726E0,-3.769968748E0,5.444371092E0
1.117738923E0,3.863352835E-1,3.896222115E0,-5.394157887E0,6.665338778E0
1.127745434E0,4.224595129E-1,3.880619526E0,-5.305483818E0,6.586792732E0
1.137748298E0,4.582931995E-1,3.865479469E0,-5.218047142E0,6.509990796E0
1.147750902E0,2.956298590E-1,3.751680851E0,-6.463294983E0,7.479083383E0
1.157750121E0,3.723348677E-1,3.758420467E0,-7.200517654E0,8.130917055E0
1.167747256E0,4.087493420E-1,3.745563984E0,-7.208271980E0,8.133603785E0
1.177748819E0,4.448808432E-1,3.733102798E0,-7.236889839E0,8.155154812E0
1.187746996E0,2.824459672E-1,3.621879578E0,-7.239863396E0,8.100210453E0
1.197751684E0,3.197133541E-1,3.611015797E0,-7.191457272E0,8.053490510E0
1.207748038E0,3.566905558E-1,3.600503445E0,-7.118032455E0,7.984813038E0
1.217749861E0,3.933847845E-1,3.590332031E0,-7.071671486E0,7.940640609E0
1.227746475E0,1.503891706E0,3.580494881E0,-7.058622837E0,8.056412987E0
1.237748559E0,1.566236854E0,3.471802235E0,-7.069683075E0,8.030375297E0
1.247740590E0,1.667506218E0,3.463413239E0,-7.692461967E0,8.599405757E0
1.257753246E0,2.377450943E0,3.455321789E0,-7.785755157E0,8.843613799E0
1.267746006E0,2.435900688E0,3.447518826E0,-9.025769234E0,9.964111023E0
1.277724079E0,2.523294449E0,3.439999104E0,-9.897939682E0,1.077821036E1
1.287737621E0,3.367769957E0,3.333542347E0,-1.079813576E1,1.179212088E1
1.297736631E0,3.463099718E0,1.886044025E0,-1.165069199E1,1.229995307E1
1.307738663E0,4.180795670E0,1.750041008E0,-1.263248444E1,1.342092989E1
1.317739184E0,4.239902020E0,8.180651665E-1,-1.380757427E1,1.446703518E1
1.327738142E0,4.311741352E0,7.035751343E-1,-1.368232632E1,1.436287523E1
1.337745954E0,5.008093834E0,-3.074645996E-2,-1.511630058E1,1.592433649E1
1.347737621E0,5.004899025E0,-1.217617989E-1,-1.503230572E1,1.584405426E1
1.357738402E0,5.007473469E0,-2.007036209E-1,-1.485851669E1,1.568089892E1
1.367737361E0,5.029696465E0,-2.642245293E-1,-1.324578285E1,1.417104176E1
1.377739184E0,5.093349934E0,-3.191714287E-1,-1.322851372E1,1.417877495E1
1.387742569E0,5.664928436E0,-3.617568016E-1,-1.196324635E1,1.324165946E1
1.397737361E0,5.665162563E0,-3.935718536E-1,-1.092928886E1,1.231658722E1
1.407741267E0,5.660564423E0,-3.916521072E-1,-9.870678902E0,1.138532753E1
1.417739444E0,5.661546230E0,-3.652987480E-1,-9.018108368E0,1.065423988E1
1.427745954E0,5.647922039E0,-3.079967499E-1,-8.856775284E0,1.050887024E1
1.437736371E0,5.607034206E0,-2.335939407E-1,-8.718980789E0,1.036889699E1
1.447726527E0,5.552262306E0,-1.541352272E-1,-8.601797104E0,1.023925231E1
1.457721996E0,5.490371704E0,-7.034587860E-2,-8.492916107E0,1.011329590E1
1.467734809E0,5.422371387E0,7.397174835E-3,-8.396251678E0,9.994959151E0
1.477738663E0,5.334524632E0,5.546331406E-2,-8.344431877E0,9.904028098E0
1.487745694E0,5.258761883E0,7.282876968E-2,-8.346285820E0,9.865108593E0
1.497738142E0,5.193585396E0,6.349802017E-2,-8.394832611E0,9.871705822E0
1.507737621E0,5.127939701E0,2.609872818E-2,-8.987385750E0,1.034744168E1
1.517737100E0,5.042467117E0,-6.003808975E-2,-8.967538834E0,1.028818895E1
1.527739704E0,4.208166599E0,-2.189688683E-1,-8.899084091E0,9.846334910E0
1.537743090E0,4.201815605E0,-2.533621788E-1,-8.721275330E0,9.684012089E0
1.547738142E0,4.183311462E0,-2.294497490E-1,-7.593115807E0,8.672263236E0
1.557742309E0,4.159150124E0,-1.889872551E-1,-7.393049717E0,8.484776370E0
1.567738142E0,4.159355640E0,-1.341657639E-1,-6.452474594E0,7.678064091E0
1.577737100E0,4.166141033E0,-5.227518082E-2,-6.327473640E0,7.576040290E0
1.587742569E0,4.193286896E0,7.143316269E-1,-6.199408054E0,7.518416382E0
1.597736840E0,4.233261585E0,8.068780899E-1,-6.068796158E0,7.443241411E0
1.607738402E0,4.260004520E0,9.062557220E-1,-5.415477753E0,6.949556622E0
1.617757517E0,4.206982136E0,9.822545052E-1,-5.407869816E0,6.921602311E0
1.627749809E0,4.191916943E0,1.023245811E0,-5.460673332E0,6.959752358E0
1.637826475E0,4.219642639E0,1.048396111E0,-5.512364388E0,7.020732123E0
1.647734288E0,4.289458275E0,1.045127869E0,-5.528942108E0,7.075375989E0
1.657741788E0,5.101562500E0,1.012273788E0,-5.529621601E0,7.591268222E0
1.667743350E0,5.205789089E0,9.293308258E-1,-5.521372795E0,7.645224220E0
1.677739184E0,6.102291107E0,8.126349449E-1,-5.515140057E0,8.265295043E0
1.687745694E0,6.170594215E0,7.674598694E-2,-5.505810738E0,8.270191944E0
1.697741788E0,6.753912449E0,3.626775742E-2,-5.488938332E0,8.703165673E0
1.707741788E0,6.833401680E0,-4.363965988E-2,-5.364813805E0,8.687836906E0
1.717738923E0,6.851500511E0,-5.381965637E-2,-5.212579727E0,8.609119770E0
1.727740225E0,6.862524033E0,-6.263875961E-2,-4.269401073E0,8.082446736E0
1.737743871E0,6.872289181E0,-5.075645447E-2,-4.136013508E0,8.021068666E0
1.747736840E0,6.895612717E0,-2.087163925E-2,-3.430953979E0,7.702035807E0
1.757738402E0,6.940500259E0,1.490020752E-2,-3.337977409E0,7.701484211E0
1.767737361E0,8.355148315E0,4.601478577E-2,-3.245072365E0,8.963320556E0
1.777736059E0,8.328359604E0,6.817865372E-2,-3.142543793E0,8.901786535E0
1.787744652E0,8.301979065E0,8.254003525E-2,-3.051233530E0,8.845320532E0
1.797866527E0,8.276001930E0,9.010314941E-2,-2.979511261E0,8.796465988E0
1.807739965E0,8.150969505E0,1.210198402E-1,-2.949285030E0,8.668981017E0
1.817745954E0,8.126318932E0,1.722402573E-1,-2.955199003E0,8.648695117E0
1.827748923E0,8.102045059E0,2.508568764E-1,-2.982811451E0,8.637315987E0
1.837736423E0,8.078142166E0,3.532676697E-1,-3.014662504E0,8.629563657E0
1.847738142E0,8.054603577E0,9.968943596E-1,-3.025794506E0,8.661747487E0
1.857738142E0,7.931959152E0,1.030949593E0,-3.028657436E0,8.552870800E0
1.867737881E0,7.909661293E0,1.079449177E0,-3.024331093E0,8.536658061E0
1.877739444E0,7.887705803E0,1.125854492E0,-2.994240284E0,8.511693489E0
1.887743611E0,7.886199474E0,1.162766933E0,-2.834051609E0,8.460261084E0
1.897737881E0,6.744402885E0,1.133520603E0,-1.498212814E0,7.001177106E0
1.907739184E0,6.614073277E0,1.078073025E0,-1.450657248E0,6.856574451E0
1.917736319E0,5.920806408E0,1.009613991E0,-1.403385878E0,6.168043519E0
1.927738142E0,5.830806732E0,9.249920845E-1,-1.356394172E0,6.057534371E0
1.937744392E0,5.714707851E0,8.263525963E-1,-1.309677839E0,5.920810796E0
1.947736059E0,5.585735798E0,2.015342712E-1,-1.462217689E0,5.777468393E0
1.957737100E0,4.931515694E0,1.666250229E-1,-1.415034652E0,5.133218678E0
1.967738402E0,4.892633915E0,1.410131454E-1,-1.368124962E0,5.082274810E0
1.977751840E0,4.855832577E0,1.235108376E-1,-2.760079861E0,5.586806402E0
1.987749652E0,4.855048656E0,1.228432655E-1,-2.825578213E0,5.618761444E0
1.997734027E0,4.890520096E0,1.563606262E-1,-2.905326366E0,5.690567349E0
2.007722413E0,4.962434769E0,2.098593712E-1,-2.977917194E0,5.791182142E0
2.017732048E0,5.682713032E0,2.758445740E-1,-3.556446552E0,6.709517845E0
2.027737100E0,5.758210182E0,3.526659012E-1,-3.555645466E0,6.776722838E0
2.037746736E0,7.457983971E0,4.388799667E-1,-3.528453350E0,8.262210574E0
2.047739184E0,7.342341900E0,5.234613419E-1,-3.483188629E0,8.143500438E0
2.057741267E0,7.326945305E0,6.016926765E-1,-3.431985378E0,8.113241351E0
2.067738402E0,7.359622955E0,6.823430061E-1,-3.299904823E0,8.094381623E0
2.077738402E0,7.372702599E0,6.705055237E-1,-3.196002722E0,8.063544795E0
2.087743871E0,7.255408764E0,6.468324661E-1,-3.106802940E0,7.919063902E0
2.097727256E0,7.240291595E0,5.956325531E-1,-3.045468092E0,7.877275952E0
2.107736579E0,7.224864006E0,5.120835304E-1,-3.016975880E0,7.846211373E0
2.117737361E0,7.210808754E0,3.844285011E-1,-3.016539574E0,7.825794475E0
2.127737361E0,7.195315361E0,-6.922488213E-1,-3.040415287E0,7.841931949E0
2.137742569E0,7.079886913E0,-1.452360153E0,-3.060566902E0,7.848644372E0
2.147735798E0,7.064097404E0,-2.160497189E0,-2.985053539E0,7.967418959E0
2.157735538E0,7.049289703E0,-2.276754379E0,-2.784809351E0,7.913991341E0
2.167746423E0,7.033416748E0,-2.361225605E0,-1.719882607E0,7.615926319E0
2.177738038E0,5.898183346E0,-2.413076401E0,-1.565314651E0,6.562142520E0
2.187749236E0,5.009497166E0,-2.416213512E0,-1.457733154E0,5.749620469E0
2.197735329E0,4.802232742E0,-2.340485573E0,-4.046013355E-1,5.357519414E0
2.207736579E0,3.543119907E0,-1.437890530E0,-3.265444934E-1,3.837689299E0
2.217737361E0,3.328912735E0,-3.095893860E-1,-2.640940547E-1,3.353692182E0
2.227738663E0,2.435504913E0,6.576948166E-1,-1.432854176E0,2.901261406E0
2.237745694E0,2.375840902E0,8.153162003E-1,-2.558800697E0,3.585641018E0
2.247735017E0,2.468472958E0,9.017047882E-1,-3.339848280E0,4.249825502E0
2.257741788E0,4.415534973E0,9.498505592E-1,-4.116748810E0,6.111201678E0
2.267736840E0,5.283577919E0,9.111528397E-1,-4.170861721E0,6.792825820E0
2.277737100E0,6.544056892E0,7.854104042E-1,-4.230996132E0,7.832169456E0
2.287749079E0,6.560297012E0,-1.378312111E-1,-4.283293724E0,7.836012982E0
2.297745694E0,6.578613281E0,-2.813029289E-1,-4.305097103E0,7.867092545E0
2.307748559E0,6.603843689E0,-1.067449093E0,-4.310953617E0,7.958298821E0
2.317746475E0,6.628777027E0,-1.122796535E0,-4.884391308E0,8.310152549E0
2.327748559E0,6.540978909E0,-1.160744190E0,-4.862921238E0,8.232844899E0
2.337747777E0,6.532947540E0,-1.198347092E0,-4.849753380E0,8.224083363E0
2.347805069E0,6.525194645E0,-1.254158020E0,-4.839788914E0,8.220379202E0
2.357739496E0,6.501246929E0,-1.317402363E0,-4.808629036E0,8.192964898E0
2.367879652E0,6.476289272E0,-1.388572216E0,-4.767169952E0,8.160659587E0
2.377734809E0,6.339006424E0,-1.416200638E0,-4.733675003E0,8.037182698E0
2.387747256E0,6.305372238E0,-1.402325630E0,-4.701938152E0,7.989521802E0
2.397738923E0,6.272987366E0,-1.366621494E0,-4.683345795E0,7.946807701E0
2.407751684E0,6.241678238E0,-1.297206879E0,-4.667125702E0,7.900845222E0
2.417732725E0,6.211607933E0,-1.198362350E0,-4.632128239E0,7.840711540E0
2.427746996E0,6.084356785E0,-1.059837818E0,-4.565829277E0,7.680459014E0
2.437751163E0,4.376935482E0,-1.476588249E-1,-4.402645588E0,6.209883696E0
2.447748298E0,4.242277145E0,-2.563428879E-2,-4.199567318E0,5.969416902E0
2.457750642E0,3.559437513E0,6.179618835E-1,-3.243312359E0,4.854950809E0
2.467749079E0,3.451524258E0,6.808414459E-1,-3.039551497E0,4.649240591E0
2.477744913E0,3.345432997E0,7.475419044E-1,-2.174366713E0,4.059385598E0
2.487746215E0,3.268739223E0,8.176326752E-1,-2.027643442E0,3.932495039E0
2.497748298E0,3.216975689E0,8.883213997E-1,-1.880017281E0,3.830471572E0
2.507748298E0,3.215061665E0,9.619226456E-1,-1.742583156E0,3.781337427E0
2.517737100E0,3.263985395E0,1.010151863E0,-1.647140622E0,3.793030408E0
2.527858663E0,3.356301785E0,1.025623322E0,-1.570766926E0,3.844993316E0
2.537743663E0,3.464651346E0,1.009164810E0,-1.529286265E0,3.919303388E0
2.547759965E0,3.571075201E0,9.720354080E-1,-1.495087385E0,3.991580792E0
2.557741215E0,3.665863991E0,8.973011971E-1,-1.462989926E0,4.047721305E0
2.567737777E0,3.745350599E0,7.900762558E-1,-1.422570586E0,4.083574252E0
2.577738402E0,3.822804689E0,1.459026337E-1,-1.368637800E0,4.063039835E0
2.587739965E0,3.882012606E0,3.318691254E-2,-1.297047377E0,4.093098477E0
2.597738663E0,3.891010523E0,-6.047830582E-1,-1.213168025E0,4.120376450E0
2.607742829E0,3.861376762E0,-6.867833138E-1,-1.111705422E0,4.076492459E0
2.617737100E0,3.708677053E0,-8.394742012E-1,-3.632824421E-1,3.819813681E0
2.627737100E0,3.640579700E0,-9.229464531E-1,-3.127080202E-1,3.768744753E0
2.637740746E0,3.557090521E0,-9.946141243E-1,-2.734919786E-1,3.703639844E0
2.647739704E0,2.931745768E0,-1.061462402E0,-2.495633364E-1,3.127957406E0
2.657738402E0,2.892458916E0,-1.117894650E0,-2.239300013E-1,3.109043530E0
2.667737881E0,2.837393761E0,-1.173194885E0,-2.094539404E-1,3.077508821E0
2.677749079E0,2.781936407E0,-1.220423698E0,-2.125434875E-1,3.045287985E0
2.687739965E0,2.736807823E0,-1.270836830E0,-2.162182331E-1,3.025209684E0
2.697738663E0,2.690714121E0,-1.319147110E0,-2.161401510E-1,3.004464702E0
2.707750381E0,2.658998728E0,-1.375360489E0,-1.919393539E-1,2.999788563E0
2.717751319E0,2.663371325E0,-1.467311382E0,-1.197751760E-1,3.043171963E0
2.727753038E0,2.690573215E0,-2.128044128E0,5.116302967E-1,3.468360074E0
2.737744131E0,2.732877254E0,-2.166146278E0,1.589135289E0,3.832252439E0
2.747737152E0,2.767951488E0,-2.208027363E0,1.618365407E0,3.893076787E0
2.757738663E0,2.786776304E0,-2.262852669E0,1.448178649E0,3.870897282E0
2.767741788E0,2.781081676E0,-2.304590225E0,1.476089120E0,3.901844498E0
2.777739965E0,2.743801832E0,-2.315331459E0,1.501273632E0,3.891404731E0
2.787743090E0,2.658697605E0,-2.304794788E0,1.471784115E0,3.814039912E0
2.797739444E0,1.796396494E0,-2.134029388E0,1.289276361E0,3.073004284E0
2.807737621E0,1.682260990E0,-1.360114574E0,1.267495036E0,2.507280870E0
2.817739444E0,1.550076485E0,-1.200612068E0,1.245337248E0,2.322729280E0
2.827739704E0,8.885583878E-1,1.524772644E-1,1.218760610E0,1.515969244E0
2.837739444E0,8.712539673E-1,1.011307240E0,1.194997311E0,1.791603857E0
2.847737621E0,9.269340038E-1,1.752388477E0,9.717776179E-1,2.207809720E0
2.857737881E0,1.649951220E0,3.348797321E0,9.511274695E-1,3.852457137E0
2.867738402E0,1.812145233E0,3.343043327E0,9.288178086E-1,3.914397981E0
2.877738663E0,2.984278202E0,3.335912228E0,9.074010253E-1,4.567012524E0
2.887756892E0,3.770532608E0,3.311233997E0,8.768668175E-1,5.094122314E0
2.897736631E0,4.624037743E0,4.739559174E0,2.288305044E0,7.005818024E0
2.907730121E0,5.967165947E0,4.637557983E0,2.985970259E0,8.125886528E0
2.917735798E0,6.074553490E0,4.523456573E0,3.721186638E0,8.438547829E0
2.927727048E0,6.175443649E0,4.425338745E0,3.793695927E0,8.491869998E0
2.937743350E0,6.250406742E0,4.351434708E0,4.434067726E0,8.812691136E0
2.947739704E0,6.207618713E0,4.236959457E0,4.304838657E0,8.661292710E0
2.957738663E0,5.071498871E0,4.105880737E0,4.020555019E0,7.664412573E0
2.967740746E0,4.967682362E0,4.011333466E0,2.682787657E0,6.925750055E0
2.977742048E0,3.989022493E0,3.948325157E0,1.673452377E0,5.856792199E0
2.987739184E0,3.072549582E0,3.969191074E0,-4.170902371E-1,5.036765131E0
2.997738402E0,3.077809334E0,3.886495590E0,-1.605316639E0,5.211026749E0
3.007739444E0,3.099204540E0,2.676893234E0,-2.494204998E0,4.794985375E0
3.017738142E0,3.052010536E0,2.679023743E0,-2.727887392E0,4.892167838E0
3.027737881E0,2.303930283E0,2.683176041E0,-3.726894379E0,5.137827374E0
3.037737881E0,2.251059294E0,1.225461006E0,-3.955933571E0,4.713643287E0
3.047737100E0,2.236044407E0,1.079386711E0,-5.146285057E0,5.713949610E0
3.057740225E0,2.266401529E0,1.283698082E-1,-5.834862232E0,6.260884280E0
3.067736319E0,2.288690567E0,-3.468418121E-2,-5.933481693E0,6.359678648E0
3.077776475E0,2.249161482E0,-6.878194809E-1,-6.729983807E0,7.129130736E0
3.087744913E0,1.611304998E0,-6.470646858E-1,-6.764705181E0,6.983998331E0
3.097787100E0,1.643467665E0,-6.554336548E-1,-7.371850491E0,7.581210912E0
3.107735069E0,1.674954414E0,-7.634520531E-1,-7.296007633E0,7.524630138E0
3.117741527E0,1.677748442E0,-1.521707535E0,-7.131896019E0,7.482938893E0
3.127738142E0,1.591913462E0,-1.657184124E0,-6.884573460E0,7.257947328E0
3.137737361E0,8.242535591E-1,-2.572353840E0,-6.595872402E0,7.127547331E0
3.147736579E0,7.884325981E-1,-2.706144333E0,-5.562155724E0,6.235576910E0
3.157738142E0,8.081669807E-1,-3.555025816E0,-5.273554802E0,6.411062523E0
3.167739444E0,9.530894756E-1,-3.663003922E0,-4.375988483E0,5.785780197E0
3.177738663E0,1.598129988E0,-3.648677349E0,-3.556640625E0,5.340089736E0
3.187738142E0,1.726416826E0,-3.571899176E0,-3.274033546E0,5.143760729E0
3.197735798E0,2.507444143E0,-3.389721394E0,-2.359458208E0,4.831617772E0
3.207741527E0,2.615141153E0,-2.072607040E0,-1.337552547E0,3.594956191E0
3.217737361E0,2.624576807E0,-9.254317284E-1,-1.088926077E0,2.988408824E0
3.227737881E0,2.511533499E0,4.244999886E-1,-2.823097706E-1,2.562752341E0
3.237736840E0,1.808404684E0,1.596241951E0,-3.624594212E-2,2.412390855E0
3.247735538E0,1.763024569E0,2.626341343E0,1.848373413E0,3.663660567E0
3.257864756E0,1.792255163E0,2.657867432E0,1.959173799E0,3.756966839E0
3.267738194E0,1.863347769E0,2.677678585E0,3.207698822E0,4.575080245E0
3.277752725E0,1.884628296E0,3.650632858E0,4.243118286E0,5.906182936E0
3.287737725E0,1.857555628E0,3.676208019E0,4.292160988E0,5.948753168E0
3.297741267E0,1.927320004E0,2.544555664E0,4.305057526E0,5.359369946E0
3.307738142E0,2.017842293E0,2.502582073E0,3.988234997E0,5.122560194E0
3.317741006E0,2.156170607E0,2.465699673E0,2.960531235E0,4.415143458E0
3.327739444E0,2.270430088E0,9.254937172E-1,2.589728832E0,3.566242677E0
3.337739965E0,2.250563383E0,7.553138733E-1,1.041760445E0,2.592450465E0
3.347737621E0,1.374230146E0,-1.995792389E-1,-2.763353348E0,3.092646455E0
3.357739444E0,1.338044167E0,-2.477755547E-1,-4.212244034E0,4.426596290E0
3.367741267E0,1.240227461E0,-2.095642090E-1,-4.543872356E0,4.714748912E0
3.377739965E0,1.239512920E0,-2.181420326E-1,-4.587729931E0,4.757230722E0
3.387742569E0,1.176670074E0,-1.913571358E-1,-4.611235619E0,4.762842003E0
3.397736319E0,1.084499121E0,-1.312599182E-1,-3.968485594E0,4.116095895E0
3.407738142E0,1.053059101E0,-6.995105743E-2,-3.812220573E0,3.955610234E0
3.417738142E0,1.093474865E0,-5.957460403E-2,-2.331756592E0,2.576106600E0
3.427736579E0,1.011458397E0,6.319971085E-1,-2.318897963E0,2.607634214E0
3.437745017E0,9.762947559E-1,6.730871201E-1,-2.225804329E0,2.521983868E0
3.447759548E0,9.651496410E-1,7.278418541E-1,-2.116559267E0,2.437435276E0
3.457743923E0,3.234450817E-1,2.201301098E0,-2.107372761E0,3.064533112E0
3.467750486E0,2.854690552E-1,2.108669758E0,-2.164428949E0,3.035248492E0
3.477735069E0,2.187488079E-1,3.246132374E0,-3.136966705E0,4.519489633E0
3.487737100E0,-3.782947063E-1,4.210729122E0,-3.220936298E0,5.314863805E0
3.497736579E0,-3.493924141E-1,5.092536449E0,-4.178123951E0,6.596417384E0
3.507739704E0,-1.938124895E-1,5.173110485E0,-4.013895512E0,6.550571925E0
3.517749600E0,-1.978349686E-2,5.933564663E0,-3.945364475E0,7.125551336E0
3.527748819E0,9.183593988E-1,6.067659378E0,-3.864699602E0,7.252294625E0
3.537744652E0,1.137084603E0,6.071623802E0,-3.800920486E0,7.252901043E0
3.547747256E0,1.990733027E0,6.026272774E0,-3.697685957E0,7.345193188E0
3.557751163E0,2.162231922E0,5.928986549E0,-3.541070223E0,7.236525873E0
3.567748559E0,2.361357212E0,5.791274071E0,-2.820421219E0,6.860731674E0
3.577747517E0,2.580270290E0,5.049872875E0,-2.769286871E0,6.310939756E0
3.587747256E0,3.402452946E0,4.958456993E0,-2.738184452E0,6.607619533E0
3.597781111E0,3.508188248E0,4.863148689E0,-2.729512215E0,6.588462407E0
3.607750121E0,3.563193798E0,4.765849113E0,-2.739391327E0,6.550872664E0
3.617793350E0,3.587555885E0,4.669365883E0,-2.784319878E0,6.513522254E0
3.627734652E0,3.580249786E0,4.571165085E0,-3.430689335E0,6.744135829E0
3.637725902E0,3.548391819E0,4.474253654E0,-3.550844669E0,6.724472331E0
3.647723663E0,3.462433815E0,4.371056557E0,-4.240004539E0,7.005156803E0
3.657738142E0,2.700138092E0,3.605060577E0,-4.264622688E0,6.202758592E0
3.667748038E0,2.624234676E0,3.502346992E0,-4.205515862E0,6.069547409E0
3.677748298E0,1.459002256E0,3.421529770E0,-3.326312542E0,4.989980829E0
3.687747256E0,6.210776567E-1,3.320466042E0,-2.571199894E0,4.245268081E0
3.697777725E0,5.383567214E-1,2.655132294E0,-1.837089419E0,3.273293905E0
3.707748559E0,-7.064922452E-1,1.612620354E0,-1.005295515E-1,1.763457368E0
3.717748038E0,-6.278988719E-1,2.676827431E0,1.248411059E0,3.019634458E0
3.727748559E0,-5.457001328E-1,3.336181641E0,1.322512388E0,3.630004902E0
3.737748298E0,-4.317160249E-1,4.089770317E0,1.401116014E0,4.344620358E0
3.747749340E0,-4.964768291E-1,4.791533470E0,1.266765714E0,4.980961515E0
3.757748559E0,-3.664475977E-1,5.679955482E0,2.265707254E-1,5.696271800E0
3.767737881E0,-2.421593219E-1,6.403779984E0,8.793628216E-2,6.408960290E0
3.777739704E0,-9.117162973E-2,6.493782997E0,-6.042392254E-1,6.522471535E0
3.787737361E0,5.946211517E-2,6.533078194E0,-7.009898424E-1,6.570847220E0
3.797757413E0,1.176806539E-2,6.467972755E0,-8.350610733E-1,6.521666739E0
3.807754652E0,1.638768017E-1,5.720672607E0,-1.573719859E0,5.935448162E0
3.817766163E0,3.180741072E-1,4.617896080E0,-1.615502715E0,4.902650749E0
3.827787673E0,1.882228017E0,3.202670097E0,-1.585930347E0,4.039189662E0
3.837737881E0,3.112978220E0,1.498019218E0,-1.520115376E0,3.774313942E0
3.847738923E0,4.063873768E0,3.753852844E-1,-1.429262757E0,4.324208152E0
3.857737881E0,4.274980068E0,-7.468299866E-1,-1.326797724E0,4.538017388E0
3.867748559E0,4.454352856E0,-1.594526291E0,-6.612033844E-1,4.777129198E0
3.877737361E0,4.559268951E0,-1.721363068E0,-5.890419483E-1,4.908868973E0
3.887741006E0,4.551670551E0,-2.396438599E0,-4.445762634E-1,5.163164806E0
3.897759496E0,4.289171219E0,-2.455206871E0,1.244665146E0,5.096491131E0
3.907737621E0,3.251055479E0,-2.508328915E0,1.336384654E0,4.318217180E0
3.917745434E0,3.088370323E0,-2.601703644E0,1.430668950E0,4.284122635E0
3.927740746E0,2.260954618E0,-3.379777908E0,1.528887630E0,4.344227420E0
3.937737881E0,2.101808548E0,-3.459694862E0,1.428578138E0,4.292775700E0
3.947739184E0,4.521858990E-1,-4.089930058E0,1.477512717E0,4.372075456E0
3.957736579E0,4.327128828E-1,-4.148345947E0,1.528432488E0,4.442085142E0
3.967743611E0,4.123227000E-1,-4.212950230E0,1.576238155E0,4.517021847E0
3.977732934E0,4.209046960E-1,-4.280451775E0,1.627827764E0,4.598831524E0
3.987817048E0,2.316175252E-1,-4.333180428E0,1.477423310E0,4.583980686E0
3.997749079E0,2.590498626E-1,-4.342344284E0,1.528759480E0,4.610874782E0
4.007909184E0,2.880547941E-1,-4.279840469E0,2.585160255E0,5.008299467E0
4.017748611E0,3.583332598E-1,-4.129238129E0,2.757102489E0,4.978014101E0
4.027736111E0,4.281928539E-1,-3.002654552E0,4.045735359E0,5.056407626E0
4.037737100E0,2.996421456E-1,-2.095267773E0,4.179621220E0,4.684993703E0
4.047742309E0,3.709090650E-1,-9.345102310E-1,4.943482876E0,5.044690858E0
4.057741527E0,2.526775122E0,5.394477844E-1,4.982300282E0,5.612389199E0
4.067748819E0,3.524957180E0,1.693846703E0,5.639552116E0,6.862870234E0
4.077736840E0,5.919719219E0,5.374939919E0,5.727069378E0,9.835261990E0
4.087738402E0,6.977833748E0,6.313331604E0,5.638419151E0,1.096996309E1
4.097752517E0,7.724890709E0,6.385143280E0,5.483405113E0,1.142417274E1
4.107738663E0,7.783899784E0,6.354482651E0,5.313549995E0,1.136672157E1
4.117745173E0,7.761173248E0,6.186183929E0,5.124088764E0,1.116964491E1
4.127738663E0,7.624800682E0,4.713391304E0,4.925065517E0,1.022789878E1
4.137739184E0,6.733787060E0,3.244265556E0,4.696236610E0,8.827445014E0
4.147737881E0,5.651067734E0,1.449328423E0,4.483125210E0,7.357549256E0
4.157735798E0,4.566751480E0,1.464971542E0,4.308272362E0,6.446904020E0
4.167750538E0,3.741536379E0,4.144887924E-1,4.161059380E0,5.611177291E0
4.177755642E0,3.524603844E0,3.503952026E-1,3.978134632E0,5.326458880E0
4.187736371E0,2.683171988E0,3.903026581E-1,3.093834162E0,4.113825215E0
4.197751111E0,2.518347263E0,1.466087341E0,2.098139763E0,3.590776447E0
4.207736892E0,2.311426163E0,1.493996620E0,8.704360127E-1,2.886585467E0
4.217740017E0,1.412788749E0,3.305412292E0,-7.397156358E-1,3.670000231E0
4.227738142E0,1.274025440E0,4.579038620E0,-2.106355429E0,5.198794927E0
4.237739444E0,-5.360914469E-1,5.584940910E0,-3.392375469E0,6.556460199E0
4.247739444E0,-4.843405485E-1,5.657595634E0,-4.400859356E0,7.184047411E0
4.257738923E0,-1.635641813E0,4.902565956E0,-4.582775593E0,6.907409734E0
4.267745173E0,-1.661019564E0,3.785230637E0,-4.491995335E0,6.104504816E0
4.277738402E0,-1.637873054E0,1.408709526E0,-4.274756908E0,4.789638535E0
4.287738402E0,-1.566755295E0,1.411680222E0,-3.190000057E0,3.824089900E0
4.297761579E0,-1.346197844E0,-1.066493511E0,-2.928639650E0,3.395082804E0
4.307737621E0,7.287181914E-3,-2.653710365E0,-2.724157095E0,3.803059779E0
4.317749079E0,-5.332139879E-2,-3.639792442E0,-2.594367743E0,4.470086820E0
4.327739965E0,1.911427140E0,-3.689817429E0,-2.535048962E0,4.867728383E0
4.337737361E0,2.767992020E0,-3.578422546E0,-2.533860445E0,5.185300039E0
4.347748246E0,2.997171402E0,-2.268687248E0,-3.126991272E0,4.889586144E0
4.357743715E0,4.037553787E0,-7.470908165E-1,-3.048165560E0,5.113834036E0
4.367756163E0,4.133770943E0,1.375904083E0,-2.927849293E0,5.249140476E0
4.377724184E0,4.216098785E0,2.693261147E0,-2.793110609E0,5.729800297E0
4.387735590E0,4.228549957E0,3.822402954E0,-2.611712217E0,6.269963301E0
4.397761840E0,4.168622017E0,3.971264839E0,-1.832570791E0,6.042074946E0
4.407742309E0,4.029067039E0,4.027305603E0,-1.660378695E0,5.933753368E0
4.417741527E0,3.163935661E0,3.943622589E0,-1.485689878E0,5.269717489E0
4.427739965E0,2.997950792E0,2.956315041E0,-1.360807896E0,4.424850924E0
4.437746475E0,1.828134298E0,3.117265701E-1,-1.369884610E0,2.305608881E0
4.447741267E0,2.939492166E-1,-7.055435181E-1,-1.354418039E0,1.555199673E0
4.457737100E0,1.256671846E-1,-8.370871544E-1,-1.332400322E0,1.578542924E0
4.467742048E0,1.584141552E-1,-9.171266556E-1,-1.302973032E0,1.601235482E0
4.477738142E0,1.920335293E-1,-9.277777672E-1,-1.262199640E0,1.578225711E0
4.487738402E0,2.307920754E-1,-8.874955177E-1,-1.225287199E0,1.530438498E0
4.497759756E0,2.929404974E-1,-8.071527481E-1,-1.181283593E0,1.460390571E0
4.507738923E0,1.504149288E-1,-7.066130638E-1,-1.141254187E0,1.350699001E0
4.517742048E0,2.487983704E-1,-9.850692749E-2,-1.098888397E0,1.130999537E0
4.527756111E0,2.171044350E0,-8.026123047E-2,-1.079545021E0,2.425962260E0
4.537738454E0,2.346586704E0,-7.338905334E-2,-1.101295471E0,2.593203970E0
4.547730590E0,3.153443575E0,-8.081531525E-2,-1.149691463E0,3.357458556E0
4.557760225E0,3.257428646E0,-9.606933594E-2,-1.198951960E0,3.472399243E0
4.567755902E0,3.352763653E0,-1.134624481E-1,-1.221218586E0,3.570052195E0
4.577743871E0,3.433706760E0,-1.081981659E-1,-1.230882525E0,3.649263042E0
4.587738923E0,3.428994894E0,-8.687496185E-2,-1.199453831E0,3.633764265E0
4.597763142E0,3.399351358E0,-3.878879547E-2,-1.169324994E0,3.595054265E0
4.607738663E0,3.328641176E0,3.637599945E-2,-1.138251781E0,3.518066573E0
4.617744652E0,3.256309032E0,1.454717636E0,-1.082114458E0,3.727026109E0
4.627738142E0,3.131187677E0,1.493628502E0,-9.940695763E-1,3.608799897E0
4.637737100E0,3.016278267E0,1.512907982E0,-9.632142782E-1,3.509217419E0
4.647735798E0,2.887481213E0,1.432162285E0,-9.553929567E-1,3.361757318E0
4.657737100E0,2.771510124E0,1.451560020E0,-9.995959997E-1,3.284431005E0
4.667743090E0,2.696656704E0,1.470027924E0,-1.072719097E0,3.253254638E0
4.677742569E0,2.668148994E0,2.481888771E0,-1.672919154E0,4.009669491E0
4.687737881E0,2.690938711E0,2.568613052E0,-1.704183578E0,4.091841374E0
4.697764704E0,2.764124155E0,3.160718918E0,-1.725781322E0,4.539696861E0
4.707737361E0,3.507717609E0,3.188767433E0,-1.720179200E0,5.042949241E0
4.717776215E0,3.612314224E0,3.217342377E0,-1.694192767E0,5.125465360E0
4.727751006E0,4.432751179E0,3.270692825E0,-1.646345019E0,5.749536198E0
4.737763298E0,4.496454239E0,3.364810944E0,-1.582251430E0,5.834687052E0
4.747737934E0,4.546928406E0,4.207638741E0,-1.474800825E0,6.368188060E0
4.757741006E0,4.554841518E0,4.330316544E0,-1.380039811E0,6.434495513E0
4.767754027E0,4.479047775E0,5.206757545E0,-1.329262614E0,6.995650950E0
4.777748559E0,4.357329369E0,5.302681923E0,-1.337055326E0,6.992315192E0
4.787747777E0,3.618333340E0,5.939129829E0,-1.391745210E0,7.092429345E0
4.797791006E0,3.451087475E0,5.987143517E0,-1.461222172E0,7.063360566E0
4.807749079E0,1.407518148E0,6.082236290E0,-1.541675448E0,6.430510774E0
4.817750381E0,-3.505856544E-2,6.053111076E0,-1.514956832E0,6.239910016E0
4.827747777E0,-1.625336707E-3,5.971833229E0,-1.447829008E0,6.144835522E0
4.837744392E0,-1.113281608E0,5.863760948E0,-1.320329785E0,6.112802887E0
4.847746736E0,-1.262233019E0,5.771983147E0,-3.285677433E-1,5.917514546E0
4.857746996E0,-2.066119432E0,5.700131416E0,-1.971882582E-1,6.066236962E0
4.867746215E0,-2.049025536E0,5.635308266E0,1.685277224E0,6.228592475E0
4.877750121E0,-1.932830572E0,5.548182487E0,1.718950629E0,6.121515678E0
4.887746736E0,-1.722581029E0,5.452311516E0,1.556025386E0,5.925892445E0
4.897942829E0,-8.387258053E-1,4.831982613E0,1.598380923E0,5.158133240E0
4.907742673E0,3.499255180E-1,4.748007774E0,1.602825522E0,5.023452533E0
4.917748767E0,4.991661310E-1,4.072400093E0,1.605613947E0,4.405860358E0
4.927734913E0,6.395137906E-1,3.897905350E0,1.551897764E0,4.243940465E0
4.937726631E0,1.678336620E0,2.736562729E0,-2.416814566E-1,3.219316590E0
4.947750902E0,1.882152557E0,1.141181946E0,-4.412466288E-1,2.244881527E0
4.957747777E0,2.743121386E0,1.155299187E0,-1.309614182E0,3.251848774E0
4.967746475E0,2.908781052E0,1.168318748E0,-1.444635987E0,3.451514021E0
4.977748819E0,3.850233555E0,1.182239532E0,-1.573242068E0,4.324011950E0
4.987737881E0,4.709654808E0,-1.685180664E-1,-1.726011634E0,5.018800943E0
4.997738142E0,4.770244598E0,-8.036408424E-1,-1.730140209E0,5.137553628E0
5.007742569E0,4.770611286E0,-8.889946938E-1,-1.705359936E0,5.143665631E0
5.017738142E0,4.710753918E0,-9.844355583E-1,-1.640799403E0,5.084539165E0
5.027737100E0,4.574963093E0,-1.649626732E0,-1.537320495E0,5.100481346E0
5.037738142E0,4.388344765E0,-1.686293602E0,-1.384551883E0,4.900830522E0
5.047746475E0,3.404319286E0,-1.746676922E0,-5.824654102E-1,3.870340557E0
5.057741006E0,3.226619720E0,-1.826352119E0,-4.499565363E-1,3.734849096E0
5.067738923E0,2.430724859E0,-1.912426949E0,-2.868007421E-1,3.106131813E0
5.077736684E0,2.239099026E0,-2.524643421E0,4.721826315E-1,3.407395675E0
5.087760069E0,1.468332052E0,-2.539502144E0,1.545286417E0,3.315566357E0
5.098090746E0,1.323940396E0,-2.582718849E0,1.658633947E0,3.342801430E0
5.107725538E0,2.248416245E-1,-2.665917397E0,1.746441126E0,3.194953196E0
5.117735590E0,2.190729231E-1,-3.431570053E0,1.838798285E0,3.899339060E0
5.127739965E0,1.596582681E-2,-3.512318134E0,1.730432868E0,3.915486112E0
5.137741006E0,3.428725898E-2,-4.233791351E0,1.798961401E0,4.600263791E0
5.147743871E0,5.045110732E-2,-4.345085144E0,1.840262413E0,4.718990991E0
5.157740746E0,9.053963423E-2,-5.163532734E0,1.879847407E0,5.495825142E0
5.167739704E0,2.550229430E-3,-5.317994118E0,3.657275200E0,6.454202494E0
5.177742569E0,6.799866259E-2,-5.324810028E0,4.388660431E0,6.900620699E0
5.187738142E0,1.338068247E-1,-5.221861839E0,4.526993275E0,6.912265435E0
5.197743350E0,1.942751110E-1,-4.006015301E0,5.405768394E0,6.731139082E0
5.207737881E0,2.548925281E-1,-2.309194088E0,5.498922348E0,5.969547263E0
5.217737621E0,1.838236332E0,-7.857418060E-2,6.380951881E0,6.640921143E0
5.227737881E0,3.264509201E0,1.355566978E0,6.440618515E0,7.346846195E0
5.237736579E0,4.824742794E0,4.515524864E0,7.168520927E0,9.749656410E0
5.247746475E0,6.235202312E0,6.202837944E0,7.093205452E0,1.129896057E1
5.257748819E0,7.314371109E0,7.218438148E0,6.964787483E0,1.241427157E1
5.267742100E0,7.495786667E0,7.271525383E0,6.827823639E0,1.247722224E1
5.277727517E0,8.241399765E0,7.169000626E0,6.646839619E0,1.278654437E1
5.287736371E0,8.133102417E0,6.017103195E0,6.438462734E0,1.199194264E1
5.297743142E0,7.881734848E0,4.434484482E0,6.126947880E0,1.092363892E1
5.307741788E0,6.409872055E0,2.741081238E0,5.796219349E0,9.066208957E0
5.317739444E0,5.307747364E0,1.076520920E0,4.826842308E0,7.254618256E0
5.327739965E0,4.307305336E0,1.101833344E0,3.970930099E0,5.961140984E0
5.337743350E0,3.519633770E0,1.131052971E0,2.960280895E0,4.736070700E0
5.347742829E0,3.290428400E0,1.163061142E0,1.780448079E0,3.917859829E0
5.357736059E0,2.332290411E0,3.817781448E0,-7.936131358E-1,4.543661030E0
5.367738402E0,1.420624375E0,5.404457092E0,-2.045277834E0,5.950587492E0
5.377740746E0,1.197494864E0,6.410554886E0,-3.403799534E0,7.356293847E0
5.387738142E0,1.052713990E-1,6.466726303E0,-4.582890034E0,7.926696172E0
5.397743350E0,-8.553175330E-1,6.362612724E0,-5.321382523E0,8.338556273E0
5.407737100E0,-1.022118688E0,5.186346054E0,-5.382772923E0,7.544345985E0
5.417740746E0,-9.663105011E-1,3.700661659E0,-5.361239433E0,6.585707324E0
5.427744913E0,-9.111791253E-1,1.097660065E0,-5.240017414E0,5.430735449E0
5.437738663E0,-8.327715397E-1,-5.471763611E-1,-5.030841351E0,5.128574373E0
5.447829392E0,-7.537163496E-1,-2.847627640E0,-4.789437294E0,5.622791220E0
5.457733871E0,-8.435258865E-1,-4.527699471E0,-4.525285244E0,6.456764279E0
5.467770538E0,-7.061243057E-1,-5.267140388E0,-4.264209747E0,6.813579395E0
5.477735850E0,-5.727850795E-1,-5.206353664E0,-3.986351967E0,6.582188331E0
5.487739965E0,-4.424422979E-1,-4.081144810E0,-3.102482080E0,5.145570251E0
5.497748819E0,-3.347367644E-1,-2.516184807E0,-2.873744965E0,3.834272396E0
5.507737621E0,-4.399916530E-1,-6.312170029E-1,-2.649231434E0,2.758705267E0
5.517736111E0,-3.436208367E-1,1.093044281E0,-2.448507547E0,2.703333181E0
5.527738923E0,1.374801397E0,2.945554733E0,-2.246538639E0,3.951367792E0
5.537739444E0,2.306683064E0,4.308227539E0,-1.090533257E0,5.007082391E0
5.547744652E0,3.161620855E0,4.344552040E0,-9.077742100E-1,5.449314900E0
5.557743350E0,3.228040934E0,4.205805779E0,-7.510044575E-1,5.354722982E0
5.567740486E0,3.237891436E0,2.765497208E0,-6.696988344E-1,4.310500236E0
5.577740746E0,2.571158171E0,1.154785156E0,-6.398085356E-1,2.890283387E0
5.587738663E0,1.682391405E0,1.106529236E-1,-6.261461973E-1,1.798539399E0
5.597742829E0,-1.427631229E-1,-8.831939697E-1,-6.676721573E-1,1.116332839E0
5.607737361E0,-1.071277559E-1,-1.551415443E0,-7.174574137E-1,1.712632878E0
5.617736840E0,-7.073444873E-2,-1.631795406E0,-1.325730205E0,2.103644501E0
5.627736475E0,-3.294501454E-2,-1.662289143E0,-1.354126096E0,2.144282642E0
5.637756631E0,6.469741464E-3,-1.644558430E0,-1.414209247E0,2.169009470E0
5.647750850E0,-1.624442786E-1,-1.554123402E0,-1.441829801E0,2.126161063E0
5.657726163E0,-1.162027940E-1,-9.052848816E-1,-1.413241506E0,1.682348168E0
5.667738038E0,1.881898999E0,-7.932291031E-1,-1.335450411E0,2.440119680E0
5.677743090E0,2.835038662E0,-6.743040085E-1,-1.221983671E0,3.159964272E0
5.687741788E0,3.619850874E0,2.891635895E-2,-1.078088641E0,3.777093012E0
5.697746215E0,3.763371944E0,7.451343536E-2,-3.957822323E-1,3.784859868E0
5.707739444E0,4.518322468E0,9.102916718E-2,-2.886126041E-1,4.528445811E0
5.717739184E0,4.471764565E0,7.373237610E-2,-6.605255604E-2,4.472860128E0
5.727738923E0,4.329255104E0,5.986213684E-2,5.947291851E-1,4.370324477E0
5.737741006E0,3.485653162E0,5.436611176E-2,6.627752781E-1,3.548521482E0
5.747744652E0,3.285613298E0,8.970546722E-2,6.923937798E-1,3.358974689E0
5.757739704E0,2.295812368E0,1.941499710E-1,6.965593100E-1,2.406998860E0
5.767737361E0,2.112721920E0,1.319399834E0,6.689109802E-1,2.579118402E0
5.777738663E0,1.371104598E0,1.341301918E0,6.093115807E-1,2.012530560E0
5.787739965E0,1.293972969E0,1.258445740E0,4.878187180E-1,1.869764377E0
5.797742829E0,1.265309453E0,1.275990486E0,-2.999577522E-1,1.821849167E0
5.807751267E0,1.284030557E0,2.827753067E0,-3.855686188E-1,3.129470409E0
5.817742256E0,1.359304667E0,2.926074982E0,-4.814424515E-1,3.262117535E0
5.827743142E0,2.299198151E0,3.553872108E0,-5.809180737E-1,4.272444840E0
5.837725017E0,2.425121546E0,3.580986977E0,-6.595541239E-1,4.374893585E0
5.847741579E0,3.327567339E0,3.588550568E0,-7.245143652E-1,4.947253848E0
5.857740746E0,3.424521446E0,3.584489822E0,-7.651338577E-1,5.016108476E0
5.867739184E0,3.522343159E0,3.568096161E0,-7.526485920E-1,5.069979432E0
5.877741267E0,3.574354887E0,3.543353081E0,-7.045296431E-1,5.082098575E0
5.887739444E0,3.575513840E0,3.540882111E0,-6.383285522E-1,5.072436168E0
5.897744131E0,3.379840374E0,3.696292877E0,-5.824117661E-1,5.042331351E0
5.907736840E0,2.502434969E0,4.437197685E0,-6.226092577E-1,5.132109348E0
5.917738923E0,2.320852757E0,4.523685455E0,-6.646623611E-1,5.127559231E0
5.927743090E0,1.133368015E0,4.632504463E0,-6.757309437E-1,4.816765820E0
5.937739444E0,2.436810732E-1,5.388230324E0,-6.442158222E-1,5.432073316E0
5.947742569E0,-9.157754183E-1,5.429594994E0,-5.842828751E-1,5.537195399E0
5.957737100E0,-8.933285475E-1,5.444602966E0,-5.315444469E-1,5.542948390E0
5.967736840E0,-2.528738260E0,5.439186096E0,-4.772002697E-1,6.017223835E0
5.977738663E0,-3.279315710E0,5.438924789E0,-3.837687969E-1,6.362632543E0
5.987739184E0,-3.371884584E0,5.466135025E0,4.132256508E-1,6.435758945E0
5.997767673E0,-3.398246765E0,5.521436691E0,5.051351786E-1,6.503038195E0
6.007728923E0,-3.334968567E0,5.579360008E0,5.856714249E-1,6.526429687E0
6.017750329E0,-3.170903206E0,5.625819206E0,6.446092129E-1,6.489991519E0
6.027745746E0,-2.943745375E0,5.664728165E0,7.075788975E-1,6.423040550E0
6.037752465E0,-1.815940380E0,5.665015221E0,7.749230862E-1,5.999211840E0
6.047739704E0,-1.875317693E-1,5.590447426E0,1.960482597E0,5.927205294E0
6.057750642E0,-1.333756000E-2,5.431136131E0,1.950212002E0,5.770679719E0
6.067749600E0,1.533019841E-1,4.347385406E0,1.937182665E0,4.761925876E0
6.077747256E0,1.406466007E0,3.627314568E0,1.723869562E0,4.255265429E0
6.087747256E0,2.319175959E0,2.704083443E0,1.749690533E0,3.968886664E0
6.097727256E0,2.506357431E0,2.592413902E0,1.254929304E-1,3.608072323E0
6.107748819E0,3.383517742E0,1.900800705E0,-2.298355103E-4,3.880880787E0
6.117748298E0,3.528294802E0,7.996978760E-1,-1.308859587E-1,3.620153593E0
6.127745954E0,3.640338421E0,8.076610565E-1,-2.548025846E-1,3.737553285E0
6.137747777E0,4.262510777E0,8.167915344E-1,-3.889515400E-1,4.357456808E0
6.147745434E0,4.253984928E0,-6.699533463E-1,-5.141718388E-1,4.337003336E0
6.157745173E0,4.227575779E0,-1.591640472E0,-6.292080879E-1,4.560879211E0
6.167750902E0,4.167590618E0,-2.614776134E0,-6.865841150E-1,4.967621517E0
6.177756423E0,4.050779343E0,-3.552607059E0,-7.468631268E-1,5.439451694E0
6.187766163E0,3.866989136E0,-4.308734894E0,-7.708940506E-1,5.840640290E0
6.197753663E0,2.822076321E0,-4.445903301E0,-7.547851801E-1,5.319762362E0
6.207745225E0,2.619932652E0,-5.297060490E0,-6.945532560E-1,5.950235387E0
6.217775381E0,1.540992975E0,-5.375336170E0,-5.796533823E-1,5.621823222E0
6.227751163E0,1.344834685E0,-5.973094463E0,-4.332586527E-1,6.137927245E0
6.237738663E0,-7.488419861E-2,-6.020796776E0,3.929789066E-1,6.034072744E0
6.247740746E0,-1.066282913E-1,-6.086374283E0,5.200353861E-1,6.109481018E0
6.257737361E0,-1.269390881E-1,-6.724093437E0,1.673762560E0,6.930442063E0
6.267739704E0,-3.082947135E-1,-6.844268322E0,1.615686536E0,7.039140393E0
6.277743090E0,-2.974970639E-1,-6.893671989E0,1.719259143E0,7.111052665E0
6.287737100E0,-2.877267599E-1,-6.897733688E0,1.799548864E0,7.134416083E0
6.297737361E0,-2.347715050E-1,-6.821292877E0,3.735490322E0,7.780683911E0
6.307739704E0,-3.825370073E-1,-5.938582420E0,4.800352573E0,7.645683786E0
6.317737361E0,-3.291776478E-1,-4.219152927E0,6.150724411E0,7.465990901E0
6.327742309E0,1.275965214E0,-1.770705223E0,7.561656952E0,7.870332907E0
6.337736579E0,2.663034678E0,1.139525414E0,8.803585052E0,9.267868236E0
6.347738923E0,4.219900608E0,3.787290573E0,9.566963196E0,1.112105732E1
6.357785329E0,5.545141220E0,6.038782120E0,9.561325073E0,1.259501559E1
6.367734288E0,6.458489895E0,7.647693634E0,9.450052261E0,1.376600150E1
6.377754756E0,6.572621346E0,8.596156120E0,9.177046776E0,1.418842623E1
6.387740017E0,6.574941158E0,8.577478409E0,8.717156410E0,1.388494879E1
6.397737881E0,6.420785904E0,7.756145477E0,7.105948448E0,1.232391122E1
6.407737100E0,5.331774235E0,5.952159882E0,6.002875805E0,9.994525585E0
6.417738142E0,4.019101143E0,3.758359909E0,5.582473278E0,7.838523528E0
6.427745434E0,2.483700275E0,8.521585464E-1,4.633842468E0,5.326109018E0
6.437738402E0,1.292555690E0,8.837871552E-1,4.362351894E0,4.634856416E0
6.447741788E0,4.622840285E-1,-3.986005783E-1,3.296818018E0,3.352849234E0
6.457740225E0,3.364753127E-1,8.817844391E-1,2.335938454E0,2.519398320E0
6.467742569E0,2.424445152E-1,9.189720154E-1,1.007873535E0,1.385315116E0
6.477744392E0,1.573677659E-1,3.632050514E0,-1.079239368E0,3.792270186E0
6.487737100E0,9.023874998E-2,5.585155487E0,-2.729295254E0,6.217005503E0
6.497736319E0,-9.840555191E-1,7.043251991E0,-4.568750858E0,8.452765718E0
6.507738663E0,-8.777022958E-1,7.159989357E0,-6.083538532E0,9.436379072E0
6.517736059E0,-7.737647891E-1,7.099815369E0,-7.072546959E0,1.005121936E1
6.527746475E0,-6.726302505E-1,6.039081573E0,-7.170766830E0,9.399086905E0
6.537798142E0,-5.750669837E-1,4.406974792E0,-7.166992188E0,8.433143297E0
6.547735538E0,-6.749501824E-1,2.360408783E0,-7.025166512E0,7.441777468E0
6.557765381E0,-5.769562125E-1,7.828722000E-1,-6.753272057E0,6.822935646E0
6.567741319E0,-4.514272511E-1,-2.671828747E0,-5.594661236E0,6.216324457E0
6.577739756E0,-3.290098906E-1,-4.691201687E0,-5.242077351E0,7.042371456E0
6.587737152E0,-2.096007019E-1,-5.754767418E0,-4.917923927E0,7.572797121E0
6.597737621E0,-2.922834754E-1,-5.773505688E0,-4.049532890E0,7.058152321E0
6.607739704E0,-1.772274971E-1,-4.947149277E0,-3.794693708E0,6.237419009E0
6.617740225E0,-8.401410282E-2,-3.372629166E0,-3.499813080E0,4.861108665E0
6.627744652E0,3.715500608E-2,8.430671692E-1,-2.439147234E0,2.581004063E0
6.637738142E0,1.078148842E0,2.171707153E0,-2.184788942E0,3.263743190E0
6.647737881E0,1.824536562E0,3.344392776E0,-1.355861664E0,4.043792473E0
6.657738142E0,1.935386777E0,3.492499352E0,-1.133078933E0,4.150559187E0
6.667737621E0,2.045997858E0,3.539955139E0,-9.297828078E-1,4.193075923E0
6.677743090E0,2.135740280E0,3.403427124E0,-8.197321892E-1,4.100812553E0
6.687736579E0,2.208053589E0,1.926452637E0,-7.859351635E-1,3.033877798E0
6.697739965E0,2.219302654E0,8.020925522E-1,-7.800897360E-1,2.485396695E0
6.707736579E0,2.146899700E0,-7.325611115E-1,-7.873377800E-1,2.401192388E0
6.717855538E0,2.012327194E0,-1.621574402E0,-7.958010435E-1,2.704119742E0
6.727755381E0,1.181318402E0,-1.750748158E0,-8.186315298E-1,2.265124690E0
6.737748559E0,5.872896314E-2,-1.838530540E0,-8.685300350E-1,2.034204528E0
6.747736111E0,9.208070487E-2,-1.875480175E0,-9.467884302E-1,2.102929641E0
6.757736892E0,1.258998960E-1,-1.838638783E0,-1.597667456E0,2.439054049E0
6.767738142E0,1.218617797E0,-1.756502151E0,-1.613382936E0,2.678307981E0
6.777744652E0,2.143496990E0,-1.658657551E0,-1.628243566E0,3.161787679E0
6.787736319E0,2.277155638E0,-1.562232018E0,-1.626601338E0,3.204970919E0
6.797739704E0,3.360829592E0,-1.476699829E0,-1.605132103E0,4.006528048E0
6.807741267E0,4.311763763E0,-1.369012356E0,-1.502016544E0,4.766713258E0
6.817739965E0,4.332748890E0,-1.325451851E0,-1.381686330E0,4.736939166E0
6.827744652E0,4.345829010E0,-1.285477638E0,-1.230648994E0,4.696081291E0
6.837737361E0,4.332547665E0,-1.224284172E0,-4.458017349E-1,4.524221501E0
6.847737100E0,4.251534939E0,-1.119466782E0,-3.206508160E-1,4.408125697E0
6.857737621E0,4.123636723E0,-4.302186966E-1,-1.921550035E-1,4.150468828E0
6.867738402E0,3.918859482E0,-3.325109482E-1,-5.629253387E-2,3.933343618E0
6.877741527E0,3.097479343E0,-1.952533722E-1,5.280101299E-2,3.104076370E0
6.887738663E0,2.883980989E0,9.854078293E-1,1.502562761E-1,3.051385241E0
6.897738506E0,1.985146761E0,1.012247086E0,1.743661165E-1,2.235141017E0
6.907758611E0,1.796183467E0,1.039231300E0,1.352877617E-1,2.079562339E0
6.917738194E0,1.613640070E0,1.064497948E0,2.542698383E-2,1.933296844E0
6.927753975E0,1.447677612E0,9.899291992E-1,-7.238756418E-1,1.897294451E0
6.937736371E0,1.316304088E0,2.475182533E0,-8.092263937E-1,2.917881488E0
6.947740017E0,1.286343217E0,2.581940651E0,-9.184240103E-1,3.027308881E0
6.957737100E0,1.325159669E0,3.270111084E0,-1.528649449E0,3.845314524E0
6.967737621E0,1.444196939E0,3.318284035E0,-1.570390224E0,3.944976450E0
6.977744131E0,2.383027554E0,3.359205246E0,-1.596930981E0,4.417382569E0
6.987737413E0,2.595361710E0,3.436075211E0,-1.538782239E0,4.572785369E0
6.997737621E0,2.690571070E0,3.520178795E0,-1.476866961E0,4.670328409E0
7.007739704E0,2.756308794E0,4.279092789E0,-1.448206902E0,5.291991732E0
7.017739444E0,2.752130747E0,4.373471260E0,-1.447459698E0,5.366247673E0
7.027744913E0,2.648090601E0,5.118747711E0,-1.471629381E0,5.948079942E0
7.037735538E0,1.719366670E0,5.215919495E0,-1.476456165E0,5.686999273E0
7.047736840E0,7.677599192E-1,5.885716438E0,-1.438054442E0,6.107300047E0
7.057737100E0,-1.039232850E0,5.936751366E0,-1.348882318E0,6.176123801E0
7.067735538E0,-1.195499778E0,5.938448906E0,-1.255921841E0,6.186415343E0
7.077770538E0,-2.575233936E0,5.864946365E0,-1.163002968E0,6.510146050E0
7.087744965E0,-3.591276646E0,5.733218193E0,-1.072840929E0,6.849674916E0
7.097987569E0,-4.305566788E0,4.965227127E0,-4.248027802E-1,6.585730270E0
7.107751111E0,-4.364231110E0,4.903035164E0,-3.372411728E-1,6.572670584E0
7.117737413E0,-4.333879471E0,4.859368324E0,-2.181406021E-1,6.514871994E0
7.127746475E0,-4.153245449E0,4.844263077E0,6.110486984E-1,6.410125820E0
7.137740225E0,-3.908195496E0,4.873463631E0,6.887979507E-1,6.284829545E0
7.147738142E0,-2.767131567E0,4.918989182E0,7.557189465E-1,5.694258758E0
7.157737881E0,-1.913618088E0,4.952930450E0,8.146693707E-1,5.371884252E0
7.167737881E0,-3.255675733E-1,4.874667168E0,8.829292059E-1,4.964668994E0
7.177744392E0,-1.600899100E-1,4.189999580E0,8.326526880E-1,4.274931083E0
7.187738142E0,1.577735424E0,3.417898178E0,7.232286930E-1,3.833319288E0
7.197741527E0,1.840928555E0,2.573990822E0,5.366849899E-1,3.209747260E0
7.207767569E0,3.049734116E0,1.775031090E0,-4.640715122E-1,3.559069529E0
7.217737100E0,3.793443918E0,6.245012283E-1,-6.126301289E-1,3.893010945E0
7.227748038E0,3.978473663E0,6.363468170E-1,-7.561782598E-1,4.099389652E0
7.237746996E0,4.799319744E0,6.488056183E-1,-8.651719093E-1,4.919648480E0
7.247746736E0,4.819493771E0,-1.002062798E0,-9.350551367E-1,5.010586609E0
7.257757673E0,4.784100533E0,-1.161126137E0,-9.965075254E-1,5.022833768E0
7.267736684E0,4.665706158E0,-2.180792809E0,-1.041687727E0,5.254501360E0
7.277756631E0,4.469856262E0,-2.310175896E0,-1.034110069E0,5.136721845E0
7.287753038E0,3.468215227E0,-3.336872578E0,-9.977819920E-1,4.915160665E0
7.297742361E0,3.247935534E0,-3.449320793E0,-9.480773211E-1,4.831743968E0
7.307779288E0,2.141709805E0,-4.283133030E0,-8.409321308E-1,4.862028002E0
7.317742100E0,1.914942265E0,-4.354156017E0,-6.859951019E-1,4.805857653E0
7.327752465E0,7.418321371E-1,-4.440289021E0,7.868146896E-2,4.502518437E0
7.337746996E0,-2.989098728E-1,-5.134819984E0,2.293040752E-1,5.148621538E0
7.347746475E0,-3.391641378E-1,-5.152796745E0,4.169125557E-1,5.180749240E0
7.357746215E0,-1.532257676E0,-5.234361649E0,2.017667532E0,5.815267640E0
7.367747777E0,-1.639563084E0,-5.287869453E0,2.134612083E0,5.933489632E0
7.377750902E0,-1.735866427E0,-5.931693077E0,2.227719784E0,6.569699419E0
7.387747777E0,-1.770192385E0,-5.993228912E0,2.318670750E0,6.665478822E0
7.397747517E0,-1.769079685E0,-6.084013939E0,2.208919287E0,6.710006927E0
7.407788663E0,-1.751167893E0,-6.752078533E0,3.939745903E0,8.011164166E0
7.417745173E0,-1.705716252E0,-6.719777107E0,4.788881779E0,8.426046582E0
7.427747777E0,-1.543335199E0,-6.589999199E0,5.673206806E0,8.831491858E0
7.437745954E0,-3.278540969E-1,-5.122945786E0,6.729323387E0,8.463796730E0
7.447757829E0,6.960574389E-1,-3.183875084E0,7.691607475E0,8.353584983E0
7.457750069E0,2.090305328E0,-6.492347717E-1,8.468952179E0,8.747230028E0
7.467769965E0,3.713785410E0,2.084852219E0,8.499168396E0,9.506559539E0
7.477736371E0,5.274070263E0,4.582867622E0,9.050448418E0,1.143368310E1
7.487738715E0,6.410492420E0,6.428693771E0,8.874338150E0,1.269552655E1
7.497740225E0,7.145386219E0,7.495287895E0,8.591156960E0,1.345525409E1
7.507767309E0,7.156606197E0,7.516300201E0,8.204306602E0,1.322960422E1
7.517739184E0,6.971285343E0,7.348897934E0,7.070255756E0,1.235287969E1
7.527736579E0,5.934961796E0,5.666327477E0,6.651109219E0,1.056258929E1
7.537740225E0,3.097962379E0,1.946108818E0,5.438069344E0,6.554182529E0
7.547741527E0,1.623467922E0,6.586990356E-1,5.031126976E0,5.327454473E0
7.557738663E0,5.029816031E-1,6.898717880E-1,3.539622307E0,3.641131644E0
7.567736840E0,-9.551414251E-1,7.260255814E-1,2.487708330E0,2.761901704E0
7.577744131E0,-1.006806612E0,7.654552460E-1,1.350735426E0,1.850423594E0
7.587737881E0,-1.249544144E0,2.915013313E0,-8.589752316E-1,3.285803042E0
7.597735538E0,-1.280407190E0,4.813831329E0,-9.646724463E-1,5.073756751E0
7.607761579E0,-1.253840327E0,6.207324028E0,-3.719354630E0,7.344153186E0
7.617735538E0,-1.178375840E0,6.348737717E0,-5.384141922E0,8.407379167E0
7.627754861E0,-1.071830511E0,6.363753319E0,-6.423368931E0,9.105264706E0
7.637756059E0,-1.123928189E0,6.214848518E0,-6.543320179E0,9.094096747E0
7.647768246E0,-9.829699397E-1,4.772223473E0,-6.580833435E0,8.188266940E0
7.657735590E0,-8.546493649E-1,2.983918190E0,-6.485702515E0,7.190169011E0
7.667738402E0,-7.296631336E-1,6.530637741E-1,-6.306846142E0,6.382414029E0
7.677738402E0,-6.129248738E-1,-1.786794662E0,-5.222694874E0,5.553814348E0
7.687737621E0,-6.992905140E-1,-3.782783508E0,-4.260828495E0,5.740480621E0
7.697737361E0,-5.867539644E-1,-4.973518848E0,-3.973963737E0,6.393164923E0
7.707765225E0,-4.770432115E-1,-5.054791451E0,-3.728359699E0,6.299139059E0
7.717736579E0,-3.299638033E-1,-3.548897743E0,-3.401911974E0,4.927124555E0
7.727738402E0,-4.383699894E-1,-1.806998253E0,-3.186920643E0,3.689698378E0
7.737742569E0,-3.605390489E-1,5.971460342E-1,-3.016661882E0,3.096259147E0
7.747737100E0,7.433768511E-1,6.198244095E-1,-2.880080223E0,3.038363627E0
7.757737621E0,9.269980192E-1,2.601626396E0,-2.739789963E0,3.890274318E0
7.767739444E0,1.829078555E0,2.764555931E0,-2.552221537E0,4.183555023E0
7.777738663E0,1.955203056E0,2.834871292E0,-2.328772545E0,4.157222125E0
7.787737621E0,2.092371702E0,2.746040344E0,-2.128236294E0,4.055631472E0
7.797740486E0,2.213308096E0,6.351013184E-1,-1.957583308E0,3.022287018E0
7.807832256E0,2.228318453E0,6.655569077E-1,-1.813391924E0,2.949026855E0
7.817737309E0,2.114756107E0,-7.359218597E-1,-1.694495082E0,2.808039879E0
7.827860121E0,1.119027376E0,-1.443640709E0,-1.585581899E0,2.418758095E0
7.837737777E0,-1.291915774E-1,-1.518414497E0,-1.474254370E0,2.120306345E0
7.847737881E0,-8.269859850E-2,-1.557547569E0,-1.368161321E0,2.074767189E0
7.857739704E0,-3.519373387E-2,-1.551342010E0,-1.293376088E0,2.020079785E0
7.867738923E0,1.284502447E-2,-1.515305519E0,-1.269676089E0,1.976965650E0
7.877738663E0,-1.385634243E-1,-1.452983379E0,-1.284027457E0,1.943987406E0
7.887744652E0,-9.983550012E-2,-1.380314350E0,-1.291672468E0,1.893053776E0
7.897741527E0,2.340639353E0,-1.243082047E0,-1.281545877E0,2.943841944E0
7.907762361E0,3.168545961E0,-1.173791885E0,-1.199833751E0,3.585675938E0
7.917740225E0,3.831694126E0,-1.106590271E0,-1.108237863E0,4.139397669E0
7.927740486E0,3.939076662E0,-1.031179428E0,-9.922680855E-1,4.190972669E0
7.937741267E0,4.558187485E0,-9.389696121E-1,-8.361909389E-1,4.728419648E0
7.947736840E0,4.569359303E0,-8.374519348E-1,2.548599243E-2,4.645537613E0
7.957738142E0,4.522819996E0,9.032783508E-1,1.775074005E-1,4.615552120E0
7.967737881E0,4.414486408E0,8.348236084E-1,9.392299652E-1,4.589855513E0
7.977744131E0,4.236706257E0,8.677873611E-1,1.037768602E0,4.447437294E0
7.987863038E0,4.037866592E0,9.014806747E-1,1.111721396E0,4.284035304E0
7.997735798E0,3.829468250E0,9.365873337E-1,1.118417859E0,4.097911837E0
8.007769965E0,3.636482239E0,9.637470245E-1,1.020157456E0,3.897888228E0
8.017735590E0,3.469851494E0,8.874111176E-1,2.004530430E-1,3.587136644E0
8.027738142E0,3.301318884E0,2.341841698E0,6.295752525E-2,4.048072697E0
8.037738663E0,3.136603355E0,2.438903809E0,-7.017214298E-1,4.034717507E0
8.047737621E0,3.000140190E0,3.153306961E0,-7.892687321E-1,4.423475001E0
8.057739965E0,2.888899326E0,3.231245041E0,-8.712227345E-1,4.421053368E0
8.067739184E0,2.785901308E0,3.298665047E0,-9.140005112E-1,4.413369928E0
8.077740746E0,2.603579521E0,3.297189713E0,-7.913792133E-1,4.275086828E0
8.087740225E0,2.452565432E0,3.263298035E0,1.280689240E-2,4.082199808E0
8.097726215E0,1.758783937E0,3.254719734E0,1.132547855E-1,3.701263045E0
8.107761579E0,1.710922599E0,3.275219917E0,1.943068504E-1,3.700280638E0
8.117736579E0,1.653635740E0,3.321163177E0,2.387332916E-1,3.717745230E0
8.127736579E0,1.587867975E0,3.389481544E0,2.224254608E-1,3.749584368E0
8.137736059E0,1.510859489E0,3.486901283E0,1.432991028E-1,3.802855715E0
8.147736840E0,1.405497074E0,4.248294830E0,3.360605240E-2,4.474881044E0
8.157736059E0,6.380516291E-1,4.315130234E0,-6.953012943E-1,4.417114749E0
8.167734079E0,5.051653385E-1,4.402306557E0,-7.879977226E-1,4.500714993E0
8.177758194E0,-1.544725418E0,4.471482277E0,-8.849692345E-1,4.812847485E0
8.187743142E0,-1.487365246E0,4.529545784E0,-9.568498135E-1,4.862571537E0
8.197753402E0,-2.538506985E0,4.582764626E0,-9.722990990E-1,5.328331339E0
8.207759809E0,-3.364975929E0,5.209764481E0,-9.178714752E-1,6.269545198E0
8.217741267E0,-3.482466698E0,5.272070885E0,-7.942438126E-1,6.368133867E0
8.227738402E0,-4.180069923E0,5.364435196E0,1.235120296E-1,6.801867740E0
8.237743090E0,-4.121720314E0,6.048352242E0,1.888053417E-1,7.321665838E0
8.247739965E0,-3.930848122E0,6.051939011E0,2.739778757E-1,7.221675472E0
8.257737361E0,-2.237421989E0,5.916498184E0,8.991682529E-1,6.389014906E0
8.267738142E0,-8.935723305E-1,5.060674667E0,9.087674618E-1,5.218693122E0
8.277739444E0,-7.142344117E-1,4.234413147E0,8.980194330E-1,4.387120285E0
8.287739444E0,7.301337719E-1,3.222937584E0,8.288724422E-1,3.406971018E0
8.297738142E0,1.009986281E0,2.258184433E0,7.038216591E-1,2.571931988E0
8.307758454E0,2.093174219E0,1.491921425E0,1.623725891E-2,2.570500243E0
8.317736840E0,2.303593636E0,4.737968445E-1,-1.279584169E-1,2.355292008E0
8.327735798E0,2.472244740E0,4.824886322E-1,-8.938115835E-1,2.672767943E0
8.337738663E0,3.163184404E0,4.923715591E-1,-1.055783868E0,3.370881918E0
8.347758194E0,3.170459032E0,4.048585892E-1,-1.836538792E0,3.686271244E0
8.357736892E0,3.133986950E0,-5.977602005E-1,-1.923795700E0,3.725611541E0
8.367725954E0,3.033734560E0,-1.429843903E0,-1.952858925E0,3.880935061E0
8.377722152E0,2.892578602E0,-1.561126709E0,-1.901491880E0,3.797341036E0
8.387736631E0,2.207537651E0,-2.625890732E0,-1.784786582E0,3.867038629E0
8.397738663E0,2.125329971E0,-3.296908379E0,-9.248354435E-1,4.030130636E0
8.407764965E0,2.014639378E0,-3.435504436E0,-7.606030703E-1,4.054624469E0
8.417737621E0,1.879695773E0,-4.385469437E0,1.714963913E-1,4.774411942E0
8.427740225E0,1.129893064E0,-4.448044777E0,3.182293177E-1,4.600329398E0
8.437737621E0,9.056929946E-1,-4.575603962E0,5.401439667E-1,4.695549693E0
8.447737881E0,-5.743139982E-1,-4.619125843E0,6.609741449E-1,4.701387768E0
8.457745694E0,-5.805171132E-1,-4.658184052E0,7.828903198E-1,4.759054111E0
8.467746996E0,-5.857063532E-1,-4.733881950E0,8.714258671E-1,4.848924963E0
8.477745434E0,-5.941613913E-1,-5.504454136E0,2.024395943E0,5.894931893E0
8.487748038E0,-1.722360849E0,-5.589123249E0,1.890327573E0,6.146394384E0
8.497748038E0,-1.786863804E0,-6.454462528E0,1.953559995E0,6.976343271E0
8.507780590E0,-1.842452049E0,-6.575120926E0,2.014211178E0,7.119261999E0
8.517750381E0,-1.822054148E0,-7.432528496E0,3.395431519E0,8.372055683E0
8.527745954E0,-1.741696477E0,-7.446188927E0,4.453510284E0,8.849462696E0
8.537756319E0,-7.305496931E-1,-7.350530624E0,5.462262154E0,9.186964197E0
8.547760381E0,-6.686449051E-1,-5.919343948E0,6.545113564E0,8.850097759E0
8.557785486E0,8.275071383E-1,-3.826079369E0,7.777576447E0,8.707143434E0
8.567745746E0,2.222355843E0,-1.154754639E0,8.845327377E0,9.193048470E0
8.577737413E0,3.705516338E0,8.129110336E-1,9.582611084E0,1.030621710E1
8.587749079E0,4.956170559E0,4.390057564E0,9.562267303E0,1.163070024E1
8.597748819E0,5.814517498E0,6.435069084E0,9.417116165E0,1.280237496E1
8.607790225E0,5.870414734E0,7.637372971E0,9.078181267E0,1.323648783E1
8.617749600E0,5.809408188E0,7.683484077E0,8.617825508E0,1.292486238E1
8.627748038E0,4.955345154E0,5.705126762E0,7.319880486E0,1.052067333E1
8.637748559E0,3.785793543E0,3.739120483E0,5.995036125E0,8.015841371E0
8.647749600E0,2.596815825E0,1.844959259E0,5.582947731E0,6.427801526E0
8.657749079E0,1.679086447E0,5.885362625E-1,4.353332520E0,4.702893817E0
8.667746996E0,1.419098973E0,6.318197250E-1,3.397527695E0,3.735804130E0
8.677747777E0,3.172317743E-1,5.790452957E-1,2.293885708E0,2.387015101E0
8.687744131E0,1.318484545E-1,6.285543442E-1,1.048352480E0,1.229433813E0
8.697747517E0,-1.580699921E0,2.796188354E0,-1.148931503E0,3.411352393E0
8.707759756E0,-1.581372023E0,4.936135292E0,-1.227667212E0,5.326662734E0
8.717792829E0,-1.541643977E0,6.432615280E0,-3.403169632E0,7.438868801E0
8.727747725E0,-1.674955249E0,6.555955887E0,-4.877926350E0,8.341474579E0
8.737848402E0,-1.605578899E0,6.525565147E0,-6.004585743E0,9.011988351E0
8.747734027E0,-1.504653096E0,5.757189751E0,-6.705195904E0,8.964868481E0
8.757737621E0,-1.404428244E0,4.303566933E0,-6.751741409E0,8.128906390E0
8.767739704E0,-1.265924692E0,2.300345421E0,-6.705698013E0,7.201426263E0
8.777738663E0,-1.329782367E0,5.179290771E-1,-6.613475800E0,6.765695369E0
8.787738923E0,-1.197392583E0,-2.972674847E0,-6.451567650E0,7.203698348E0
8.797740225E0,-1.069944859E0,-5.054319382E0,-6.176104546E0,8.052030413E0
8.807765225E0,-9.052423835E-1,-6.073504448E0,-5.162086487E0,8.022098039E0
8.817742569E0,-9.825425744E-1,-4.963173866E0,-4.116728306E0,6.522724636E0
8.827740225E0,-8.650224805E-1,-3.285517693E0,-3.037829161E0,4.557553775E0
8.837737361E0,-7.587116957E-1,-1.250078201E0,-2.681881905E0,3.054640649E0
8.847739444E0,-6.639041901E-1,5.105314255E-1,-1.810509324E0,1.994832104E0
8.857737881E0,-5.689309835E-1,2.169722557E0,-1.582435369E0,2.745082902E0
8.867735798E0,1.100784063E0,3.281307220E0,-1.359219193E0,3.718357089E0
8.877738402E0,1.216481447E0,3.413773537E0,-1.153029203E0,3.803045255E0
8.887738142E0,1.297960043E0,3.410430908E0,-1.050355196E0,3.797233900E0
8.897851892E0,1.364995718E0,3.211619377E0,-1.080442905E0,3.653090364E0
8.907773506E0,1.416183233E0,5.222396851E-1,-1.945658684E0,2.462498112E0
8.917750538E0,1.436257243E0,4.445133209E-1,-1.985280156E0,2.490334166E0
8.927735850E0,1.317363262E0,-1.263511658E0,-1.983364463E0,2.695485534E0
8.937735329E0,-3.636269867E-1,-1.973157883E0,-1.967404485E0,2.810027940E0
8.947738923E0,-3.268588185E-1,-2.057547092E0,-1.940534711E0,2.847105844E0
8.957739965E0,-2.896616459E-1,-2.105582237E0,-1.894388556E0,2.847119321E0
8.967739965E0,-4.516594410E-1,-2.107202530E0,-1.836377978E0,2.831357065E0
8.977742309E0,-4.121292233E-1,-2.073233128E0,-1.729700446E0,2.731301838E0
8.987737100E0,1.126113772E0,-1.960980892E0,-1.620603919E0,2.782073930E0
8.997739965E0,1.269764423E0,-1.910239220E0,-1.523401618E0,2.753555530E0
9.007765225E0,2.362485886E0,-1.868607044E0,-1.421908498E0,3.330894117E0
9.017738402E0,2.483317375E0,-1.824952126E0,-1.325627685E0,3.354788250E0
9.027737361E0,3.316527843E0,-1.770117283E0,-1.235827923E0,3.957264559E0
9.037736059E0,3.377037764E0,-1.690677643E0,-1.126442194E0,3.941021056E0
9.047736319E0,3.428004503E0,-1.584934235E0,-1.000353098E0,3.906908973E0
9.057739704E0,3.435409307E0,-9.145641327E-1,-8.460093737E-1,3.654339410E0
9.067735798E0,3.367236137E0,-8.426637650E-1,-1.498209238E-1,3.474306799E0
9.077737204E0,3.252280235E0,-7.432851791E-1,-6.697058678E-2,3.336807553E0
9.087744079E0,3.048232555E0,7.513217926E-1,3.884172440E-2,3.139699799E0
9.098012569E0,2.146979332E0,7.873458862E-1,1.587698460E-1,2.292300517E0
9.107749027E0,1.938754559E0,7.232570648E-1,2.351856232E-1,2.082590286E0
9.117747517E0,1.008368969E0,7.568101883E-1,2.283797264E-1,1.281298926E0
9.127736579E0,8.456424475E-1,7.844772339E-1,1.270060539E-1,1.160450868E0
9.137740486E0,7.023385763E-1,8.122014999E-1,-6.272363663E-1,1.243533760E0
9.147742829E0,6.030151844E-1,2.548968315E0,-7.229673862E-1,2.717268597E0
9.157737361E0,5.920257568E-1,2.674905777E0,-8.068745136E-1,2.855987026E0
9.167739444E0,1.384103179E0,3.600891113E0,-9.561326504E-1,3.974461984E0
9.177737361E0,1.523859382E0,3.652777672E0,-1.026574135E0,4.088861283E0
9.187741267E0,2.554743528E0,3.662223816E0,-1.060270548E0,4.589419507E0
9.197737621E0,2.668022156E0,3.645825386E0,-1.032242298E0,4.634210734E0
9.207739184E0,2.777935266E0,3.669862747E0,-9.706869125E-1,4.703939839E0
9.217737621E0,2.861881733E0,3.746183395E0,-9.211876392E-1,4.803420006E0
9.227741267E0,2.882302761E0,4.501564980E0,-9.144837856E-1,5.422917763E0
9.237737621E0,2.817306519E0,4.612533569E0,-9.660985470E-1,5.490539896E0
9.247736319E0,2.065989971E0,5.394835472E0,-1.045834303E0,5.870803499E0
9.257745694E0,1.210732579E0,5.477483749E0,-1.094470739E0,5.715467418E0
9.267741840E0,2.048254013E-1,5.563083649E0,-1.091487885E0,5.672847515E0
9.277729861E0,-1.264796615E0,5.646078110E0,-1.034373522E0,5.877740814E0
9.287738559E0,-1.234292269E0,5.656098366E0,-9.500761032E-1,5.866649021E0
9.297739496E0,-2.966545582E0,5.574655533E0,-8.480885029E-1,6.371532870E0
9.307738142E0,-3.746037483E0,5.421092033E0,-2.169301510E-1,6.593033774E0
9.317737100E0,-3.870823383E0,4.446698189E0,-1.569218636E-1,5.897543804E0
9.327737881E0,-4.576410770E0,4.363141060E0,-4.770493507E-2,6.323196281E0
9.337739184E0,-4.497570038E0,4.309120178E0,8.020051718E-1,6.280116659E0
9.347740746E0,-4.309574127E0,4.294121742E0,8.850034475E-1,6.147775354E0
9.357741006E0,-3.105487347E0,4.376878738E0,2.180993557E0,5.792913951E0
9.367736579E0,-2.810759544E0,4.413268089E0,2.185688972E0,5.670497397E0
9.377737881E0,-1.790656805E0,4.411160469E0,2.192109346E0,5.241195652E0
9.387737881E0,-1.505958438E0,4.339396477E0,1.972214103E0,4.998789960E0
9.397736579E0,-2.985141575E-1,4.182626724E0,1.951192260E0,4.625000351E0
9.407736579E0,-1.269595325E-1,3.101007462E0,1.928020120E0,3.653714217E0
9.417737621E0,3.693145514E-2,2.309179306E0,3.858333826E-1,2.341482522E0
9.427739184E0,1.127438664E0,1.591482162E0,1.390539408E-1,1.955318239E0
9.437737100E0,2.305533648E0,2.684459686E-1,-1.045119643E0,2.545549785E0
9.447780277E0,2.509894133E0,2.754688263E-1,-1.256476641E0,2.820316503E0
9.457740902E0,3.458494663E0,2.829351425E-1,-2.071817875E0,4.041493157E0
9.467850538E0,3.571402788E0,2.916021347E-1,-2.199256182E0,4.204364094E0
9.477742361E0,3.667826891E0,-1.317186356E0,-2.310384035E0,4.530541732E0
9.487742569E0,3.687331438E0,-1.434666634E0,-2.376509190E0,4.615460693E0
9.497737100E0,3.617850542E0,-2.239075661E0,-2.436712027E0,4.903046794E0
9.507738402E0,3.486683607E0,-2.364886761E0,-2.430076838E0,4.863632943E0
9.517739444E0,3.274790764E0,-3.341970444E0,-2.367333174E0,5.243785593E0
9.527738402E0,2.204179287E0,-3.456578732E0,-2.218407631E0,4.661295450E0
9.537737621E0,-6.513221562E-2,-4.436104774E0,-1.258219004E0,4.611548854E0
9.547739704E0,-9.715875238E-2,-5.081006050E0,-9.051728249E-2,5.082740962E0
9.557738663E0,-1.306301355E-1,-5.131609440E0,1.388564110E-1,5.135149538E0
9.567742309E0,-1.632100642E-1,-5.195637703E0,1.876527905E0,5.526540115E0
9.577738402E0,-1.347061396E0,-5.763984680E0,1.796668887E0,6.185960951E0
9.587735798E0,-1.453607082E0,-5.779933929E0,1.897310495E0,6.254630037E0
9.597738142E0,-1.550229669E0,-5.838216782E0,1.999152184E0,6.362750715E0
9.607737361E0,-1.544096470E0,-6.490140915E0,3.250553131E0,7.421068566E0
9.617738402E0,-1.512868762E0,-6.549205780E0,3.390263557E0,7.528263759E0
9.627741840E0,-1.463148594E0,-6.623333454E0,4.334904671E0,8.049891202E0
9.637759027E0,-1.386133671E0,-6.676562309E0,5.088869095E0,8.508492198E0
9.647738715E0,-2.272798419E-1,-6.672754765E0,5.962094307E0,8.951194378E0
9.657746579E0,-1.284887195E-1,-6.535617828E0,6.930330753E0,9.526819726E0
9.667735329E0,-3.014067560E-2,-5.042728901E0,7.822733879E0,9.307265365E0
9.677738142E0,1.725155115E0,-3.080613136E0,8.594830513E0,9.291794714E0
9.687742829E0,3.103588343E0,-6.626501083E-1,9.190067291E0,9.722587237E0
9.697740486E0,4.483267307E0,1.802957535E0,9.128162384E0,1.032829561E1
9.707748038E0,5.598854542E0,3.890369415E0,8.940914154E0,1.124375793E1
9.717748038E0,6.490730286E0,6.420913696E0,8.577774048E0,1.252740675E1
9.727745954E0,6.477239132E0,6.439883232E0,8.163450241E0,1.225025072E1
9.737747256E0,6.365386963E0,6.296566963E0,7.698432922E0,1.180808097E1
9.747748038E0,6.055278778E0,4.728120804E0,6.635027409E0,1.015111403E1
9.757749079E0,4.416719913E0,2.923341751E0,6.181320667E0,8.140151533E0
9.767748819E0,3.121992111E0,3.676643372E-1,4.787082195E0,5.726968461E0
9.777745954E0,1.942083359E0,4.206695557E-1,3.442827225E0,3.975136469E0
9.787744652E0,8.070849180E-1,-1.011590004E0,1.961272717E0,2.349742767E0
9.797746996E0,-9.773882031E-1,-9.400653839E-1,3.636639118E-1,1.404016405E0
9.807779288E0,-1.035869956E0,6.072864532E-1,-1.557037473E0,1.966262722E0
9.817736319E0,-2.426843405E0,2.046532631E0,-2.997546434E0,4.366136662E0
9.827728663E0,-2.640501499E0,3.911617279E0,-4.569247246E0,6.568943469E0
9.837735902E0,-3.413669348E0,5.369231224E0,-6.091334820E0,8.808299623E0
9.847740538E0,-3.426729679E0,6.262910843E0,-7.196653366E0,1.013697924E1
9.857750121E0,-3.364083767E0,6.304861069E0,-7.284134865E0,1.020426153E1
9.867737152E0,-3.162037373E0,6.200608253E0,-7.244706154E0,1.004648149E1
9.877752204E0,-2.190427542E0,5.045537949E0,-7.096776962E0,8.978845653E0
9.887749079E0,-1.899357796E0,3.083463669E0,-6.856430054E0,7.754091908E0
9.897750902E0,-7.208903432E-1,4.499206543E-1,-6.559507847E0,6.614321936E0
9.907749079E0,-7.249864340E-1,-3.273370266E0,-5.342309952E0,6.307204916E0
9.917747517E0,-5.726780891E-1,-4.197644234E0,-4.968657494E0,6.529604475E0
9.927748559E0,-4.245568812E-1,-4.215661049E0,-3.854396820E0,5.727863604E0
9.937747777E0,-2.806223929E-1,-4.054081440E0,-3.529663324E0,5.382643257E0
9.947742569E0,-1.737449318E-1,-2.457457542E0,-3.234977484E0,4.066246942E0
9.957736319E0,-2.816835940E-1,-1.081753731E0,-3.010315418E0,3.211158000E0
9.967738663E0,-1.978231072E-1,3.312807083E-1,-2.875903606E0,2.901672353E0
9.977738663E0,1.108080268E0,1.587697983E0,-2.751631260E0,3.364535831E0
9.987739444E0,1.266523004E0,2.488342285E0,-2.625591755E0,3.832709213E0
9.997804131E0,2.083608866E0,2.599568367E0,-2.470841408E0,4.147799279E0
1.000773575E1,2.183181286E0,2.609285355E0,-2.342086792E0,4.130377843E0
1.001787122E1,2.257167339E0,2.471742630E0,-2.230254889E0,4.022232327E0
1.002773611E1,2.280900717E0,3.524389267E-1,-2.121534109E0,3.134904824E0
1.003773502E1,2.179350615E0,3.788137436E-1,-2.006623983E0,2.986571406E0
1.004775220E1,1.240852833E0,-7.505712509E-1,-1.876946688E0,2.371919439E0
1.005774413E1,-4.847877100E-2,-1.620903015E0,-1.761768699E0,2.394473997E0
1.006774049E1,-1.081486791E-2,-1.758471489E0,-1.702421904E0,2.447565990E0
1.007773606E1,2.726968005E-2,-2.512039661E0,-1.715930820E0,3.042286225E0
1.008773762E1,1.051655561E-1,-2.539269924E0,-2.614290714E0,3.646020773E0
1.009772882E1,-5.619512871E-2,-2.501641273E0,-2.600735664E0,3.609043218E0
1.010773762E1,1.875815868E0,-2.427474022E0,-2.526615858E0,3.974305347E0
1.011773762E1,2.891606092E0,-2.331066608E0,-2.408880234E0,4.426958471E0
1.012773996E1,3.879455566E0,-1.680442333E0,-2.260550499E0,4.794178812E0
1.013773944E1,4.734812260E0,-1.606741905E0,-1.523843884E0,5.227061016E0
1.014774179E1,4.853384018E0,-1.520888329E0,-1.366545796E0,5.266486983E0
1.015773632E1,5.506492615E0,-1.410086632E0,-6.532609463E-1,5.721586763E0
1.016773710E1,5.457083225E0,-6.931781769E-1,-5.279799700E-1,5.526211737E0
1.017773392E1,5.300121784E0,-6.150684357E-1,-4.000122547E-1,5.350664436E0
1.018775330E1,4.490482807E0,-5.238475800E-1,-2.685649395E-1,4.528904863E0
1.019773549E1,3.671510458E0,5.219335556E-1,-1.302423477E-1,3.710709737E0
1.020772809E1,2.781703234E0,5.571842194E-1,5.039355755E-1,2.881367418E0
1.021773533E1,1.898540735E0,5.889158249E-1,5.205452442E-1,2.054810484E0
1.022773970E1,1.105740547E0,6.198749542E-1,4.941494465E-1,1.360547975E0
1.023774752E1,8.587203026E-1,6.511335373E-1,4.194436073E-1,1.156420504E0
1.024775116E1,1.087909937E-1,5.828781128E-1,-2.036316395E-1,6.269355783E-1
1.025773632E1,1.321887970E-2,6.124401093E-1,-2.876253128E-1,6.767465898E-1
1.026774022E1,6.914637089E-1,2.215849876E0,-4.740822315E-1,2.369148940E0
1.027773710E1,8.405561447E-1,2.828227043E0,-1.121652842E0,3.156502485E0
1.028774022E1,2.068822145E0,2.874889374E0,-1.159866095E0,3.726969726E0
1.029774569E1,2.812885761E0,2.914379120E0,-1.179203510E0,4.218584227E0
1.030773944E1,2.971548796E0,2.947650909E0,-1.152443528E0,4.341298678E0
1.031773736E1,3.844304085E0,3.011361122E0,-1.093140483E0,5.004190826E0
1.032773658E1,3.885416031E0,3.834115028E0,-1.034666181E0,5.555846460E0
1.033773840E1,3.872874260E0,4.491240501E0,-1.006746650E0,6.015308395E0
1.034774049E1,3.735769987E0,5.172139168E0,-1.016249299E0,6.460631827E0
1.035776731E1,2.544598103E0,5.320649147E0,-1.010224819E0,5.983714652E0
1.036773694E1,1.414879441E0,6.301960945E0,-9.764214754E-1,6.532227375E0
1.037774184E1,8.798277378E-2,6.392003059E0,-9.176015854E-1,6.458129509E0
1.038772450E1,-1.501074672E0,6.471755981E0,-8.423551321E-1,6.696746436E0
1.039774168E1,-2.665591240E0,6.513279915E0,-7.523336411E-1,7.077725469E0
1.040773814E1,-3.920942783E0,6.491728783E0,-1.141428947E-1,7.584811369E0
1.041773944E1,-4.860951900E0,6.416186333E0,-6.862974167E-2,8.049907482E0
1.042773970E1,-4.972584248E0,6.300310135E0,6.712198257E-3,8.026241147E0
1.043773684E1,-4.955639362E0,5.642094612E0,8.136320114E-2,7.509874371E0
1.044774413E1,-4.617911816E0,5.464326859E0,6.459461451E-1,7.183399194E0
1.045773892E1,-3.286394835E0,5.368080139E0,6.003552675E-1,6.322744802E0
1.046773892E1,-2.298893690E0,5.259895325E0,5.619555712E-1,5.767772975E0
1.047774075E1,-8.159716129E-1,4.551290512E0,5.304330587E-1,4.654182445E0
1.048773892E1,-6.225211620E-1,4.402862549E0,4.807869196E-1,4.472570545E0
1.049774335E1,6.901012659E-1,3.475282669E0,3.985230923E-1,3.565480338E0
1.050773632E1,9.119356871E-1,3.328646660E0,2.787014246E-1,3.462540941E0
1.051773606E1,1.142652512E0,2.559192657E0,1.134387255E-1,2.804993791E0
1.052773970E1,1.873868823E0,2.445724487E0,-6.890724897E-1,3.157178096E0
1.053773606E1,1.968400836E0,1.615200043E0,-8.500294685E-1,2.684403682E0
1.054776778E1,2.068423986E0,1.454815865E0,-1.603430390E0,2.994303926E0
1.055775882E1,2.110267878E0,1.264295578E-1,-1.725922465E0,2.729106686E0
1.056781668E1,2.114119053E0,1.401090622E-1,-1.844876051E0,2.809394519E0
1.057773663E1,2.091348171E0,-1.013691902E0,-1.962568521E0,3.041871734E0
1.058773898E1,2.027853727E0,-1.879426956E0,-2.062175274E0,3.449203282E0
1.059774569E1,1.956551790E0,-2.836653709E0,-2.110082150E0,4.040686310E0
1.060773840E1,1.880865574E0,-3.819101334E0,-2.106849194E0,4.749947771E0
1.061774022E1,1.780772686E0,-4.673925400E0,-2.042916298E0,5.402798997E0
1.062773944E1,1.650602341E0,-5.346388817E0,-1.915548801E0,5.914193832E0
1.063774049E1,9.171260595E-1,-6.157399654E0,-1.014310837E0,6.307417632E0
1.064774622E1,8.116968870E-1,-6.192155838E0,-1.663573980E-1,6.247345080E0
1.065773918E1,7.063776255E-1,-6.213739872E0,-1.388061047E-2,6.253776876E0
1.066773944E1,5.908429623E-1,-6.228343964E0,1.091948986E0,6.350883129E0
1.067773736E1,4.585453868E-1,-6.236644745E0,1.183346987E0,6.364456900E0
1.068773554E1,-6.119465232E-1,-6.252284050E0,1.257043242E0,6.406691198E0
1.069774179E1,-6.008313298E-1,-6.303434372E0,1.328588605E0,6.469886463E0
1.070773658E1,-5.910890698E-1,-6.902539730E0,1.378383160E0,7.063595483E0
1.071773762E1,-7.783799767E-1,-6.941924095E0,1.226637244E0,7.092307414E0
1.072785616E1,-7.633863688E-1,-6.983603001E0,1.238685369E0,7.133569307E0
1.073774601E1,-7.451533079E-1,-6.983607769E0,1.252382874E0,7.134037692E0
1.074774033E1,-7.247754335E-1,-6.869346619E0,3.201324940E0,7.613258420E0
1.075772450E1,-6.660680771E-1,-5.607157707E0,4.020380020E0,6.931617397E0
1.076773590E1,-8.068019748E-1,-4.096707821E0,5.193278313E0,6.663638948E0
1.077773866E1,-7.451229095E-1,-2.283470154E0,6.523000717E0,6.951185687E0
1.078774101E1,5.794723034E-1,4.043998718E-1,7.674041748E0,7.706506612E0
1.079774439E1,7.647972703E-1,1.475403786E0,8.595684052E0,8.754856681E0
1.080773997E1,1.890927792E0,3.060692787E0,9.181258202E0,9.860981210E0
1.081773997E1,2.127094269E0,5.099490166E0,1.037567616E1,1.175516847E1
1.082773814E1,2.228405237E0,5.095373154E0,1.008414745E1,1.151601699E1
1.083774049E1,2.228187323E0,4.996864319E0,9.740322113E0,1.117172084E1
1.084774205E1,2.161823511E0,4.297509193E0,9.372853279E0,1.053529519E1
1.085773944E1,1.457374811E0,4.211352348E0,7.050152779E0,8.340508626E0
1.086773684E1,1.374097228E0,4.123482704E0,5.557896137E0,7.055597939E0
1.087774726E1,7.168126702E-1,4.071322441E0,3.754792213E0,5.584617390E0
1.088773814E1,5.898493528E-1,4.102340698E0,2.008095741E0,4.605384888E0
1.089774257E1,-4.157913327E-1,4.248598099E0,3.228440285E-1,4.281085902E0
1.090775637E1,-5.653899312E-1,5.408567429E0,-2.312632799E0,5.909360191E0
1.091773991E1,-5.158724785E-1,6.455942154E0,-2.463061094E0,6.929068008E0
1.092772700E1,-4.485379457E-1,6.614479065E0,-4.865473747E0,8.223463648E0
1.093772226E1,-3.816195428E-1,6.630162239E0,-6.522908211E0,9.308760192E0
1.094774288E1,-2.981562614E-1,6.477857590E0,-7.575580120E0,9.972008337E0
1.095774778E1,-4.184560776E-1,4.962691307E0,-7.660454750E0,9.137066131E0
1.096774569E1,-3.114615381E-1,3.304905891E0,-7.668301582E0,8.355971541E0
1.097774882E1,-2.158113122E-1,4.774103165E-1,-7.573163986E0,7.591265237E0
1.098773319E1,-1.229309514E-1,-1.038369179E0,-7.466780663E0,7.539637659E0
1.099775194E1,-1.986060441E-1,-5.278408051E0,-7.132730961E0,8.875634449E0
1.100774778E1,-1.176126748E-1,-6.418551445E0,-6.805583000E0,9.355618385E0
1.101774856E1,-3.715155646E-2,-6.543350220E0,-6.495154381E0,9.219752858E0
1.102774752E1,3.799796477E-2,-6.486246109E0,-5.599361420E0,8.568878616E0
1.103775116E1,1.027393937E-1,-5.178119183E0,-5.313824654E0,7.420256471E0
1.104774595E1,-3.851828352E-2,-3.294267654E0,-5.012973309E0,5.998631880E0
1.105774413E1,1.486518979E-2,-1.026556969E0,-4.176533222E0,4.300868510E0
1.106774882E1,6.854788959E-2,2.780056000E-1,-3.955258369E0,3.965608994E0
1.107774700E1,1.124733686E0,2.820219994E0,-3.697796583E0,4.784596770E0
1.108774674E1,1.222284555E0,3.888319016E0,-2.849446297E0,4.973162826E0
1.109812934E1,1.307773590E0,4.009097099E0,-2.596523762E0,4.952278966E0
1.110773637E1,1.374299765E0,3.992605209E0,-2.401038647E0,4.857425530E0
1.111786455E1,1.426846623E0,3.241822243E0,-2.324926138E0,4.236812987E0
1.112773507E1,1.481716633E0,1.750979424E0,-2.315607786E0,3.259363825E0
1.113775116E1,1.483304024E0,2.436943054E-1,-2.322866201E0,2.766818594E0
1.114774804E1,1.435843706E0,-1.594973564E0,-2.837263584E0,3.557478386E0
1.115774986E1,1.326098680E0,-2.693660736E0,-2.775921345E0,4.089020076E0
1.116775116E1,1.193678856E0,-2.841254234E0,-2.730083466E0,4.117153211E0
1.117774752E1,1.084683776E0,-3.540793419E0,-2.709735870E0,4.588728083E0
1.118773658E1,1.062992811E0,-3.456024170E0,-2.754950047E0,4.545745983E0
1.119773762E1,1.137386560E0,-3.329667091E0,-2.738753796E0,4.458823105E0
1.120773840E1,1.923820734E0,-2.425971985E0,-2.675292730E0,4.091896563E0
1.121773918E1,2.053747416E0,-2.293375015E0,-2.558053493E0,4.002634768E0
1.122773762E1,3.186487436E0,-1.485028267E0,-2.395998240E0,4.254388170E0
1.123775116E1,3.276949644E0,-1.394150734E0,-2.224887848E0,4.199069084E0
1.124773528E1,3.961913347E0,-1.312726021E0,-2.071388721E0,4.659469735E0
1.125773658E1,3.945283175E0,-1.234812737E0,-1.930084229E0,4.562372952E0
1.126773476E1,3.862747669E0,-1.168907166E0,-1.773605824E0,4.408269630E0
1.127786845E1,3.734554529E0,-1.113801003E0,-1.021169066E0,4.028676764E0
1.128776293E1,3.494758606E0,-1.057343483E0,-8.882136345E-1,3.757690303E0
1.129773564E1,2.345548630E0,-1.000090599E0,-7.430396080E-1,2.655915556E0
1.130775179E1,2.102401972E0,-9.330205917E-1,-6.094274521E-1,2.379500640E0
1.131773601E1,1.159749031E0,-7.987861633E-1,-5.008234978E-1,1.494624142E0
1.132773580E1,1.016821623E0,4.875144958E-1,-4.594917297E-1,1.217673703E0
1.133774413E1,9.133677483E-1,4.167881012E-1,-5.249179602E-1,1.132912984E0
1.134773554E1,8.593562841E-1,1.649500847E0,-6.530194283E-1,1.971238352E0
1.135773996E1,8.547192812E-1,2.463985443E0,-1.489826798E0,3.003556759E0
1.136773996E1,1.574660063E0,3.854063988E0,-1.591340423E0,4.457098594E0
1.137773892E1,2.330108643E0,3.961318016E0,-1.661837101E0,4.887038905E0
1.138774309E1,2.386345625E0,4.029399872E0,-1.724293470E0,4.990380420E0
1.139773892E1,2.465313911E0,4.031105995E0,-1.740216136E0,5.035468243E0
1.140773736E1,3.111983299E0,3.985312462E0,-1.683457255E0,5.329276105E0
1.141773788E1,3.116605997E0,3.942716599E0,-1.550557256E0,5.259512803E0
1.142773840E1,3.108924389E0,3.922585487E0,-8.372641802E-1,5.074751134E0
1.143774674E1,3.028337479E0,3.951582909E0,-8.516566753E-1,5.050856805E0
1.144773684E1,2.902621269E0,3.991141319E0,-9.232926369E-1,5.020646229E0
1.145776653E1,2.174635649E0,4.049797058E0,-1.039883018E0,4.712881614E0
1.146773496E1,1.971680284E0,4.124528885E0,-1.759850025E0,4.898605289E0
1.147772830E1,5.245313644E-1,4.198625565E0,-1.750834227E0,4.579193190E0
1.148772741E1,-1.557798147E0,4.287074089E0,-1.697001100E0,4.866780460E0
1.149773715E1,-1.540922761E0,4.333920479E0,-1.610272050E0,4.873426489E0
1.150773892E1,-3.244857788E0,4.343998909E0,-1.522200823E0,5.631742531E0
1.151773970E1,-4.279434681E0,4.297607422E0,-8.836916685E-1,6.128939689E0
1.152773840E1,-5.012035370E0,4.242678642E0,-8.275312185E-1,6.618582063E0
1.153774335E1,-5.121055603E0,4.230662346E0,-1.812075377E-1,6.645039544E0
1.154773788E1,-5.065417290E0,4.240479469E0,-9.722888470E-2,6.606782266E0
1.155774022E1,-4.881061077E0,4.402652740E0,3.936767578E-2,6.573405374E0
1.156773554E1,-4.051871300E0,5.012684822E0,8.854305744E-2,6.446123644E0
1.157773944E1,-3.715660810E0,4.956975937E0,1.427539587E-1,6.196622014E0
1.158774361E1,-2.357697010E0,4.865587234E0,1.762694120E-1,5.409597511E0
1.159773736E1,-6.518254876E-1,4.711481094E0,1.545864344E-1,4.758868304E0
1.160773970E1,-4.617840648E-1,3.645774841E0,7.041954994E-2,3.675578543E0
1.161773658E1,-4.786224961E-1,3.464574814E0,-7.707560062E-2,3.498327998E0
1.162774127E1,8.887706995E-1,2.258522987E0,-8.708070517E-1,2.578593485E0
1.163774179E1,1.810372233E0,1.557260513E0,-1.028495193E0,2.600059671E0
1.164779340E1,2.621009111E0,1.388223648E0,-1.896889567E0,3.520659553E0
1.165773668E1,2.799960136E0,8.746147156E-2,-2.012157917E0,3.449087670E0
1.166788090E1,3.730214596E0,3.274917603E-3,-2.118926287E0,4.290030334E0
1.167773715E1,3.815294027E0,1.980400085E-2,-2.191050529E0,4.399723075E0
1.168774648E1,3.832703114E0,-1.041901588E0,-2.248786449E0,4.564231871E0
1.169774335E1,3.769951582E0,-2.179687500E0,-2.256382704E0,4.904572910E0
1.170773866E1,3.613884687E0,-2.312899113E0,-2.238615036E0,4.839531188E0
1.171773918E1,2.770230293E0,-3.278820038E0,-2.163317680E0,4.806743191E0
1.172774075E1,2.557224751E0,-3.390445232E0,-2.039802551E0,4.711190056E0
1.173774465E1,1.328243136E0,-4.309990883E0,-1.191794634E0,4.664828581E0
1.174773840E1,-2.973919511E-1,-4.947723389E0,-1.027582884E0,5.062048527E0
1.175773788E1,-5.158751011E-1,-5.011055470E0,-2.034507990E-1,5.041646186E0
1.176773918E1,-5.341172218E-1,-5.091609001E0,-2.158129215E-2,5.119592677E0
1.177773996E1,-5.550647974E-1,-5.840605736E0,1.613984823E0,6.084876276E0
1.178774335E1,-5.686855316E-1,-5.893469810E0,1.729184270E0,6.168181894E0
1.179773762E1,-5.505390763E-1,-6.503623009E0,1.828175902E0,6.778084733E0
1.180773736E1,-7.276973128E-1,-6.576621532E0,1.724714756E0,6.837845797E0
1.181773658E1,-6.520295739E-1,-7.259344101E0,1.802888036E0,7.508237117E0
1.182773429E1,-5.773394108E-1,-7.329252243E0,1.878980994E0,7.588269158E0
1.183777122E1,-1.761245966E0,-7.402308464E0,1.902419448E0,7.843172681E0
1.184774262E1,-1.761237860E0,-7.443343163E0,3.194462061E0,8.289143749E0
1.185774247E1,-1.723396063E0,-7.403581619E0,4.622084618E0,8.896447662E0
1.186773679E1,-1.634778976E0,-6.635931969E0,6.269986153E0,9.274741061E0
1.187773970E1,-1.476072907E0,-4.857827187E0,7.961509705E0,9.442611555E0
1.188774517E1,-3.471047878E-1,-2.341287136E0,9.536037445E0,9.825381282E0
1.189773944E1,8.981354237E-1,4.618339539E-1,1.156755447E1,1.161155693E1
1.190773866E1,1.893435121E0,3.296176910E0,1.133327007E1,1.195378138E1
1.191774049E1,2.939241409E0,6.998873711E0,1.113915062E1,1.347976446E1
1.192773788E1,3.649813414E0,7.664225578E0,9.618266106E0,1.282858272E1
1.193774465E1,3.670814991E0,7.572923660E0,8.348914146E0,1.185446848E1
1.194773840E1,3.567229748E0,6.432629585E0,7.155468464E0,1.026180201E1
1.195773892E1,2.533735514E0,4.883317947E0,6.596933365E0,8.589885893E0
1.196773554E1,1.651833653E0,3.218588829E0,4.941522121E0,6.124255820E0
1.197773814E1,8.811251521E-1,1.794466972E0,3.732217550E0,4.233903765E0
1.198774179E1,6.824197769E-1,2.814979553E-1,2.551421642E0,2.656066687E0
1.199773658E1,-5.388857722E-1,2.356681824E-1,1.165876150E0,1.305834815E0
1.200776080E1,-5.206649303E-1,2.538686752E0,-3.271967173E-1,2.612102618E0
1.201774226E1,-5.008828044E-1,4.162084579E0,-1.801651955E0,4.562869864E0
1.202772996E1,-4.799440205E-1,5.509445190E0,-3.350286484E0,6.465968767E0
1.203773747E1,-4.281337857E-1,5.664590836E0,-4.918688774E0,7.514278883E0
1.204774497E1,-5.515893102E-1,5.698483467E0,-6.091469765E0,8.359603369E0
1.205774075E1,-4.734770954E-1,5.582818985E0,-6.236571789E0,8.383726860E0
1.206774101E1,-3.664386868E-1,4.234640121E0,-6.895793915E0,8.100520229E0
1.207773684E1,-2.644346058E-1,2.438812256E0,-6.790756226E0,7.220256297E0
1.208774465E1,-1.709096283E-1,3.081912994E-1,-6.595941067E0,6.605348631E0
1.209772517E1,-2.840767503E-1,-2.386553764E0,-6.305491924E0,6.748004659E0
1.210774101E1,-1.602017134E-1,-5.857756615E0,-5.970860958E0,8.366012056E0
1.211776288E1,-7.795266807E-2,-6.007399082E0,-5.726907253E0,8.300143796E0
1.212773866E1,2.609007061E-3,-5.987931728E0,-5.481893539E0,8.118281220E0
1.213774752E1,-1.182118058E-1,-4.971180916E0,-5.224593163E0,7.212696267E0
1.214773710E1,1.037640929E0,-3.169123173E0,-4.937710285E0,5.958273512E0
1.215773580E1,1.126901269E0,-1.132537842E0,-4.122581005E0,4.421337193E0
1.216773736E1,1.240092993E0,1.967267990E-1,-3.851231575E0,4.050742735E0
1.217773736E1,1.876955032E0,1.968723297E0,-3.540515661E0,4.464760101E0
1.218774726E1,1.874034643E0,2.725465775E0,-2.501834154E0,4.147209142E0
1.219776825E1,1.800978541E0,2.780279160E0,-2.281526089E0,4.022292531E0
1.220773424E1,5.870156363E-2,2.688376427E0,-2.097806454E0,3.410513979E0
1.221776715E1,8.706925064E-2,1.522200584E0,-1.972275734E0,2.492899365E0
1.222773606E1,1.207033917E-1,2.220125198E-1,-1.893321514E0,1.910111312E0
1.223774882E1,-4.488896579E-2,-1.169139862E0,-1.843934059E0,2.183803071E0
1.224774960E1,-1.035294868E-2,-2.112389565E0,-1.840917349E0,2.802012409E0
1.225774648E1,-1.024008870E0,-2.233657837E0,-1.838258028E0,3.068715379E0
1.226775064E1,-1.056667924E0,-2.293725014E0,-1.825300336E0,3.115997891E0
1.227774856E1,-9.743832350E-1,-2.300500393E0,-1.810597420E0,3.085447741E0
1.228775038E1,5.355433375E-2,-2.193760872E0,-1.875660419E0,2.886790058E0
1.229774778E1,1.658564091E0,-2.105947971E0,-1.871479273E0,3.269294476E0
1.230775012E1,2.695391893E0,-2.012317657E0,-1.829651594E0,3.829123238E0
1.231778241E1,3.574430466E0,-1.923205376E0,-1.768780231E0,4.427624146E0
1.232774960E1,3.757621527E0,-1.833247185E0,-1.687394023E0,4.508637640E0
1.233774700E1,4.623646259E0,-1.762005806E0,-1.587623715E0,5.196471712E0
1.234774439E1,4.656240463E0,-1.682646751E0,-1.477082491E0,5.166589593E0
1.235774700E1,4.578170300E0,-1.587575912E0,-1.346819639E0,5.029310461E0
1.236774726E1,4.404957771E0,-9.018764496E-1,-1.211621523E0,4.656722110E0
1.237773642E1,3.564074755E0,-7.894449234E-1,-1.074456096E0,3.805299994E0
1.238775512E1,3.301465273E0,3.833560944E-1,-9.443577528E-1,3.455205697E0
1.239773793E1,2.272692680E0,4.165058136E-1,-7.970421314E-1,2.444153283E0
1.240772439E1,2.044624567E0,4.505548477E-1,-2.946352959E-2,2.093885716E0
1.241776189E1,1.163556099E0,4.845685959E-1,8.963394165E-2,1.263607440E0
1.242774595E1,9.824297428E-1,2.078519821E0,1.836907864E-1,2.306329368E0
1.243773762E1,8.212443590E-1,2.229167938E0,2.355898619E-1,2.387286027E0
1.244774179E1,7.093745470E-1,3.083208084E0,2.109462023E-1,3.170785808E0
1.245773996E1,6.569898129E-1,3.144689560E0,9.701633453E-2,3.214050437E0
1.246773918E1,1.456924677E0,3.324881554E0,-6.457250118E-1,3.687062198E0
1.247773997E1,1.591382980E0,3.389728546E0,-7.508718967E-1,3.819236574E0
1.248773762E1,2.723339319E0,3.405579567E0,-8.649482727E-1,4.445524125E0
1.249773554E1,2.876176596E0,3.361666679E0,-9.757101536E-1,4.530475138E0
1.250773502E1,3.845919609E0,3.277617455E0,-1.061065435E0,5.163306467E0
1.251776965E1,3.888246059E0,3.192940712E0,-1.113711953E0,5.153026501E0
1.252773606E1,3.871203184E0,3.151929855E0,-1.103208661E0,5.112528265E0
1.253773658E1,3.771030664E0,3.179621696E0,-1.097464204E0,5.053226107E0
1.254773736E1,2.885934353E0,3.281012535E0,-1.145300984E0,4.517230865E0
1.255775611E1,1.991715431E0,4.016805649E0,-1.218558788E0,4.646132101E0
1.256773601E1,8.942782879E-1,4.129826546E0,-1.255017638E0,4.407978020E0
1.257774236E1,-1.254166722E0,4.906948090E0,-1.216807961E0,5.208809397E0
1.258774174E1,-1.253541470E0,4.978730202E0,-1.094726324E0,5.249528204E0
1.259773663E1,-2.770611763E0,5.074654579E0,-2.162476778E-1,5.785773215E0
1.260774205E1,-3.588085175E0,5.132837296E0,-1.372654438E-1,6.264121305E0
1.261776575E1,-3.722389221E0,5.122121811E0,-8.243727684E-2,6.332385748E0
1.262773684E1,-3.796016693E0,5.064034462E0,-2.423679829E-2,6.328884198E0
1.263774674E1,-3.759665728E0,5.000414848E0,2.746796608E-2,6.256196091E0
1.264773997E1,-3.473487854E0,4.928698540E0,6.649816036E-2,6.030058803E0
1.265773892E1,-2.394930840E0,4.893777847E0,5.771732330E-2,5.448677512E0
1.266773970E1,-2.099493027E0,4.837574959E0,4.591727257E-2,5.273718882E0
1.267773684E1,-7.442193031E-1,4.762705803E0,3.582239151E-2,4.820634002E0
1.268773788E1,-5.791202188E-1,4.642243385E0,8.139371872E-3,4.678233654E0
1.269773502E1,-4.210115671E-1,3.788878441E0,-2.492845058E-2,3.812279109E0
1.270773710E1,-4.689867496E-1,3.623780251E0,-1.111749411E-1,3.655693059E0
1.271776184E1,-3.267034888E-1,2.509547234E0,-2.628387213E-1,2.544336196E0
1.272773684E1,-1.950191557E-1,1.754004478E0,-1.307143092E0,2.196175595E0
1.273773580E1,1.430332899E0,6.086158752E-2,-1.479454517E0,2.058723392E0
1.274775450E1,1.612880468E0,7.537651062E-2,-2.427809238E0,2.915702784E0
1.275775543E1,2.686365604E0,-9.329795837E-3,-2.538132668E0,3.695776595E0
1.276777194E1,2.857325315E0,7.105827332E-3,-2.626098156E0,3.880818210E0
1.277774288E1,3.703503609E0,-1.646869659E0,-2.707726002E0,4.874412657E0
1.278773559E1,3.802074432E0,-1.775087833E0,-2.764900923E0,5.025075514E0
1.279773658E1,3.841189146E0,-2.695387840E0,-2.754979849E0,5.441485425E0
1.280773997E1,3.810479164E0,-2.792029858E0,-2.695566177E0,5.438865617E0
1.281776835E1,3.654782534E0,-3.503026009E0,-2.569843292E0,5.677386822E0
1.282773684E1,2.784884930E0,-3.572645664E0,-2.382270098E0,5.118065253E0
1.283773788E1,1.024957299E0,-4.301851273E0,-1.230706692E0,4.590326873E0
1.284773710E1,-4.293996096E-1,-4.984801292E0,9.927487373E-2,5.004246542E0
1.285773892E1,-4.580423832E-1,-5.086954594E0,9.374164343E-1,5.192846949E0
1.286774022E1,-1.826009750E0,-6.072178364E0,1.186932921E0,6.450927953E0
1.287774283E1,-2.612978697E0,-6.188161850E0,2.345074892E0,7.114800138E0
1.288773762E1,-2.802450180E0,-7.299305916E0,2.451195955E0,8.194019494E0
1.289773840E1,-3.502611637E0,-7.421627998E0,2.358017683E0,8.538682441E0
1.290773710E1,-3.557146072E0,-9.439435005E0,2.423301220E0,1.037442096E1
1.291776106E1,-3.547672033E0,-9.374164581E0,2.470664978E0,1.032303850E1
1.292785887E1,-3.485760212E0,-9.309897423E0,3.474541664E0,1.053077177E1
1.293773866E1,-3.303065300E0,-9.254400253E0,4.341314316E0,1.074249386E1
1.294774856E1,-2.186854362E0,-9.399011612E0,5.209738731E0,1.096654590E1
1.295773559E1,-3.811259270E-1,-6.609173298E0,6.200723648E0,9.070578946E0
1.296774137E1,-2.570243776E-1,-4.221148014E0,7.247182369E0,8.390816669E0
1.297774023E1,1.340424895E0,-1.050859451E0,8.357110023E0,8.528911562E0
1.298774257E1,2.800600052E0,2.457525253E0,9.439549446E0,1.014829467E1
1.299774101E1,4.020000935E0,5.628444672E0,1.011541462E1,1.225403647E1
1.300773554E1,4.804560184E0,7.923678398E0,1.000071716E1,1.363388506E1
1.301776418E1,4.935177803E0,9.345843315E0,9.668717384E0,1.432427531E1
1.302773658E1,4.840422630E0,9.150031090E0,9.178613663E0,1.383472837E1
1.303773788E1,4.605111122E0,7.177226067E0,7.860193253E0,1.159751096E1
1.304774049E1,3.220964909E0,4.765419006E0,7.313928604E0,9.304696925E0
1.305773762E1,2.092875719E0,2.290176392E0,5.541515827E0,6.350860914E0
1.306773736E1,1.191948652E0,1.453704834E-1,4.011809826E0,4.187659519E0
1.307773840E1,9.448730350E-1,-9.746208191E-1,2.296686649E0,2.667853137E0
1.308773840E1,-7.547854781E-1,-1.017779350E0,3.853278756E-1,1.324406847E0
1.309772491E1,-7.817546129E-1,-8.865623474E-1,-1.065990329E0,1.591687297E0
1.310773517E1,-8.020274043E-1,2.271528244E-1,-3.350521326E0,3.452656878E0
1.311776622E1,-8.007682562E-1,2.449155807E0,-4.735013485E0,5.390727843E0
1.312774549E1,-1.867024422E0,3.903385162E0,-6.066461563E0,7.451453000E0
1.313772642E1,-2.723576784E0,4.644557953E0,-7.070479393E0,8.887151845E0
1.314773689E1,-2.748426914E0,4.659719467E0,-7.181509972E0,8.991157961E0
1.315773840E1,-2.685814857E0,4.545651436E0,-7.123825550E0,8.867098674E0
1.316774101E1,-2.570740700E0,3.431551933E0,-6.878595829E0,8.105512753E0
1.317773944E1,-2.375585556E0,2.074554443E0,-5.552000046E0,6.385286789E0
1.318773814E1,-6.097831130E-1,1.105356216E-1,-5.224974155E0,5.261597523E0
1.319773840E1,-4.703771472E-1,-3.650239468E0,-4.974406719E0,6.187909586E0
1.320773762E1,6.516552567E-1,-4.578607559E0,-4.807020664E0,6.670513430E0
1.321776653E1,1.569335461E0,-4.587618351E0,-4.638716698E0,6.710197354E0
1.322773944E1,1.673291683E0,-3.877727509E0,-4.426731110E0,6.118220657E0
1.323774335E1,1.743626475E0,-2.608249664E0,-4.197887421E0,5.240749793E0
1.324773892E1,1.787521601E0,-1.011955261E0,-3.947685480E0,4.450113209E0
1.325773840E1,1.828778505E0,1.512022018E-1,-3.684729338E0,4.116372580E0
1.326773762E1,1.843989611E0,1.960370064E0,-2.667059898E0,3.789004747E0
1.327773788E1,1.824454188E0,2.841459274E0,-2.371783257E0,4.126485152E0
1.328773710E1,1.791752219E0,2.894301414E0,-1.169251919E0,3.599236967E0
1.329775767E1,1.714666128E0,2.810054779E0,-9.420498013E-1,3.424024769E0
1.330775642E1,1.613835931E0,1.574468613E0,-7.983815670E-1,2.391825861E0
1.331778465E1,1.473465919E0,1.937685013E-1,-7.380865812E-1,1.659343198E0
1.332773689E1,-5.226132870E-1,-1.167766571E0,-7.632353306E-1,1.489742119E0
1.333773866E1,-5.087205172E-1,-2.281751633E0,-7.995700836E-1,2.470728515E0
1.334774022E1,-4.938325584E-1,-3.007903099E0,-1.371631503E0,3.342562584E0
1.335774335E1,-4.778685272E-1,-3.095642090E0,-1.363395095E0,3.416168096E0
1.336773866E1,-4.605857134E-1,-3.116924286E0,-1.388871551E0,3.443300798E0
1.337773944E1,-6.368589997E-1,-3.060677052E0,-1.436989784E0,3.440679154E0
1.338773892E1,-5.119249225E-1,-2.152770996E0,-1.560129285E0,2.707488407E0
1.339773710E1,-4.320024252E-1,-2.046458244E0,-1.571916580E0,2.616398130E0
1.340774023E1,1.098609686E0,-1.947291851E0,-1.572336555E0,2.733336978E0
1.341775976E1,1.991422653E0,-1.873739243E0,-1.561429381E0,3.148765575E0
1.342773970E1,2.725950241E0,-1.788060188E0,-1.529578447E0,3.601051816E0
1.343774830E1,2.891443014E0,-1.696654320E0,-1.489185214E0,3.668344475E0
1.344774622E1,3.720518351E0,-1.599990368E0,-1.440076709E0,4.298377241E0
1.345774804E1,3.792654276E0,-8.741598129E-1,-1.364858747E0,4.124466176E0
1.346774413E1,3.780051231E0,-7.885866165E-1,-1.239453197E0,4.055477825E0
1.347773486E1,3.681889534E0,3.225574493E-1,-5.520341396E-1,3.736990171E0
1.348775325E1,3.502369881E0,3.551454544E-1,-4.024279118E-1,3.543257160E0
1.349773950E1,2.727639914E0,3.885021210E-1,2.834265232E-1,2.769708286E0
1.350773960E1,2.524093628E0,1.383605003E0,3.390696049E-1,2.898340843E0
1.351776137E1,1.747000217E0,1.530509949E0,3.407689333E-1,2.347465427E0
1.352775299E1,1.622568011E0,2.381066322E0,2.852531672E-1,2.895440062E0
1.353774752E1,1.537625790E0,2.459387779E0,-4.080240726E-1,2.929055302E0
1.354774830E1,1.506827354E0,2.571896553E0,-4.910948277E-1,3.020985714E0
1.355774856E1,1.549820185E0,3.405538559E0,-5.975601673E-1,3.789025420E0
1.356774674E1,2.465991497E0,3.587092400E0,-7.676877975E-1,4.420145982E0
1.357774830E1,3.536918879E0,3.643423080E0,-8.546831608E-1,5.149253364E0
1.358774804E1,3.621261597E0,3.662066460E0,-9.041377306E-1,5.228932142E0
1.359774648E1,4.241148949E0,3.677330971E0,-8.999742270E-1,5.685073534E0
1.360774856E1,4.205476761E0,3.742106438E0,-8.468862772E-1,5.692680541E0
1.361777981E1,4.117980957E0,4.370431900E0,-7.792531252E-1,6.055219037E0
1.362774830E1,3.960309505E0,4.419838905E0,-7.484062910E-1,5.981566626E0
1.363775064E1,2.921283245E0,4.457696915E0,-7.784185410E-1,5.386176102E0
1.364775455E1,2.025324106E0,4.485392570E0,-8.006186485E-1,4.986148260E0
1.365778788E1,8.034731150E-1,4.513924599E0,-7.572115660E-1,4.646983289E0
1.366773470E1,-5.771323442E-1,4.557646751E0,-6.568584442E-1,4.640763802E0
1.367772517E1,-1.709977746E0,4.598258972E0,1.145780087E-2,4.905929142E0
1.368774762E1,-3.349230766E0,4.627665520E0,-1.754939556E-2,5.712525087E0
1.369773642E1,-4.560860634E0,4.652182579E0,-7.395541668E-2,6.515345108E0
1.370773788E1,-5.402472496E0,4.704827309E0,-9.018433094E-2,7.164512704E0
1.371775924E1,-5.507129192E0,4.793399811E0,-4.649245739E-2,7.301185879E0
1.372774960E1,-5.520355701E0,5.457796097E0,-1.554369926E-3,7.762851778E0
1.373773892E1,-5.422123432E0,5.462992668E0,-7.000684738E-3,7.696996844E0
1.374773788E1,-4.299578190E0,5.448150635E0,6.962299347E-2,6.940717925E0
1.375773840E1,-3.117873192E0,5.344643593E0,1.626517653E0,6.397804940E0
1.376773476E1,-1.085177660E0,4.661156654E0,1.633975983E0,5.057061343E0
1.377774960E1,-8.692349195E-1,3.825349808E0,1.640047908E0,4.251896946E0
1.378773892E1,5.536651611E-1,2.867756844E0,1.646094441E0,3.352640949E0
1.379773554E1,1.470102429E0,2.106505394E0,1.452504396E0,2.950988843E0
1.380774153E1,2.348197460E0,1.347293854E0,-4.743355513E-1,2.748495271E0
1.381775950E1,3.153135777E0,1.173660278E0,-6.391941309E-1,3.424662438E0
1.382774257E1,3.328918457E0,-3.889083862E-3,-1.658178449E0,3.719041407E0
1.383773866E1,4.065546036E0,1.067543030E-2,-1.814134836E0,4.451950554E0
1.384775965E1,4.052390099E0,-1.418418884E0,-2.589379787E0,5.013847358E0
1.385774882E1,3.949359179E0,-2.161525726E0,-2.670017242E0,5.234369443E0
1.386780684E1,3.767025471E0,-2.959318638E0,-2.742324591E0,5.519818100E0
1.387775304E1,2.800152063E0,-3.820232391E0,-2.771501541E0,5.487827247E0
1.388773663E1,2.602806091E0,-4.594439983E0,-2.726377487E0,5.942778181E0
1.389773918E1,1.584552526E0,-5.338448524E0,-2.593072653E0,6.142789687E0
1.390773918E1,1.374406815E0,-5.989850044E0,-1.888985991E0,6.429274121E0
1.391775976E1,3.098623753E-1,-6.089081764E0,-1.711297512E0,6.332572194E0
1.392774517E1,-7.537074685E-1,-6.797457218E0,-8.420727253E-1,6.890760920E0
1.393773918E1,-9.457367063E-1,-6.885491371E0,2.263842821E-1,6.953823350E0
1.394773736E1,-9.764261246E-1,-6.923564911E0,4.297678471E-1,7.005273689E0
1.395773762E1,-9.788544774E-1,-6.986392975E0,1.906275630E0,7.307648710E0
1.396773710E1,-2.087343693E0,-7.646924019E0,2.037645578E0,8.184402858E0
1.397774101E1,-2.760109425E0,-7.651891708E0,2.145604134E0,8.412684937E0
1.398773866E1,-2.786228418E0,-7.643952847E0,2.056403637E0,8.391774534E0
1.399773710E1,-2.810535908E0,-7.614691734E0,3.206968784E0,8.727387414E0
1.400773814E1,-2.793124676E0,-7.517971516E0,4.368751049E0,9.132766661E0
1.401775976E1,-2.691518784E0,-6.581175327E0,5.933680534E0,9.260923644E0
1.402786523E1,-2.524197578E0,-5.238167286E0,7.757454872E0,9.694744763E0
1.403775059E1,-8.984651566E-1,-3.315334320E0,9.570432663E0,1.016817892E1
1.404774627E1,-7.912061214E-1,-9.080886841E-1,1.185533237E1,1.191635590E1
1.405773429E1,1.247532845E0,1.513978004E0,1.178975677E1,1.195185477E1
1.406773689E1,2.556867361E0,3.562971115E0,1.167134094E1,1.246806053E1
1.407774517E1,3.515451908E0,5.220330238E0,1.147436810E1,1.308706893E1
1.408773736E1,3.691063643E0,6.381661415E0,1.107199097E1,1.330182458E1
1.409772595E1,3.764272690E0,6.457583427E0,9.582879066E0,1.215325898E1
1.410773710E1,3.654129028E0,6.466362000E0,7.997933388E0,1.091482638E1
1.411776418E1,1.531727552E0,5.551115990E0,5.495383739E0,7.959919627E0
1.412774283E1,-7.033746243E-1,4.715805054E0,4.225689411E0,6.371028501E0
1.413774023E1,-7.072815895E-1,4.600125313E0,3.056616545E0,5.568150936E0
1.414773710E1,-2.351445675E0,4.534461021E0,1.936914682E0,5.462808069E0
1.415774049E1,-3.298595190E0,4.603479385E0,7.396340370E-1,5.711375595E0
1.416773996E1,-4.093609810E0,4.809445381E0,-6.132766008E-1,6.345432557E0
1.417774361E1,-4.208775043E0,5.942060471E0,-1.978069544E0,7.545503901E0
1.418773892E1,-4.182671547E0,5.938273430E0,-4.184987545E0,8.382836832E0
1.419773996E1,-3.998972893E0,5.775166512E0,-5.935131073E0,9.196201025E0
1.420777252E1,-3.779827118E0,4.341791153E0,-7.148683071E0,9.178339344E0
1.421775866E1,-2.694261074E0,3.066855431E0,-7.806939125E0,8.809820853E0
1.422774965E1,-1.823206306E0,1.519473076E0,-7.852560997E0,8.203389170E0
1.423772283E1,-1.425884962E-1,1.650505066E-1,-7.874650002E0,7.877670074E0
1.424773611E1,2.374128439E-2,-2.358231544E0,-8.439730644E0,8.763040170E0
1.425773840E1,1.650803566E0,-3.985701084E0,-8.229825974E0,9.291985853E0
1.426773918E1,2.469767809E0,-4.808810234E0,-7.856959343E0,9.537096991E0
1.427774908E1,2.700531721E0,-4.811807632E0,-6.212389469E0,8.309040088E0
1.428773606E1,3.535507679E0,-4.055573463E0,-4.853962421E0,7.246270893E0
1.429774075E1,3.660774231E0,-9.786930084E-1,-2.768734217E0,4.693079707E0
1.430773632E1,3.604719639E0,1.229686737E-1,-2.406025887E0,4.335675903E0
1.431776080E1,3.452029228E0,2.269692421E0,-2.894710004E-1,4.141473523E0
1.432774361E1,2.733022690E0,3.307200432E0,-5.679173768E-2,4.290712414E0
1.433773788E1,2.521626949E0,3.419975281E0,1.318788230E-1,4.251144013E0
1.434773554E1,1.458046436E0,3.406481743E0,2.757499516E-1,3.715650052E0
1.435773788E1,1.035721600E-2,3.208407402E0,3.852342367E-1,3.231468822E0
1.436773918E1,-2.130205482E-1,1.149434090E0,-1.219515204E0,1.689317559E0
1.437774569E1,-2.301747501E-1,1.842403412E-2,-1.892614007E0,1.906648274E0
1.438773944E1,-1.473012805E0,-2.513416290E0,-1.996334314E0,3.531625528E0
1.439775377E1,-1.627290845E0,-3.858897209E0,-2.813497782E0,5.045288191E0
1.440774752E1,-1.765743613E0,-4.601955891E0,-2.825558186E0,5.681516311E0
1.441777986E1,-1.834529519E0,-4.648890495E0,-2.818845987E0,5.737906769E0
1.442775122E1,-1.781446576E0,-4.616425991E0,-2.820629597E0,5.695690665E0
1.443773840E1,-1.609265327E0,-4.483795643E0,-2.854847670E0,5.553765702E0
1.444773892E1,-1.568254828E-1,-3.285470009E0,-2.884171724E0,4.374626149E0
1.445773736E1,-8.633840084E-2,-2.229144096E0,-2.898426533E0,3.657514742E0
1.446773944E1,1.815936446E0,-1.322715759E0,-2.843289614E0,3.623740883E0
1.447774622E1,3.096268177E0,-1.170500755E0,-2.738245010E0,4.295920667E0
1.448773762E1,4.890811920E0,1.801662445E-1,-2.538044453E0,5.513090853E0
1.449773710E1,5.005621910E0,2.093849182E-1,-2.354918480E0,5.535858903E0
1.450774257E1,5.075910568E0,1.395511627E-1,-1.532345057E0,5.304000754E0
1.451776054E1,5.038970947E0,1.701974869E-1,-1.349804163E0,5.219402904E0
1.452774413E1,4.874163151E0,-1.341431618E0,-5.821859837E-1,5.088796098E0
1.453773840E1,4.066868305E0,-1.347648621E0,-4.295239449E-1,4.305817627E0
1.454773866E1,3.130369663E0,-1.284937859E0,-2.753418684E-1,3.395009967E0
1.455773788E1,2.225236416E0,-1.132836342E0,-1.440776587E-1,2.501150466E0
1.456773736E1,1.934599876E0,2.622394562E-1,-1.106652021E-1,1.955426552E0
1.457786637E1,8.812441826E-1,2.954387665E-1,-1.748950481E-1,9.457608852E-1
1.458774564E1,7.177131176E-1,3.246688843E-1,-9.595286846E-1,1.241457732E0
1.459774757E1,5.805339813E-1,3.544845581E-1,-1.083716154E0,1.279499788E0
1.460773736E1,4.913332462E-1,2.340214729E0,-1.727020264E0,2.949680038E0
1.461775720E1,4.936881065E-1,3.028454781E0,-1.744198084E0,3.529517426E0
1.462774309E1,5.874329805E-1,3.149650574E0,-1.748757839E0,3.650141124E0
1.463773892E1,1.557976127E0,3.848573685E0,-1.733202338E0,4.499199858E0
1.464774101E1,1.657091141E0,3.888443947E0,-1.676135063E0,4.547018378E0
1.465773840E1,2.487078190E0,3.903081894E0,-1.571294427E0,4.887593720E0
1.466773944E1,2.600495100E0,3.902167320E0,-9.243869781E-1,4.779537200E0
1.467774830E1,2.603094101E0,3.915932655E0,-9.247392416E-1,4.792261483E0
1.468775038E1,2.544246912E0,3.949809074E0,-9.836304188E-1,4.800178421E0
1.469774986E1,2.418768406E0,4.017847061E0,-1.109184146E0,4.819110403E0
1.470774726E1,1.447794676E0,4.109868050E0,-1.932767987E0,4.766835103E0
1.471778033E1,6.411966085E-1,4.810080528E0,-1.950779080E0,5.230061835E0
1.472774752E1,-3.437628746E-1,4.870730400E0,-1.921292186E0,5.247242248E0
1.473774778E1,-1.517721415E0,4.927550316E0,-1.830661774E0,5.471339227E0
1.474774752E1,-1.699878454E0,4.946653366E0,-1.691815853E0,5.497381846E0
1.475778424E1,-3.454682350E0,4.918038368E0,-9.055473804E-1,6.077988778E0
1.476773720E1,-3.633715868E0,4.840137482E0,-8.496596813E-1,6.111689081E0
1.477775330E1,-4.610381126E0,4.739179611E0,-7.577849627E-1,6.655048878E0
1.478772783E1,-4.623581886E0,4.650372505E0,-3.251743317E-2,6.557784022E0
1.479773710E1,-4.566023827E0,4.571414948E0,5.080544949E-2,6.461345789E0
1.480774726E1,-4.418731689E0,4.525142670E0,1.597684622E-1,6.326739436E0
1.481777382E1,-4.212368011E0,4.517019272E0,1.697869062E0,6.405487235E0
1.482774543E1,-3.296824932E0,4.531497955E0,1.731214523E0,5.865205203E0
1.483774986E1,-3.014854431E0,4.528799057E0,1.737783313E0,5.711327252E0
1.484774882E1,-1.874208570E0,4.392666817E0,1.584581256E0,5.031806562E0
1.485774934E1,-6.730618477E-1,3.574838638E0,1.588953137E0,3.969540983E0
1.486774934E1,-5.050408244E-1,3.390323639E0,-3.497189283E-1,3.445528108E0
1.487774882E1,7.349385023E-1,2.156426430E0,-1.158600330E0,2.555907720E0
1.488774934E1,1.678087354E0,1.354827881E0,-1.391036153E0,2.566421114E0
1.489774830E1,2.604144573E0,-1.095514297E-1,-2.438441277E0,3.569252910E0
1.490774543E1,3.351426840E0,-9.914684296E-2,-2.567044020E0,4.222748744E0
1.491776132E1,3.521039486E0,-8.709716797E-2,-2.693351746E0,4.433897676E0
1.492773528E1,4.317464352E0,-1.783293724E0,-2.823456287E0,5.458254331E0
1.493773710E1,4.315256596E0,-2.518441200E0,-2.884000778E0,5.769007372E0
1.494775616E1,4.209906578E0,-3.210574150E0,-2.867298126E0,6.021004759E0
1.495775772E1,3.396254539E0,-3.352735043E0,-2.791423321E0,5.528781178E0
1.496778372E1,2.536246300E0,-4.368690968E0,-2.636511803E0,5.698175195E0
1.497773637E1,1.508820295E0,-4.464281082E0,-2.429676056E0,5.301855336E0
1.498774002E1,-4.939947128E-1,-5.214375973E0,-1.412124157E0,5.424743514E0
1.499773684E1,-5.128429532E-1,-5.261040688E0,-1.181134582E0,5.416330484E0
1.500773684E1,-5.333991051E-1,-5.310309410E0,-7.483148575E-2,5.337555657E0
1.501776470E1,-2.195494413E0,-5.366564751E0,1.566001177E-1,5.800408308E0
1.502773892E1,-2.367116451E0,-5.417709827E0,1.978007078E0,6.234367014E0
1.503773554E1,-2.551746845E0,-6.029734612E0,1.932536840E0,6.826698330E0
1.504774075E1,-2.534086704E0,-6.065636635E0,2.048237324E0,6.885406259E0
1.505774049E1,-2.465866566E0,-6.148961544E0,2.129140615E0,6.958697130E0
1.506773788E1,-2.362714291E0,-6.934734344E0,2.205534697E0,7.650970040E0
1.507773944E1,-2.179901838E0,-7.024836540E0,2.027928829E0,7.629731042E0
1.508773658E1,-1.431931496E0,-7.101728439E0,4.042115211E0,8.296003256E0
1.509772726E1,-3.452884257E-1,-7.117132187E0,5.354199409E0,8.912925781E0
1.510773996E1,-2.244325876E-1,-6.986912727E0,6.797124863E0,9.750293629E0
1.511776288E1,-1.031780392E-1,-5.381803513E0,8.106344223E0,9.730738483E0
1.512785986E1,9.807041287E-1,-3.173758030E0,9.326641083E0,9.900543142E0
1.513774585E1,2.125067711E0,2.799425125E-1,1.024619579E1,1.046798972E1
1.514773590E1,3.117226839E0,2.060467720E0,1.025840759E1,1.091776336E1
1.515773689E1,3.805787325E0,4.356409073E0,1.015698719E1,1.168874270E1
1.516774757E1,3.919489145E0,5.963666916E0,9.869442940E0,1.217922913E1
1.517774049E1,4.014062405E0,6.757845879E0,9.395492554E0,1.224975339E1
1.518773788E1,3.976545334E0,6.731838226E0,7.938965797E0,1.114260906E1
1.519773892E1,3.792568445E0,6.548192978E0,7.390778065E0,1.057761821E1
1.520773997E1,2.679121017E0,4.852700233E0,5.884980202E0,8.084514887E0
1.521776731E1,-3.528777957E-1,2.568248749E0,3.797750950E0,4.598188410E0
1.522773840E1,-3.794745803E-1,2.604355812E0,2.597311735E0,3.697661207E0
1.523773580E1,-3.988336623E-1,3.844526291E0,1.133561611E0,4.027953900E0
1.524773788E1,-1.545099258E0,5.600404739E0,-1.278458357E0,5.948640242E0
1.525773866E1,-1.573178053E0,6.897016525E0,-1.443756938E0,7.219983396E0
1.526773580E1,-1.532699585E0,7.015615463E0,-4.179320335E0,8.308715112E0
1.527773840E1,-5.608838201E-1,6.983419418E0,-5.682332516E0,9.020623052E0
1.528773840E1,-4.431549907E-1,6.079974174E0,-6.523649216E0,8.928632112E0
1.529773788E1,-3.352760375E-1,4.446204185E0,-6.627118111E0,7.987479961E0
1.530776132E1,-2.356027216E-1,1.916162491E0,-6.667357445E0,6.941242153E0
1.531775569E1,-3.438730240E-1,-1.261358261E0,-6.578579426E0,6.707233452E0
1.532772595E1,-2.555624545E-1,-4.455908775E0,-6.485519886E0,7.872890408E0
1.533772168E1,-1.716122478E-1,-6.727272987E0,-6.238827705E0,9.176525690E0
1.534773595E1,-9.217386693E-2,-7.904660225E0,-5.916531563E0,9.874081984E0
1.535774283E1,-1.475804299E-2,-7.914964676E0,-5.037858486E0,9.382265278E0
1.536773819E1,-1.389353722E-1,-6.839585781E0,-4.765532494E0,8.337237950E0
1.537774361E1,-7.058605552E-2,-4.913725376E0,-4.514973164E0,6.673429563E0
1.538774622E1,-1.059941296E-2,-2.382411003E0,-4.290322304E0,4.907429063E0
1.539774049E1,4.942461848E-2,6.602573395E-2,-4.051966190E0,4.052805473E0
1.540773814E1,-5.122814327E-2,3.587430954E0,-3.091926813E0,4.736274548E0
1.541776340E1,7.582213730E-3,4.442861557E0,-2.067909241E0,4.900543330E0
1.542773944E1,6.788667291E-2,4.460446358E0,-1.847514033E0,4.828405370E0
1.543774309E1,1.089270234E0,4.281106949E0,-1.705742359E0,4.735392629E0
1.544773710E1,1.121870995E0,2.309569359E0,-1.603630781E0,3.027265570E0
1.545773788E1,5.135962367E-2,-1.621913910E-2,-1.546321630E0,1.547259337E0
1.546773970E1,1.171467677E-1,-1.251104355E0,-1.528808594E0,1.978949516E0
1.547773658E1,1.813136041E-1,-2.529639244E0,-1.589561224E0,2.993101103E0
1.548773762E1,2.449543774E-1,-3.240217686E0,-2.264996767E0,3.960962465E0
1.549775054E1,3.073498607E-1,-3.293227196E0,-2.275788784E0,4.014850419E0
1.550774663E1,1.677348465E-1,-3.289040089E0,-2.306528091E0,4.020695403E0
1.551776944E1,2.285584807E-1,-3.215319157E0,-2.340152025E0,3.983318687E0
1.552773476E1,2.858553827E-1,-2.556406975E0,-2.385460615E0,3.508183614E0
1.553773502E1,1.562102318E0,-2.410427570E0,-2.421229839E0,3.756684530E0
1.554774413E1,2.565266848E0,-1.531835556E0,-2.417755842E0,3.843521495E0
1.555773892E1,3.654679298E0,-1.435870171E0,-2.333656788E0,4.567751955E0
1.556774075E1,4.531795502E0,-1.364457130E0,-2.225430250E0,5.229861712E0
1.557774335E1,4.689838409E0,-1.318767548E0,-2.092525959E0,5.302112507E0
1.558773918E1,5.473524570E0,-1.287246704E0,-1.847963810E0,5.918736820E0
1.559774049E1,5.351519585E0,-1.292746544E0,-1.013106942E0,5.597887206E0
1.560774309E1,5.117449760E0,-1.275914192E0,-8.378808498E-1,5.340252185E0
1.561776392E1,3.992405415E0,-1.223567963E0,-1.078597307E-1,4.177086697E0
1.562773944E1,3.179505348E0,-1.115046501E0,1.878166199E-2,3.369411775E0
1.563773762E1,2.879696131E0,3.018169403E-1,1.492358446E-1,2.899312782E0
1.564773736E1,1.682849884E0,2.385692596E-1,2.746330500E-1,1.721720749E0
1.565773762E1,1.454538226E0,2.706356049E-1,3.453549147E-1,1.519274530E0
1.566773788E1,1.228585720E0,1.400220871E0,3.661984205E-1,1.898457964E0
1.567773663E1,1.038790107E0,2.465878487E0,3.066759109E-1,2.693267850E0
1.568775512E1,8.971022367E-1,2.602629662E0,2.213755846E-1,2.761789407E0
1.569773819E1,8.463213444E-1,3.485977173E0,1.293413639E-1,3.589571821E0
1.570775929E1,8.560322523E-1,3.584696770E0,5.208587646E-2,3.685858799E0
1.571775929E1,9.687086344E-1,3.660652161E0,-3.104162216E-2,3.786784156E0
1.572773814E1,1.928162336E0,3.698849678E0,-6.654115915E-1,4.223987633E0
1.573774101E1,2.022895813E0,3.679376602E0,-7.406513691E-1,4.263623354E0
1.574773944E1,2.639806986E0,3.616599083E0,-7.847779989E-1,4.545794359E0
1.575773970E1,2.664141417E0,3.553394318E0,-8.175680637E-1,4.515825307E0
1.576774101E1,2.548436165E0,3.518846512E0,-1.003598332E0,4.459149837E0
1.577774022E1,1.594911933E0,3.533711433E0,-2.077807903E0,4.398652777E0
1.578774022E1,6.847116947E-1,3.554347992E0,-2.202360630E0,4.237052289E0
1.579773918E1,-1.278643370E0,3.586428642E0,-2.274712086E0,4.435280639E0
1.580773866E1,-1.256793857E0,3.642868042E0,-2.258922577E0,4.466850073E0
1.581776132E1,-2.891587973E0,3.740118980E0,-2.185794830E0,5.208403789E0
1.582773762E1,-3.993213654E0,4.419122696E0,-2.066295624E0,6.304282536E0
1.583773684E1,-4.760955811E0,4.440848351E0,-1.319680214E0,6.642995572E0
1.584773892E1,-4.845431805E0,4.444737434E0,-1.195446134E0,6.683037610E0
1.585775116E1,-4.849214554E0,4.458070755E0,-3.159728050E-1,6.594627773E0
1.586773460E1,-4.716599941E0,4.495348930E0,-1.458518505E-1,6.517342232E0
1.587772788E1,-4.502826214E0,4.560792923E0,7.839807272E-1,6.456849215E0
1.588774293E1,-3.421153545E0,4.640343666E0,1.764477611E0,6.029134445E0
1.589773950E1,-3.096300602E0,5.238415718E0,1.814033985E0,6.349708336E0
1.590773710E1,-1.758960605E0,5.209321976E0,1.858699203E0,5.803941814E0
1.591777330E1,-1.470829129E0,5.129560471E0,1.874682307E0,5.655984680E0
1.592774622E1,-2.349048406E-1,5.009504318E0,1.886202335E0,5.357991513E0
1.593774960E1,-2.707963586E-1,4.014628410E0,1.637424469E0,4.344160544E0
1.594775663E1,-1.130121946E-1,3.268024445E0,-2.619862556E-2,3.270082857E0
1.595774726E1,1.480870008E0,1.609951973E0,-1.561646819E0,2.687687133E0
1.596774778E1,1.694063783E0,-5.456733704E-2,-1.784848809E0,2.461405080E0
1.597775429E1,2.737284422E0,-1.443624496E-1,-2.658532143E0,3.818554658E0
1.598774127E1,2.887051344E0,-1.331787109E-1,-2.742251873E0,3.984061667E0
1.599774387E1,3.763148308E0,-1.789023399E0,-2.798603535E0,5.019369647E0
1.600774804E1,3.833228588E0,-2.565008640E0,-2.763396502E0,5.376734228E0
1.601779283E1,3.819606304E0,-3.298520088E0,-2.682428360E0,5.715334548E0
1.602774934E1,3.739473581E0,-3.444954872E0,-2.554810524E0,5.690205053E0
1.603774804E1,3.561227798E0,-4.351456642E0,-2.389752865E0,6.109700246E0
1.604785200E1,2.607600212E0,-4.402539253E0,-1.605262399E0,5.362723013E0
1.605773637E1,2.372983456E0,-4.457832336E0,-1.481330276E0,5.262856544E0
1.606775205E1,1.098695636E0,-4.499999046E0,-1.328505278E0,4.818926207E0
1.607773559E1,-3.946768641E-1,-4.540860176E0,-1.120592356E0,4.693709428E0
1.608773663E1,-4.261069298E-1,-4.560768604E0,-2.063894272E-1,4.585277960E0
1.609772934E1,-4.575405717E-1,-4.562560081E0,-1.028323174E-2,4.585455661E0
1.610774934E1,-1.748711109E0,-4.566531181E0,7.395284176E-1,4.945513103E0
1.611777668E1,-1.920506597E0,-4.604572296E0,8.865840435E-1,5.067194775E0
1.612775090E1,-2.571984053E0,-5.227019310E0,1.042492270E0,5.918075952E0
1.613774022E1,-2.661392212E0,-6.241517067E0,2.289762020E0,7.161183834E0
1.614773684E1,-2.677852392E0,-6.360542774E0,2.369776487E0,7.296796449E0
1.615773606E1,-2.668210983E0,-7.258471966E0,3.628344774E0,8.542227516E0
1.616773788E1,-2.583301783E0,-7.319435120E0,4.502015591E0,8.973055385E0
1.617773788E1,-2.423272133E0,-7.321532249E0,5.486830711E0,9.464797598E0
1.618773892E1,-1.549566984E0,-7.125352383E0,6.624641418E0,9.851785541E0
1.619773814E1,-1.530823410E-1,-4.778442860E0,7.972924232E0,9.296476278E0
1.620773997E1,-1.939965785E-2,-2.000436783E0,9.324359894E0,9.536551321E0
1.621776575E1,1.446797252E0,2.678585052E-1,1.036974144E1,1.047361007E1
1.622775106E1,2.671741724E0,3.993999481E0,1.173521709E1,1.268091306E1
1.623775054E1,3.680555820E0,6.139599800E0,1.156006908E1,1.359692517E1
1.624775304E1,3.891132593E0,7.454893112E0,1.132897854E1,1.410893685E1
1.625772392E1,4.598273277E0,7.531668663E0,1.102731800E1,1.412345185E1
1.626773606E1,4.572571754E0,7.432516098E0,1.054471779E1,1.368728539E1
1.627773788E1,4.409807205E0,6.244803429E0,7.920526981E0,1.100812051E1
1.628774127E1,3.502510309E0,4.434808731E0,6.305257320E0,8.467076049E0
1.629773840E1,3.213810682E0,2.597769737E0,4.416677475E0,6.048473082E0
1.630774231E1,1.799776316E0,1.340926170E0,2.466404200E0,3.334730492E0
1.631776392E1,-3.288702965E-1,1.448116302E0,-1.016625524E0,1.799645507E0
1.632774179E1,-3.767639995E-1,3.410320282E0,-2.961694002E0,4.532534269E0
1.633773658E1,-4.166742265E-1,5.044957161E0,-4.640299320E0,6.867138265E0
1.634774413E1,-1.915437937E0,6.041611671E0,-6.045818806E0,8.759103785E0
1.635773788E1,-2.036394358E0,6.089234352E0,-7.077075958E0,9.555662253E0
1.636773840E1,-2.110221148E0,5.959936142E0,-7.193151951E0,9.576810904E0
1.637773892E1,-2.127507210E0,4.537459373E0,-7.206014156E0,8.777326729E0
1.638773970E1,-2.021388292E0,2.836715698E0,-7.126336098E0,7.932063588E0
1.639773528E1,-1.816246271E0,5.667877197E-2,-6.974092960E0,7.206936632E0
1.640773606E1,-4.694972038E-1,-1.967962265E0,-6.791756153E0,7.086695615E0
1.641778424E1,-3.819974661E-1,-4.266900539E0,-6.595271587E0,7.864475163E0
1.642775892E1,1.101237535E0,-5.749207973E0,-6.375036240E0,8.654894770E0
1.643779476E1,1.254271626E0,-5.903046131E0,-6.119979858E0,8.594958081E0
1.644773585E1,1.390719891E0,-5.869196892E0,-5.792592525E0,8.362756850E0
1.645774569E1,1.491521120E0,-4.784053326E0,-4.581300259E0,6.789706439E0
1.646773684E1,1.517105579E0,-2.981425285E0,-3.367450237E0,4.746601644E0
1.647773866E1,1.476852655E0,1.324272156E-2,-2.154131889E0,2.611810355E0
1.648773918E1,1.349677086E0,4.525566101E-2,-9.857789278E-1,1.671955862E0
1.649773554E1,-1.231217682E-1,2.353573799E0,9.583320618E-1,2.544183354E0
1.650773866E1,-2.678439915E-1,3.355545998E0,9.763602614E-1,3.504954879E0
1.651776158E1,-2.516009808E-1,3.275655746E0,1.112010479E0,3.468398900E0
1.652773944E1,-2.346001267E-1,1.945162773E0,1.206430078E0,2.300906118E0
1.653773840E1,-2.167045325E-1,8.864212036E-2,-1.702675819E-1,2.894984100E-1
1.654774023E1,-3.976265192E-1,-1.418128967E0,-9.580788612E-1,1.757017849E0
1.655773684E1,-3.254287839E-1,-2.686554432E0,-1.108623981E0,2.924470164E0
1.656773606E1,-2.544224560E-1,-3.472553253E0,-1.988798141E0,4.009822307E0
1.657773840E1,-1.828142107E-1,-3.543772697E0,-2.086638451E0,4.116528391E0
1.658773580E1,-1.122526377E-1,-3.546170712E0,-2.764033556E0,4.497533643E0
1.659786939E1,-2.422608137E-1,-3.434648514E0,-2.787585020E0,4.430138932E0
1.660774017E1,1.374476314E0,-2.518350601E0,-2.788492203E0,4.000870362E0
1.661778007E1,2.287140131E0,-1.778873920E0,-2.708540916E0,3.966307641E0
1.662773611E1,3.121693134E0,-1.624227524E0,-2.589100838E0,4.368812908E0
1.663774122E1,3.819435120E0,1.670513153E-1,-2.397563934E0,4.512682528E0
1.664773866E1,3.935502768E0,9.740447998E-2,-1.560954690E0,4.234884793E0
1.665774127E1,4.037850857E0,1.278495789E-1,-1.445940256E0,4.290842374E0
1.666774075E1,3.998984098E0,1.591596603E-1,-1.339241743E0,4.220281278E0
