"Time (s)","Linear Acceleration x (m/s^2)","Linear Acceleration y (m/s^2)","Linear Acceleration z (m/s^2)","Absolute acceleration (m/s^2)"
1.035558500E-1,5.509543419E-2,-1.752614975E-2,-3.495216370E-3,5.792140650E-2
1.135587140E-1,7.618010044E-1,-3.540182114E-2,3.403663635E-3,7.626307391E-1
1.235493390E-1,4.513508081E-1,-4.621934891E-2,4.517555237E-3,4.537336097E-1
1.335472560E-1,3.930806518E-1,-5.925655365E-2,1.722192764E-2,3.978948765E-1
1.436164230E-1,3.609005213E-1,-6.968879700E-2,3.084325790E-2,3.688590805E-1
1.535503810E-1,3.436290026E-1,-7.801055908E-2,3.707456589E-2,3.543177418E-1
1.637048080E-1,3.356753588E-1,-7.599973679E-2,5.052661896E-2,3.478603825E-1
1.735434020E-1,1.561558843E-1,-7.007503510E-2,7.843303680E-2,1.882735032E-1
1.835498600E-1,1.113202095E0,-6.971502304E-2,9.145593643E-2,1.119126122E0
1.935488190E-1,1.094430447E0,-6.479310989E-2,9.266424179E-2,1.100255794E0
2.035511620E-1,1.684460402E0,-7.413387299E-2,9.784126282E-2,1.688927348E0
2.135506410E-1,1.623885632E0,-9.953308105E-2,1.107373238E-1,1.630697438E0
2.235480370E-1,1.595960379E0,-1.334662437E-1,6.613731384E-2,1.602896414E0
2.335485580E-1,2.167633772E0,-1.652441025E-1,-2.090787888E-2,2.174023671E0
2.435485580E-1,2.084609985E0,-2.044644356E-1,-6.513876915E-1,2.193561128E0
2.535514230E-1,2.017297029E0,-2.359614372E-1,-7.129011154E-1,2.152531790E0
2.635482980E-1,1.930623412E0,-2.564353943E-1,-1.266848087E0,2.323353169E0
2.735501210E-1,1.823417783E0,-2.770624161E-1,-1.255503654E0,2.231122009E0
2.835590270E-1,1.685392857E0,-2.884902954E-1,-1.269242764E0,2.129495932E0
2.935472560E-1,1.536001921E0,-2.922563553E-1,-1.308626652E0,2.038926039E0
3.035467350E-1,1.386822104E0,-2.943224907E-1,-1.289858341E0,1.916673112E0
3.135469960E-1,1.233477116E0,-3.043704033E-1,-1.227242947E0,1.766417954E0
3.236590270E-1,5.674601793E-1,-3.117156029E-1,-1.142169952E0,1.312908935E0
3.335467350E-1,4.834933281E-1,-3.215107918E-1,-1.057316780E0,1.206256093E0
3.437375690E-1,3.876154423E-1,-3.286566734E-1,-1.005911350E0,1.126995379E0
3.535441830E-1,2.677434683E-1,-3.383069038E-1,-1.001762390E0,1.090718118E0
3.635480890E-1,-1.273998380E0,-3.500761986E-1,-1.004455566E0,1.659685573E0
3.735480370E-1,-1.384550214E0,-3.636384010E-1,-1.003523827E0,1.748219738E0
3.835529850E-1,-1.299731851E0,-3.644886017E-1,-1.009084225E0,1.685350348E0
3.935459020E-1,-1.181615353E0,-4.076938629E-1,-1.112386465E0,1.673270084E0
4.035480370E-1,-1.107020855E0,-4.094085693E-1,-1.067504883E0,1.591438728E0
4.135503810E-1,-1.229755640E0,-3.620719910E-1,-9.691824913E-1,1.607081131E0
4.235485580E-1,-1.155762553E0,-3.255829811E-1,-8.399896622E-1,1.465392094E0
4.335480370E-1,-1.084769130E0,-2.936444283E-1,-7.420787811E-1,1.346711562E0
4.435522040E-1,-2.184593916E0,-2.322463989E-1,-6.614899635E-1,2.294331698E0
4.535506410E-1,-2.186581135E0,-1.649909019E-1,-5.910778046E-1,2.271064074E0
4.635482980E-1,-2.206493855E0,-1.024422646E-1,1.546812057E-2,2.208924809E0
4.735464750E-1,-2.251339674E0,-9.865760803E-4,4.495048523E-2,2.251788588E0
4.835456940E-1,-2.871913910E0,6.169319153E-2,2.692937851E-2,2.872702690E0
4.935509020E-1,-2.787506580E0,6.718921661E-2,-2.897262573E-3,2.788317722E0
5.036716310E-1,-2.598435640E0,7.172441483E-2,-4.422187805E-3,2.599429115E0
5.135485060E-1,-1.637294769E0,6.584405899E-2,7.099485397E-2,1.640155441E0
5.235602250E-1,-6.350342631E-1,7.894039154E-3,1.833224297E-1,6.610128171E-1
5.335448080E-1,-5.820987225E-1,-5.612611771E-2,8.378167152E-1,1.021726926E0
5.435521000E-1,-5.305646658E-1,-1.348338127E-1,8.518104553E-1,1.012551270E0
5.535514230E-1,-4.803445935E-1,-2.163815498E-1,8.859376907E-1,1.030746087E0
5.635488190E-1,4.348606467E-1,-3.002271652E-1,9.421010017E-1,1.080182591E0
5.735477770E-1,1.090797186E0,-3.762917519E-1,1.017096043E0,1.538154200E0
5.835498600E-1,1.098806143E0,-4.359426498E-1,1.663142681E0,2.040456937E0
5.935524640E-1,9.909640551E-1,-4.451127052E-1,1.725348949E0,2.038863428E0
6.035501210E-1,-6.995002627E-1,-4.019236565E-1,1.762442589E0,1.938310378E0
6.135501210E-1,-6.475093961E-1,-3.062267303E-1,1.781199455E0,1.919821535E0
6.235516830E-1,-5.966609716E-1,-2.089371681E-1,1.755311489E0,1.865684185E0
6.335480370E-1,-5.468949676E-1,-1.249027252E-1,1.647759914E0,1.740634233E0
6.435519440E-1,-2.410281897E0,4.998574257E-1,1.489489555E0,2.877133192E0
6.535456940E-1,-2.400700331E0,5.321292877E-1,6.051716805E-1,2.532342082E0
6.635527250E-1,-2.325344086E0,5.685701370E-1,5.212678909E-1,2.449942312E0
6.735472560E-1,-2.150127411E0,5.892553329E-1,4.384627342E-1,2.272117801E0
6.836776730E-1,-3.817123473E-1,5.770525932E-1,3.905301094E-1,7.944858575E-1
6.935491310E-1,-3.362883329E-1,5.317349434E-1,3.775372505E-1,7.337344672E-1
7.035590790E-1,-4.885338545E-1,4.966096878E-1,3.850092888E-1,7.959388553E-1
7.135522560E-1,-4.416333139E-1,4.751596451E-1,4.439239502E-1,7.860567065E-1
7.235475690E-1,8.255448937E-1,4.365472794E-1,5.084390640E-1,1.063300607E0
7.335509020E-1,8.199347258E-1,3.832082748E-1,5.728659630E-1,1.071128819E0
7.435511620E-1,7.702464461E-1,3.124246597E-1,6.129679680E-1,1.032772233E0
7.535516830E-1,6.729664803E-1,2.508797646E-1,6.127104759E-1,9.440543772E-1
7.635496000E-1,-4.811764657E-1,2.602615356E-1,5.002822876E-1,7.413158742E-1
7.735498600E-1,-3.956045806E-1,4.291076660E-1,-1.546833515E0,1.653278651E0
7.835501210E-1,-3.507332802E-1,5.146327019E-1,-2.339419365E0,2.420897275E0
7.935519440E-1,-5.038314462E-1,5.925102234E-1,-2.467622280E0,2.587290901E0
8.035472560E-1,-4.576470256E-1,6.540112495E-1,-3.408209562E0,3.500437678E0
8.135485580E-1,-4.121516645E-1,6.916189194E-1,-3.459009171E0,3.551471549E0
8.235488190E-1,6.369211674E-1,7.037115097E-1,-3.507474661E0,3.633628622E0
8.335498600E-1,7.209516764E-1,6.356439590E-1,-3.481275797E0,3.611522634E0
8.435537660E-1,8.264174461E-1,4.887356758E-1,-3.322850704E0,3.458780877E0
8.535480370E-1,1.574577928E0,-3.998470306E-1,-2.292033911E0,2.809375864E0
8.636529850E-1,1.618756533E0,-4.739623070E-1,-1.524669647E0,2.273682149E0
8.735453290E-1,1.674074173E0,-5.664396286E-1,-1.365217209E0,2.233203129E0
8.837199120E-1,1.734131098E0,-1.168445587E0,-5.862092972E-1,2.171662288E0
8.935457460E-1,1.783694983E0,-1.183811665E0,-5.367341042E-1,2.207048107E0
9.035478290E-1,1.804758549E0,-1.190656185E0,-5.029263496E-1,2.219853708E0
9.135493390E-1,1.796325564E0,-1.190140247E0,-4.730186462E-1,2.206120119E0
9.235490790E-1,1.781813860E0,-1.183275223E0,-4.610748291E-1,2.188056417E0
9.335490790E-1,1.771785498E0,-1.170942307E0,-4.598417282E-1,2.172966670E0
9.435516830E-1,1.770522833E0,-1.144207954E0,-4.581809044E-1,2.157288271E0
9.535493390E-1,1.823512316E0,-1.052947998E0,-3.933973312E-1,2.142115336E0
9.635477770E-1,1.859481096E0,-9.715185165E-1,-3.365755081E-1,2.124806167E0
9.735511620E-1,1.917427540E0,-8.707094193E-1,-2.918267250E-1,2.125988264E0
9.835482980E-1,2.586164713E0,-2.347474098E-1,-2.769985199E-1,2.611528757E0
9.935501210E-1,2.652652979E0,-2.024111748E-1,-2.832403183E-1,2.675399631E0
1.003548298E0,3.287821770E0,-1.644582748E-1,-2.737393379E-1,3.303294074E0
1.013549600E0,3.345334530E0,-1.313953400E-1,-2.360525131E-1,3.356225356E0
1.023549600E0,3.425179958E0,-9.289360046E-2,-1.594309807E-1,3.430146528E0
1.033548819E0,4.106822491E0,-6.429195404E-2,4.587278366E-1,4.132862888E0
1.043651683E0,4.124538898E0,-3.944110870E-2,5.051527023E-1,4.155545208E0
1.053547360E0,4.183716774E0,-3.243923187E-2,5.885076523E-1,4.225030131E0
1.063716423E0,4.784077168E0,-2.633523941E-2,1.257144928E0,4.946564592E0
1.073546787E0,4.793562889E0,-1.130008698E-2,1.310832500E0,4.969572890E0
1.083568610E0,4.796416759E0,2.603578568E-2,1.355889797E0,4.984448689E0
1.093547516E0,4.793568611E0,7.294225693E-2,1.378857136E0,4.988473474E0
1.103549339E0,4.780967712E0,1.232376099E-1,1.363230228E0,4.973051018E0
1.113547516E0,4.779412746E0,1.861405373E-1,1.309317112E0,4.959006534E0
1.123561579E0,4.787479877E0,2.404699326E-1,1.295188427E0,4.965410600E0
1.133559235E0,4.872347355E0,3.764438629E-1,1.411379337E0,5.086597130E0
1.143559756E0,4.911673546E0,4.437332153E-1,2.128602505E0,5.371441595E0
1.153561579E0,5.551780224E0,4.870357513E-1,2.214527607E0,5.996965899E0
1.163556371E0,5.558053017E0,5.240855217E-1,2.301339149E0,6.038441922E0
1.173559756E0,5.586957932E0,5.410923958E-1,2.950304985E0,6.341228541E0
1.183555329E0,5.625786304E0,5.358390808E-1,2.948711872E0,6.374284020E0
1.193557673E0,5.653778076E0,5.258765221E-1,2.944347858E0,6.396165802E0
1.203558194E0,5.652932644E0,4.972496033E-1,2.918151855E0,6.381106087E0
1.213558714E0,5.631979465E0,4.621901512E-1,2.829282761E0,6.319624465E0
1.223670954E0,5.583913803E0,4.313139915E-1,2.686140537E0,6.211398885E0
1.233547308E0,5.522140503E0,4.186949730E-1,1.771604538E0,5.814458174E0
1.243558558E0,5.472896576E0,4.170684814E-1,1.686182976E0,5.741929647E0
1.253545225E0,5.444344521E0,4.298520088E-1,1.595827579E0,5.689668327E0
1.263555850E0,5.419217110E0,4.648652077E-1,1.506149769E0,5.643801987E0
1.273551423E0,5.421457291E0,5.142788887E-1,1.407417774E0,5.624722813E0
1.283548350E0,5.442621708E0,5.761513710E-1,7.468833923E-1,5.523759251E0
1.293560798E0,5.489968300E0,6.487889290E-1,6.928110123E-1,5.571415090E0
1.303559756E0,6.087030411E0,7.307128906E-1,6.306242943E-1,6.163081011E0
1.313559496E0,6.106481552E0,8.538579941E-1,4.523286819E-1,6.182458383E0
1.323558454E0,6.084448338E0,9.073548317E-1,-3.884510994E-1,6.163983989E0
1.333559235E0,6.089037418E0,9.383831024E-1,-4.743189812E-1,6.179151886E0
1.343562100E0,6.082697868E0,9.596176147E-1,-5.874094963E-1,6.185881444E0
1.353548819E0,6.096126556E0,9.625973701E-1,-1.388889551E0,6.326007183E0
1.363546475E0,6.117011070E0,9.497265816E-1,-1.457801342E0,6.359637550E0
1.373547516E0,6.144392967E0,9.231061935E-1,-1.565069675E0,6.407427961E0
1.383548298E0,6.182303429E0,8.504819870E-1,-1.637396574E0,6.451764320E0
1.393549652E0,6.131962776E0,2.153353691E-1,-1.630622149E0,6.348721556E0
1.403646579E0,5.975816727E0,1.422457695E-1,-1.560021877E0,6.177725121E0
1.413558037E0,5.309041023E0,6.888961792E-2,-1.492488861E0,5.515268386E0
1.423713871E0,5.241597176E0,5.103111267E-3,-1.495876312E0,5.450872676E0
1.433545746E0,5.168846130E0,-3.083372116E-2,-1.531657934E0,5.391094236E0
1.443553506E0,5.101315022E0,-6.690263748E-2,-1.580951214E0,5.341095173E0
1.453549079E0,5.048144341E0,-1.176733971E-1,-1.656569481E0,5.314304353E0
1.463551162E0,5.007520199E0,-1.275892258E-1,-2.468832016E0,5.584502581E0
1.473550641E0,5.075300217E0,-8.737945557E-2,-3.200780153E0,6.000941680E0
1.483549339E0,6.876138210E0,-8.647251129E-2,-4.021106720E0,7.966056329E0
1.493554548E0,6.869407654E0,-2.309565544E-1,-4.910785675E0,8.447361623E0
1.503548819E0,6.743841171E0,-1.059794426E0,-5.036753178E0,8.483598325E0
1.513547777E0,6.718748093E0,-1.159562588E0,-4.963441372E0,8.433380792E0
1.523549600E0,6.694121361E0,-1.881013393E0,-4.890835762E0,8.501161487E0
1.533549339E0,6.669948578E0,-1.958706856E0,-4.818922520E0,8.458531837E0
1.543553246E0,6.646224022E0,-2.053961277E0,-4.747687817E0,8.422089425E0
1.553578246E0,6.523586273E0,-2.706975937E0,-4.875819683E0,8.582453855E0
1.563548558E0,4.946687698E0,-2.700771332E0,-4.804620743E0,7.405961481E0
1.573549339E0,4.859709740E0,-2.668939114E0,-5.836992264E0,8.050496471E0
1.583662985E0,4.765770435E0,-2.609986067E0,-5.847425938E0,7.982291977E0
1.593551787E0,4.675618172E0,-2.537256956E0,-5.871578693E0,7.923036949E0
1.603560746E0,4.598593712E0,-2.452613115E0,-5.883294106E0,7.859740756E0
1.613548662E0,4.528184891E0,-2.352804899E0,-5.884212494E0,7.788716581E0
1.623550902E0,4.473350048E0,-1.736968040E0,-5.885519981E0,7.593896502E0
1.633549079E0,4.436991692E0,-1.678719997E0,-5.872562408E0,7.549303633E0
1.643555329E0,4.416746616E0,-1.621958733E0,-5.856987000E0,7.512835518E0
1.653576423E0,4.415423393E0,-1.561660767E0,-5.839169979E0,7.485362659E0
1.663549860E0,4.411070824E0,-1.508087158E0,-5.858450890E0,7.486876486E0
1.673549339E0,4.449463367E0,-1.418151379E0,-6.002066135E0,7.604845527E0
1.683552204E0,4.468623638E0,-1.381224155E0,-6.619428635E0,8.105134967E0
1.693557412E0,4.511384487E0,-1.348124981E0,-6.611909866E0,8.117104350E0
1.703547516E0,4.545400620E0,-1.333014965E0,-6.634850502E0,8.152228951E0
1.713547516E0,4.586438179E0,-1.333568573E0,-6.655033588E0,8.191659928E0
1.723548037E0,4.653082848E0,-1.352630615E0,-6.663076878E0,8.238773152E0
1.733546996E0,6.088530540E0,-1.378031254E0,-6.645946503E0,9.117992059E0
1.743553506E0,5.973999023E0,-1.413812637E0,-6.621585369E0,9.029558312E0
1.753571214E0,5.959746838E0,-1.434217453E0,-6.595852852E0,9.004489820E0
1.763624131E0,5.945771217E0,-1.475382805E0,-6.603115559E0,9.007224038E0
1.773548141E0,5.932065964E0,-1.500442505E0,-6.609835625E0,9.007256036E0
1.783706527E0,5.918627739E0,-1.506599426E0,-6.601469040E0,8.993296928E0
1.793553298E0,5.806009769E0,-1.496310711E0,-6.594640255E0,8.912798398E0
1.803551944E0,5.793642521E0,-1.481481075E0,-6.603813171E0,8.909064386E0
1.813549860E0,5.781523228E0,-1.443200111E0,-6.602534294E0,8.893947183E0
1.823551683E0,5.769646168E0,-1.399177074E0,-6.597063065E0,8.875119969E0
1.833550641E0,5.758009434E0,-1.355069637E0,-6.583090782E0,8.850309068E0
1.843555069E0,5.647150993E0,-1.301162720E0,-6.527596474E0,8.728851842E0
1.853574339E0,5.656574726E0,-1.222073555E0,-6.427216530E0,8.648665430E0
1.863548558E0,5.646218300E0,-1.178942204E0,-6.378874779E0,8.599984259E0
1.873550641E0,5.636079311E0,-1.121129513E0,-6.303439140E0,8.529693217E0
1.883550902E0,5.526682377E0,-1.079857349E0,-6.228890419E0,8.396986712E0
1.893554287E0,5.517488956E0,-1.057890415E0,-6.155177116E0,8.333547975E0
1.903548558E0,5.508497238E0,-1.023462296E0,-6.077376842E0,8.265925609E0
1.913547777E0,5.499702454E0,-9.782118797E-1,-6.015605927E0,8.209210694E0
1.923547777E0,5.491103649E0,-9.430932999E-1,-5.972724915E0,8.167930409E0
1.933547777E0,3.817145348E0,-9.119372368E-1,-5.965853691E0,7.140983013E0
1.943614131E0,3.711721420E0,-8.891329765E-1,-5.956186295E0,7.074149315E0
1.953569027E0,3.583498478E0,-8.784961700E-1,-5.983156681E0,7.029322921E0
1.963567256E0,2.798282623E0,-8.540558815E-1,-6.022500038E0,6.695543577E0
1.973551996E0,2.745351315E0,-8.224959373E-1,-6.077490807E0,6.719326448E0
1.983549860E0,2.682961941E0,-7.994031906E-1,-6.121684074E0,6.731444581E0
1.993554808E0,2.617263794E0,-7.788157463E-1,-6.161350250E0,6.739351648E0
2.003553766E0,2.534085751E0,-7.506613731E-1,-6.201951981E0,6.741608967E0
2.013549079E0,2.425980568E0,-7.110548019E-1,-6.253126144E0,6.744817805E0
2.023549079E0,1.773131847E0,-6.517386436E-1,-6.914137363E0,7.167569692E0
2.033555069E0,1.581547737E0,-4.916887283E-1,-7.052758217E0,7.244615208E0
2.043557412E0,7.314372063E-1,1.521363258E-1,-7.806632042E0,7.842298750E0
2.053571214E0,6.377544403E-1,2.078609467E-1,-7.858606339E0,7.887181403E0
2.063550121E0,5.411586761E-1,3.002061844E-1,-7.889538288E0,7.913772227E0
2.073547516E0,5.348482132E-1,9.640884399E-1,-7.887502670E0,7.964184045E0
2.083547256E0,6.827788353E-1,9.806475639E-1,-7.710595131E0,7.802636340E0
2.093553506E0,2.056613922E0,9.854960442E-1,-6.632700920E0,7.013813854E0
2.103547777E0,3.337235928E0,9.715328217E-1,-5.422214031E0,6.440607476E0
2.113548037E0,5.346968174E0,9.421052933E-1,-4.207745552E0,6.868970350E0
2.123563089E0,5.275784969E0,8.784632683E-1,-2.569170475E0,5.933484784E0
2.133562256E0,6.509634018E0,7.736024857E-1,-2.446575642E0,6.997108562E0
2.143580954E0,6.644613743E0,6.291422844E-1,-2.325328350E0,7.067804733E0
2.153571266E0,6.682954788E0,4.571528435E-1,-2.208820105E0,7.053350954E0
2.163549860E0,6.562924862E0,-3.027415276E-1,-2.134877920E0,6.908063326E0
2.173550641E0,5.372480392E0,-3.877654076E-1,-2.304157734E0,5.858587751E0
2.183551683E0,4.176650047E0,-4.793648720E-1,-3.639103174E0,5.560329865E0
2.193554287E0,3.066854954E0,-5.697560310E-1,-4.687285423E0,5.630352199E0
2.203549860E0,1.972675323E0,-6.828508377E-1,-5.694327354E0,6.064907025E0
2.213547777E0,1.195446014E0,-7.014470100E-1,-6.330783844E0,6.480736313E0
2.223548298E0,1.125823975E0,-6.658649445E-1,-6.243418694E0,6.378960160E0
2.233548037E0,1.058549881E0,-5.943813324E-1,-5.230729103E0,5.369762003E0
2.243554808E0,1.002447605E0,-5.081915855E-1,-4.329299927E0,4.472806473E0
2.253569652E0,9.334321022E-1,1.315445900E-1,-3.558556080E0,3.681293365E0
2.263548558E0,3.148865700E-1,2.055478096E-1,-3.394744396E0,3.415507718E0
2.273549600E0,2.437343597E-1,9.238762856E-1,-2.170095921E0,2.371132669E0
2.283547048E0,-5.153727531E-1,1.018555641E0,-2.101987123E0,2.391947854E0
2.293571475E0,-6.109669209E-1,1.957404613E0,-2.033578396E0,2.887932564E0
2.303547048E0,-1.267514706E0,2.061654568E0,-1.966976047E0,3.118654815E0
2.313537673E0,-1.255511522E0,3.330265999E0,-5.692055225E-1,3.604299617E0
2.323534652E0,-1.297302485E0,3.303030014E0,-5.856300592E-1,3.596660058E0
2.333548089E0,-1.297283649E0,3.277301788E0,-6.808533669E-1,3.589876486E0
2.343559235E0,-1.239046335E0,3.251726627E0,-7.415485382E-1,3.557928627E0
2.353598819E0,-1.077430725E0,3.216226101E0,-8.193432093E-1,3.489454197E0
2.363559496E0,-8.492536545E-1,3.081596375E0,-9.721779823E-1,3.341047443E0
2.373562100E0,5.069231987E-2,3.043745995E0,-2.415599585E0,3.886139568E0
2.383561579E0,-5.292010307E-1,3.031095982E0,-5.636921406E0,6.422030794E0
2.393542933E0,-1.128043652E0,2.994976521E0,-7.153096199E0,7.836399178E0
2.403558454E0,-1.744406343E0,4.062682152E0,-7.323985100E0,8.555062682E0
2.413559496E0,-1.699675679E0,4.176128387E0,-8.033126831E0,9.211952692E0
2.423557933E0,-1.620651603E0,5.110667229E0,-8.065991402E0,9.685331612E0
2.433559235E0,-1.516565204E0,5.174479485E0,-7.999878883E0,9.647448891E0
2.443561058E0,-1.406348944E0,5.875140190E0,-7.128143311E0,9.343742112E0
2.453598558E0,-1.249170065E0,5.827245712E0,-6.055680275E0,8.496380526E0
2.463557152E0,-9.422788620E-1,5.613905907E0,-4.343533039E0,7.160314815E0
2.473599079E0,2.807886600E-1,4.561350822E0,-3.455079079E0,5.729078027E0
2.483546527E0,5.794031620E-1,4.341451168E0,-3.359112740E0,5.519741359E0
2.493549391E0,7.904133797E-1,4.177204132E0,-3.305713177E0,5.385306610E0
2.503547412E0,9.149138927E-1,4.080935478E0,-3.308662415E0,5.332761834E0
2.513546214E0,9.725921154E-1,4.017813206E0,-3.381594181E0,5.340780616E0
2.523561319E0,4.566373825E-1,4.013187408E0,-4.332701683E0,5.923385413E0
2.533555329E0,5.157184601E-1,4.038043022E0,-4.429897308E0,6.016290148E0
2.543557412E0,5.930755138E-1,4.048591137E0,-4.512355804E0,6.091320355E0
2.553592048E0,7.023386955E-1,4.017735958E0,-4.552658081E0,6.112460836E0
2.563558714E0,8.827615976E-1,3.871060848E0,-4.521069050E0,6.017013003E0
2.573558714E0,1.026844501E0,3.738636494E0,-4.458571434E0,5.908525340E0
2.583556110E0,1.163716912E0,2.967752934E0,-4.412141323E0,5.443233008E0
2.593549860E0,1.299710989E0,1.899667263E0,-4.371133327E0,4.940120538E0
2.603550641E0,1.425119162E0,1.907308578E0,-4.326648235E0,4.938489201E0
2.613548819E0,1.560383916E0,1.916181087E0,-4.280700684E0,4.942767066E0
2.623549600E0,1.689844489E0,1.926036835E0,-4.218614101E0,4.935777266E0
2.633548558E0,1.798631072E0,1.936874866E0,-4.196724415E0,4.959743320E0
2.643546735E0,1.892574549E0,1.848799706E0,-4.175180435E0,4.942876737E0
2.653615902E0,1.982029796E0,1.860048771E0,-4.153853416E0,4.964143607E0
2.663566735E0,2.045238256E0,1.870363712E0,-4.131952763E0,4.975368687E0
2.673554339E0,2.097566843E0,1.881264687E0,-4.105749130E0,4.979570203E0
2.683557412E0,2.135572910E0,1.892709732E0,-4.085844517E0,4.983688112E0
2.693546006E0,2.166051149E0,1.804728985E0,-4.065484524E0,4.947422430E0
2.703550381E0,2.204336405E0,1.817027569E0,-4.045261383E0,4.952254823E0
2.713549860E0,2.254452229E0,1.829520226E0,-3.985873699E0,4.931215697E0
2.723549339E0,2.314558983E0,1.842207909E0,-4.005015850E0,4.979062685E0
2.733548037E0,2.373897314E0,1.855054855E0,-4.028991699E0,5.030843974E0
2.743549600E0,2.517985821E0,1.788313389E0,-3.932983398E0,5.000667534E0
2.753548819E0,2.599033117E0,1.801721573E0,-3.785382748E0,4.932575019E0
2.763549079E0,2.651629448E0,1.815161705E0,-2.880052090E0,4.315165209E0
2.773546996E0,2.669597626E0,1.828548431E0,-2.798693180E0,4.278203404E0
2.783549339E0,2.671054125E0,1.742316246E0,-2.706364632E0,4.182655324E0
2.793547516E0,2.662720919E0,1.756016731E0,-1.617514968E0,3.576315439E0
2.803549339E0,2.625160933E0,1.769763947E0,-1.565179586E0,3.531758979E0
2.813547516E0,2.569362879E0,1.784114838E0,-1.516141176E0,3.476114990E0
2.823547777E0,2.495966911E0,1.803776741E0,-1.495092988E0,3.423268087E0
2.833686839E0,2.413404465E0,1.723997116E0,-1.674462438E0,3.405952381E0
2.843552204E0,2.351360321E0,1.744474411E0,-1.655410409E0,3.363401545E0
2.853558662E0,2.296406507E0,1.771389961E0,-1.668088555E0,3.345717363E0
2.863549287E0,2.248523951E0,1.798454285E0,-1.680177927E0,3.333660996E0
2.873549600E0,2.202307224E0,1.825690269E0,-1.691693306E0,3.323421176E0
2.883549860E0,2.183703899E0,1.753226280E0,-1.900562644E0,3.384450247E0
2.893548819E0,2.154527187E0,1.780797958E0,-1.908138037E0,3.384408299E0
2.903547256E0,2.131668091E0,1.808401108E0,-1.914255977E0,3.388022928E0
2.913548298E0,2.159670353E0,1.836113453E0,-1.918975353E0,3.423149873E0
2.923547777E0,2.248589039E0,1.784321785E0,-2.082720280E0,3.546502596E0
2.933548037E0,2.309853315E0,1.812453747E0,-2.085214138E0,3.601184378E0
2.943550641E0,2.383063793E0,8.014583588E-1,-2.084937334E0,3.266235177E0
2.953549079E0,2.466228008E0,6.807093620E-1,-2.083666325E0,3.299592577E0
2.963548819E0,3.108933449E0,-1.421933174E-1,-2.080950022E0,3.743800091E0
2.973548037E0,3.201497078E0,-1.734795570E-1,-2.277573586E0,3.932813260E0
2.983548298E0,3.307024956E0,-1.655035019E-1,-2.270987511E0,4.015120140E0
2.993549079E0,3.937198877E0,-8.385801315E-2,-2.263476610E0,4.542234421E0
3.003549079E0,3.988334656E0,4.221200943E-2,-8.056724072E-1,4.069115777E0
3.013661944E0,4.024769783E0,1.963353634E0,-7.769044638E-1,4.545009334E0
3.023548610E0,4.012723923E0,1.885414600E0,-7.452195883E-1,4.495786219E0
3.033735433E0,3.962399483E0,1.907128811E0,-7.446285486E-1,4.460069690E0
3.043547048E0,3.860087633E0,1.928236961E0,-7.698767185E-1,4.383045115E0
3.053544131E0,3.705165148E0,1.948049545E0,-7.786115408E-1,4.257861169E0
3.063547777E0,2.939761639E0,1.982293606E0,-8.291301727E-1,3.641310653E0
3.073547516E0,2.843804836E0,1.918504715E0,-8.878945112E-1,3.543478933E0
3.083552464E0,2.748224735E0,1.955316544E0,-9.229276180E-1,3.496826757E0
3.093548819E0,2.663482904E0,3.720922947E0,-9.777531624E-1,4.679253146E0
3.103548037E0,2.599734783E0,3.913405895E0,-1.044260025E0,4.812883298E0
3.113548037E0,2.592909336E0,3.959863663E0,-1.101355076E0,4.859699791E0
3.123547777E0,2.602765560E0,3.943313599E0,-1.180076599E0,4.869978591E0
3.133548037E0,2.580597639E0,3.870795727E0,-1.242644668E0,4.815257989E0
3.143550641E0,2.572276831E0,3.082900047E0,-1.311203480E0,4.223758440E0
3.153548298E0,2.548724174E0,2.088748932E0,-1.373897791E0,3.570218783E0
3.163548819E0,2.539729118E0,2.022409439E0,-1.436493874E0,3.550194161E0
3.173551944E0,2.543506861E0,3.315105438E-1,-1.459195375E0,2.951029911E0
3.183548558E0,2.549165487E0,1.826786995E-1,-1.461023688E0,2.943842116E0
3.193573298E0,2.560734034E0,-7.273836136E-1,-1.469607234E0,3.040755027E0
3.203546266E0,2.572398663E0,-7.672123909E-1,-1.474177122E0,3.062523130E0
3.213682464E0,2.609014988E0,-7.904133797E-1,-1.495592833E0,3.109422847E0
3.223547569E0,2.636020184E0,-7.843232155E-1,-1.512740016E0,3.138813099E0
3.233548558E0,2.669008732E0,-7.380032539E-1,-1.520583153E0,3.159181783E0
3.243548558E0,2.652359247E0,-6.368560791E-1,-1.541960239E0,3.133406552E0
3.253549079E0,2.631015778E0,-5.122513771E-1,-1.544589400E0,3.093606619E0
3.263551162E0,2.609713316E0,2.253651619E-1,-1.546934962E0,3.042104670E0
3.273550121E0,2.613788605E0,2.886729240E-1,-1.523547649E0,3.039147967E0
3.283546787E0,2.713262558E0,4.198861122E-1,-1.391990900E0,3.078268462E0
3.293548037E0,2.809282541E0,4.831299782E-1,-1.340499163E0,3.149987457E0
3.303548819E0,3.628560305E0,5.257897377E-1,-1.299772024E0,3.890027255E0
3.313548037E0,3.719409943E0,5.558738708E-1,-7.245302200E-1,3.829875993E0
3.323548298E0,4.405101776E0,5.853381157E-1,-7.745280266E-1,4.510813234E0
3.333549079E0,4.482035160E0,6.093516350E-1,-8.441383839E-1,4.601360473E0
3.343547777E0,4.569172382E0,6.434192657E-1,-9.065899849E-1,4.702470629E0
3.353547516E0,5.238934517E0,6.861071587E-1,-9.624333382E-1,5.370610378E0
3.363546475E0,5.195484161E0,7.107281685E-1,-9.775454998E-1,5.334208976E0
3.373558975E0,5.115077496E0,7.432484627E-1,-9.822018147E-1,5.261288480E0
3.383552621E0,4.974497795E0,8.035683632E-1,-9.712657928E-1,5.131735347E0
3.393559235E0,4.798149586E0,8.742895126E-1,-9.421250820E-1,4.967315298E0
3.403547048E0,4.047260284E0,9.343671799E-1,-3.906342983E-1,4.172044222E0
3.413549339E0,3.927829266E0,9.903159142E-1,-3.815252781E-1,4.068676675E0
3.423548037E0,3.798278570E0,1.047211170E0,-3.634152412E-1,3.956721113E0
3.433548819E0,3.660981417E0,1.084866047E0,-3.268508911E-1,3.832303586E0
3.443549339E0,3.558315754E0,1.131920815E0,-3.018076420E-1,3.746190543E0
3.453548298E0,3.492183208E0,1.177487373E0,-2.156748772E-1,3.691657585E0
3.463548558E0,3.466637373E0,1.210546017E0,3.473458290E-1,3.688312007E0
3.473553246E0,3.454828978E0,1.267430782E0,3.315939903E-1,3.694885469E0
3.483548558E0,3.434716225E0,1.360638618E0,3.159284592E-1,3.707886701E0
3.493548819E0,3.418936968E0,1.523845673E0,2.769951820E-1,3.753393392E0
3.503544912E0,3.409371853E0,2.811600685E0,2.032256126E-1,4.423823628E0
3.513547516E0,3.364997387E0,2.861445427E0,5.852365494E-2,4.417522197E0
3.523548298E0,3.267934799E0,5.053982735E0,-7.609386444E-1,6.066396538E0
3.533545954E0,2.487431526E0,6.272125721E0,-9.911496639E-1,6.819769374E0
3.543575121E0,1.802524567E0,7.264053822E0,-2.326329708E0,7.837562290E0
3.553547048E0,1.046719432E0,7.431580067E0,-3.297805309E0,8.197531562E0
3.563538766E0,-5.549387932E-1,7.512452602E0,-4.878499508E0,8.974667605E0
3.573543246E0,-5.058103204E-1,7.441178799E0,-4.869774818E0,8.907395398E0
3.583559027E0,-4.365910888E-1,6.328823090E0,-4.841557026E0,7.980306254E0
3.593560277E0,-5.702428222E-1,4.816603661E0,-6.580073357E0,8.174485493E0
3.603561579E0,-2.151987553E0,2.951343536E0,-6.711276531E0,7.640858052E0
3.613558454E0,-2.132588863E0,1.501597404E0,-7.619148254E0,8.053207445E0
3.623559756E0,-2.060513020E0,7.103204727E-2,-7.667856216E0,7.940200149E0
3.633562881E0,-1.794200420E0,-1.009664536E0,-8.456930161E0,8.703921264E0
3.643556631E0,-1.491683722E-1,-1.073697090E0,-9.089729309E0,9.154138712E0
3.653557673E0,-2.402946725E-2,-1.041644096E0,-8.984745026E0,9.044956772E0
3.663559496E0,8.347319067E-2,3.361749649E-2,-8.823056221E0,8.823515115E0
3.673559235E0,1.709797025E0,1.098135948E0,-8.558059692E0,8.796004441E0
3.683557933E0,2.531482697E0,2.453989029E0,-7.327927113E0,8.131972858E0
3.693557933E0,3.291949272E0,2.396503448E0,-6.344517708E0,7.538770704E0
3.703558454E0,3.487872124E0,4.135983467E0,-5.368691921E0,7.621972457E0
3.713557933E0,4.390057087E0,4.175971031E0,-3.498038530E0,6.996256773E0
3.723598037E0,4.442219257E0,4.182742596E0,-3.326339960E0,6.949329830E0
3.733541319E0,4.400478840E0,4.103921413E0,-3.356648207E0,6.890099576E0
3.743540277E0,4.271580219E0,3.902029514E0,-3.187382698E0,6.605425071E0
3.753544027E0,3.467427731E0,2.033680916E0,-3.052663326E0,5.047540641E0
3.763545850E0,3.240575552E0,2.026572704E0,-2.950564861E0,4.828473862E0
3.773558194E0,2.012986183E0,5.377774239E-1,-4.038300037E0,4.544137445E0
3.783556631E0,1.793408275E0,3.810958862E-1,-5.127190590E0,5.445147441E0
3.793558975E0,-1.655174792E-1,-3.098855019E-1,-5.185147285E0,5.197035446E0
3.803557933E0,-1.797305197E-1,-3.095073700E-1,-5.213167191E0,5.225438740E0
3.813558714E0,-1.531049460E-1,5.055270195E-1,-5.182265282E0,5.209114334E0
3.823548037E0,7.866733074E-1,6.321797371E-1,-5.077053070E0,5.176386190E0
3.833548037E0,1.647343636E0,1.914965630E0,-4.943495750E0,5.551484905E0
3.843551162E0,1.756166339E0,1.911164284E0,-4.253092766E0,4.982516152E0
3.853546735E0,2.567833900E0,1.908648491E0,-4.146865845E0,5.237671843E0
3.863547516E0,2.609111071E0,1.907835007E0,-4.078197479E0,5.203747656E0
3.873548558E0,2.640928030E0,1.808453083E0,-4.031767845E0,5.147830161E0
3.883546996E0,2.656183958E0,1.809834480E0,-4.008979797E0,5.138358987E0
3.893548558E0,2.657544851E0,1.812943935E0,-4.006615162E0,5.138314452E0
3.903568350E0,2.617916346E0,5.037980080E-1,-4.035337448E0,4.836449808E0
3.913545121E0,2.535573483E0,4.739351273E-1,-4.061148643E0,4.811099219E0
3.923537152E0,2.426365614E0,4.628248215E-1,-4.075668812E0,4.765766798E0
3.933540016E0,2.297635078E0,4.773969650E-1,-4.074706078E0,4.702155297E0
3.943547048E0,2.153958321E0,5.003871918E-1,-4.076485634E0,4.637635056E0
3.953551423E0,1.438432455E0,5.354585648E-1,-4.090083599E0,4.368591037E0
3.963549600E0,1.322917581E0,5.911045074E-1,-4.099792957E0,4.348312058E0
3.973546996E0,1.172713757E0,6.889085770E-1,-4.106257915E0,4.325645229E0
3.983560798E0,1.018019199E0,1.766278267E0,-4.115607262E0,4.592855880E0
3.993548037E0,2.520381212E-1,1.801574707E0,-4.187720299E0,4.565763456E0
4.003548558E0,1.661649942E-1,1.817344666E0,-4.215912819E0,4.593938761E0
4.013552464E0,1.322458982E-1,1.730245590E0,-4.254324913E0,4.594618509E0
4.023546996E0,1.658684015E-1,1.742744446E0,-4.297316551E0,4.640215520E0
4.033552985E0,2.815359831E-1,3.237055779E0,-4.324095726E0,5.408844282E0
4.043551423E0,1.290791392E0,3.244162560E0,-4.349686146E0,5.577678970E0
4.053550121E0,1.434299707E0,3.263352394E0,-4.376527786E0,5.644526549E0
4.063548558E0,2.586390495E0,3.304041862E0,-4.396162033E0,6.077199112E0
4.073546996E0,3.239838600E0,3.343202591E0,-4.413033485E0,6.414703599E0
4.083580069E0,3.943512917E0,3.395457268E0,-4.407135963E0,6.819330728E0
4.093546006E0,4.064269066E0,3.449174881E0,-4.353340626E0,6.882344441E0
4.103545746E0,4.768387794E0,3.521863937E0,-4.258423805E0,7.298987673E0
4.113533662E0,4.753395081E0,3.608887672E0,-4.189785957E0,7.291991593E0
4.123546527E0,4.648686409E0,4.286881447E0,-4.116967678E0,7.545665029E0
4.133549860E0,4.440575123E0,4.305198669E0,-4.037169456E0,7.385944775E0
4.143553506E0,3.278350830E0,4.333648682E0,-3.940804958E0,6.712528494E0
4.153549600E0,2.315765858E0,4.388295174E0,-3.844494581E0,6.276945485E0
4.163549339E0,1.288701177E0,4.446032524E0,-3.748952389E0,5.956727284E0
4.173545954E0,-1.841922879E0,4.590260506E0,-3.607416153E0,6.121815311E0
4.183548037E0,-1.863053322E0,4.642578125E0,-3.533492088E0,6.124546160E0
4.193551423E0,-1.880438924E0,4.669021606E0,-3.513563156E0,6.138480216E0
4.203548298E0,-3.066556931E0,4.672826767E0,-3.526415825E0,6.608682923E0
4.213548819E0,-3.867982149E0,4.650443077E0,-3.561955690E0,7.019646363E0
4.223548298E0,-3.871687412E0,4.613643646E0,-3.558263779E0,6.995492279E0
4.233549860E0,-3.801182270E0,4.592646599E0,-3.495420933E0,6.910814491E0
4.243549079E0,-3.593699217E0,4.598288536E0,-3.378333569E0,6.743298097E0
4.253546735E0,-1.897431374E0,4.630174637E0,-2.710922003E0,5.691033394E0
4.263582933E0,-1.778659105E0,4.695314407E0,-2.629424572E0,5.667757861E0
4.273546787E0,-1.662558436E0,5.346673965E0,-1.358398676E0,5.761620433E0
4.283562412E0,-1.550498366E0,5.370303154E0,-1.315241337E0,5.742304496E0
4.293543506E0,5.389618874E-2,5.359362602E0,-1.272404432E0,5.508601033E0
4.303535225E0,2.243340015E-1,5.309538841E0,-1.431923985E0,5.503810930E0
4.313548298E0,1.028577685E0,5.199396133E0,-1.411032557E0,5.484770286E0
4.323550381E0,1.158302784E0,4.426763535E0,-1.391479373E0,4.782689157E0
4.333548037E0,1.860983253E0,4.277069092E0,-1.405189872E0,4.871461511E0
4.343549600E0,1.942093492E0,3.194830894E0,-2.938899517E0,4.755607421E0
4.353552985E0,2.818617582E0,1.404665947E0,-3.189947605E0,4.482572612E0
4.363549600E0,2.849281311E0,1.435768127E0,-3.822115898E0,4.978795441E0
4.373551944E0,2.876068115E0,2.219486237E-1,-3.854779243E0,4.814597804E0
4.383548298E0,2.878151894E0,-6.062726974E-1,-3.890684605E0,4.877371382E0
4.393550381E0,2.848267078E0,-1.479641914E0,-3.933376312E0,5.076752383E0
4.403549860E0,2.773580790E0,-2.304151058E0,-3.916169167E0,5.323367678E0
4.413548037E0,2.637385845E0,-2.448883057E0,-3.851266861E0,5.271156302E0
4.423546214E0,2.436915159E0,-3.365290642E0,-3.732591629E0,5.585335878E0
4.433549339E0,1.356990218E0,-3.423000336E0,-2.922307491E0,4.700875963E0
4.443569287E0,1.133061528E0,-3.487262249E0,-2.772668839E0,4.597011954E0
4.453551527E0,-7.555460930E-2,-3.541826248E0,-1.577796221E0,3.878102962E0
4.463561631E0,-8.309855461E-1,-3.587618351E0,-1.501547098E0,3.976956889E0
4.473535798E0,-2.007165670E0,-3.622380257E0,-1.422470212E0,4.378786848E0
4.483546266E0,-2.008459330E0,-3.655758381E0,-1.342816114E0,4.381966834E0
4.493549339E0,-2.210499525E0,-3.713255405E0,-1.482362390E0,4.568585351E0
4.503551162E0,-2.184885502E0,-4.433335781E0,-1.424000144E0,5.143536450E0
4.513549600E0,-2.151106596E0,-4.513181686E0,-1.400175095E0,5.191970610E0
4.523548819E0,-2.081716537E0,-5.226717472E0,-1.375515461E0,5.791732216E0
4.533549079E0,-2.117752790E0,-5.405722618E0,-1.507652164E0,5.998310508E0
4.543550381E0,-1.994952083E0,-5.450317383E0,3.942720890E-1,5.817322740E0
4.553549860E0,-1.873733401E0,-5.410046577E0,5.298035145E-1,5.749797613E0
4.563546214E0,-1.944959164E-2,-4.497253895E0,1.589351296E0,4.769875095E0
4.573549079E0,1.364822865E0,-2.771255493E0,1.737170815E0,3.544059946E0
4.583550641E0,3.022861004E0,-5.803270340E-1,2.896455765E0,4.226573566E0
4.593546735E0,4.736581802E0,1.643060684E0,3.567525864E0,6.153218375E0
4.603548819E0,6.435778618E0,3.788968086E0,3.614182949E0,8.296857475E0
4.613550902E0,8.252943039E0,5.359235764E0,4.235121250E0,1.071301679E1
4.623579808E0,8.237232208E0,6.321934700E0,4.098321915E0,1.116311316E1
4.633547308E0,8.087322235E0,6.431631088E0,3.937604189E0,1.105782014E1
4.643560329E0,7.999925137E0,6.390914917E0,3.720900774E0,1.089438838E1
4.653533558E0,7.879485130E0,4.963816166E0,3.474518538E0,9.939720113E0
4.663544704E0,6.631599426E0,3.260313511E0,3.207532883E0,8.055806746E0
4.673548558E0,5.293833733E0,2.096604824E0,2.889361382E0,6.385047891E0
4.683549860E0,3.995567560E0,1.923384666E-1,1.923852205E0,4.438779283E0
4.693548298E0,3.038550854E0,-6.148576736E-1,1.009843349E0,3.260463900E0
4.703550902E0,2.793178082E0,-5.562210083E-1,-4.599452019E-1,2.884922043E0
4.713548037E0,1.697461843E0,1.384974480E0,-3.552547216E0,4.173742055E0
4.723550902E0,3.930575848E-1,3.810081959E0,-5.159018993E0,6.425472416E0
4.733551944E0,-1.043161273E0,6.582895279E0,-5.415011406E0,8.587493477E0
4.743552725E0,-2.869911432E0,8.874897957E0,-6.447215080E0,1.133872954E1
4.753545954E0,-3.913161755E0,1.009277534E1,-7.169727325E0,1.298391077E1
4.763551423E0,-4.816307068E0,1.015087318E1,-7.283952713E0,1.339003388E1
4.773552204E0,-4.947756767E0,9.993501663E0,-7.253258705E0,1.330263637E1
4.783547516E0,-5.768465042E0,8.336284637E0,-7.124091148E0,1.239037954E1
4.793547777E0,-5.727329254E0,6.068578243E0,-6.894863129E0,1.082446672E1
4.803549756E0,-5.563345909E0,2.428870678E0,-6.755753040E0,9.082424215E0
4.813568037E0,-4.441521645E0,-2.233366966E-1,-6.797975540E0,8.123390009E0
4.823552777E0,-2.354132891E0,-2.813758373E0,-7.958195686E0,8.763107693E0
4.833551266E0,-2.142448902E0,-4.070440292E0,-7.870210648E0,9.115853614E0
4.843546527E0,-1.938146949E0,-4.123214722E0,-7.691002846E0,8.939174347E0
4.853561319E0,-7.705587149E-1,-2.865499020E0,-7.421940804E0,7.993125212E0
4.863563141E0,-5.633416176E-1,-9.823956490E-1,-6.370639801E0,6.470510526E0
4.873558454E0,-3.514891863E-1,1.750498772E0,-6.082902908E0,6.339518782E0
4.883560016E0,5.125666857E-1,1.717673302E0,-4.773891926E0,5.099330377E0
4.893562881E0,7.303245068E-1,4.038758278E0,-3.823532581E0,5.609308666E0
4.903561579E0,7.673680782E-1,4.030796051E0,-2.147853851E0,4.631354741E0
4.913559756E0,7.212377787E-1,3.851056099E0,-2.206098795E0,4.496408445E0
4.923559235E0,4.309701920E-2,1.546690941E0,-3.077509642E0,3.444586450E0
4.933560537E0,-1.283921361E0,1.544144630E0,-3.906057358E0,4.392052001E0
4.943558454E0,-1.226415873E0,-5.240173340E-1,-3.913325310E0,4.134344572E0
4.953559235E0,-1.169860601E0,-1.378307343E0,-3.909303665E0,4.307082551E0
4.963587621E0,-1.321128249E0,-1.470828056E0,-3.917049408E0,4.387709093E0
4.973557412E0,-1.276222825E0,-1.487460136E0,-3.958682060E0,4.417289442E0
4.983546162E0,-1.231064081E0,-1.409194469E0,-4.503785133E0,4.877030690E0
4.993570798E0,-1.194061041E0,-7.053017616E-1,-4.467413425E0,4.677714726E0
5.003550173E0,-9.084308147E-2,-5.793361664E-1,-4.410631657E0,4.449444288E0
5.013556631E0,1.024672151E0,1.885166168E-1,-4.355548859E0,4.478425772E0
5.023549652E0,2.062416792E0,2.133855820E-1,-4.314648151E0,4.786991237E0
5.033545746E0,2.899085522E0,2.050905228E-1,-4.306135654E0,5.195148050E0
5.043558194E0,3.053945065E0,1.671829224E-1,-4.289852142E0,5.268525599E0
5.053549860E0,3.756478310E0,1.054649353E-1,-4.220058918E0,5.650765383E0
5.063576423E0,3.713055849E0,4.629898071E-2,-4.113971233E0,5.541993021E0
5.073552725E0,3.580781937E0,-5.117416382E-2,-3.885520458E0,5.284116511E0
5.083552204E0,3.382063866E0,-2.873992920E-2,-3.151821375E0,4.623111501E0
5.093549600E0,3.153403282E0,5.332660675E-2,-3.021336555E0,4.367524536E0
5.103562100E0,2.183376789E0,1.947221756E-1,-2.857864380E0,3.601727328E0
5.113553506E0,1.947281957E0,1.472428322E0,-2.090295792E0,3.213921075E0
5.123548558E0,1.115893364E0,1.509911537E0,-1.996321440E0,2.740501805E0
5.133547516E0,9.298658371E-1,1.548952103E0,-1.946779251E0,2.655908986E0
5.143549079E0,7.640705109E-1,2.581333160E0,-1.995424032E0,3.350940420E0
5.153554808E0,6.457233429E-1,3.379157066E0,-2.101438522E0,4.031340345E0
5.163574131E0,5.997850895E-1,3.480576515E0,-2.956355572E0,4.605886809E0
5.173565798E0,6.482520103E-1,3.581717491E0,-3.032309532E0,4.737492159E0
5.183551110E0,1.604876518E0,3.680177689E0,-3.120976925E0,5.085256476E0
5.193545954E0,2.307657957E0,3.757608414E0,-3.863708735E0,5.862862050E0
5.203564548E0,2.947665215E0,3.794536591E0,-3.896314621E0,6.186154361E0
5.213553246E0,3.027863503E0,3.796109200E0,-3.907100201E0,6.232482204E0
5.223552204E0,3.595680952E0,3.778198242E0,-3.870900631E0,6.495196314E0
5.233553246E0,3.508885622E0,3.780445099E0,-3.764170408E0,6.385375660E0
5.243548558E0,3.305709124E0,3.833737373E0,-3.638904095E0,6.234330603E0
5.253557673E0,1.431219101E0,4.581427574E0,-3.459793091E0,5.916758822E0
5.263547516E0,3.751800060E-1,4.652826309E0,-3.357767105E0,5.750143705E0
5.273549600E0,-8.082029819E-1,4.735306740E0,-3.246033669E0,5.797676824E0
5.283542100E0,-2.071517467E0,4.807797432E0,-3.130796432E0,6.099835003E0
5.293550121E0,-3.250358582E0,4.890958786E0,-3.022521019E0,6.604690914E0
5.303552725E0,-4.441032410E0,4.973249435E0,-2.935556173E0,7.285154004E0
5.313549860E0,-5.386169434E0,5.042582512E0,-2.838049173E0,7.905250323E0
5.323549600E0,-6.099723816E0,5.122412682E0,-2.110105753E0,8.240041784E0
5.333547256E0,-6.159856796E0,5.834139824E0,-2.000326157E0,8.716784268E0
5.343544444E0,-6.130934715E0,5.889271736E0,-4.674937725E-1,8.514131341E0
5.353573714E0,-5.967555046E0,5.947533607E0,-4.230539203E-1,8.435866515E0
5.363558037E0,-5.676504135E0,6.562257767E0,-3.814529777E-1,8.685127090E0
5.373552777E0,-4.428033829E0,6.496262550E0,-3.423082829E-1,7.869312910E0
5.383547621E0,-2.442100763E0,6.391153336E0,-3.254305720E-1,6.849569487E0
5.393549235E0,-2.433036566E0,6.217800140E0,-5.132396817E-1,6.696575280E0
5.403559235E0,-2.241957664E0,5.073211670E0,-5.428150296E-1,5.573015250E0
5.413547777E0,-4.679315090E-1,4.226069450E0,-5.694941878E-1,4.289865560E0
5.423550121E0,-2.132747173E-1,3.376285553E0,-5.939618349E-1,3.434760676E0
5.433549600E0,6.252708435E-1,2.204786301E0,-7.766314745E-1,2.419752613E0
5.443548298E0,8.292846680E-1,1.149343491E0,-7.960390449E-1,1.625540427E0
5.453554548E0,1.710328817E0,1.156095505E0,-8.124464750E-1,2.218524454E0
5.463549339E0,1.801819444E0,1.173017502E0,-1.863535643E0,2.845222040E0
5.473548037E0,1.890651941E0,1.191345215E0,-2.512803793E0,3.362744576E0
5.483548819E0,1.964380383E0,1.114386559E0,-2.580840111E0,3.429487333E0
5.493548558E0,2.021583557E0,-5.669727325E-1,-2.675933123E0,3.401305078E0
5.503553766E0,2.059039593E0,-1.369547844E0,-2.783162355E0,3.723076421E0
5.513550381E0,2.057385445E0,-2.229518890E0,-2.886382580E0,4.187456716E0
5.523548298E0,2.003060818E0,-3.002378941E0,-2.977741003E0,4.679046209E0
5.533562777E0,1.898145080E0,-3.657886505E0,-3.018717766E0,5.108399493E0
5.543543819E0,1.185806155E0,-3.768949032E0,-2.958078384E0,4.935720897E0
5.553539339E0,1.001740336E0,-4.547694206E0,-2.813673496E0,5.440750393E0
5.563545954E0,-2.755581141E-1,-4.605865479E0,-9.481131434E-1,4.710503966E0
5.573551944E0,-1.789952755E0,-4.676566601E0,-8.832472563E-1,5.084715504E0
5.583550121E0,-1.962847114E0,-4.760861874E0,-1.014074564E0,5.248516151E0
5.593552464E0,-1.936116695E0,-5.439648628E0,2.931272984E-1,5.781370830E0
5.603555850E0,-1.913839936E0,-5.491535187E0,4.858387113E-1,5.835733138E0
5.613556891E0,-1.834112048E0,-6.395846844E0,1.435152650E0,6.806650203E0
5.623548558E0,-1.954112530E0,-6.462103844E0,1.487457633E0,6.913021921E0
5.633550381E0,-1.830109954E0,-6.533005238E0,1.575832367E0,6.965106426E0
5.643548558E0,-1.712537408E0,-6.554264069E0,2.441170931E0,7.200727558E0
5.653553506E0,-1.604127169E0,-6.466063499E0,3.067197323E0,7.334228015E0
5.663548037E0,-4.781949520E-2,-5.336777687E0,3.783672810E0,6.542145116E0
5.673550902E0,1.626168609E0,-3.606228352E0,4.460442066E0,5.961950242E0
5.683548819E0,3.735979795E0,-1.344724655E0,4.489308357E0,5.993306179E0
5.693547256E0,6.098577976E0,1.401788712E0,5.116395950E0,8.083017533E0
5.703679756E0,8.383378983E0,3.332473755E0,5.017158031E0,1.032270794E1
5.713547100E0,9.820164680E0,5.047740936E0,4.894011497E0,1.207752754E1
5.723568037E0,1.078345776E1,6.208987236E0,4.739947319E0,1.331546410E1
5.733546266E0,1.078696156E1,6.430514336E0,4.549548149E0,1.335696233E1
5.743547621E0,1.057420731E1,6.553460121E0,4.333111763E0,1.317336545E1
5.753554287E0,9.407622337E0,6.487508774E0,4.051833153E0,1.212470536E1
5.763548819E0,7.624967575E0,4.757662773E0,3.755665541E0,9.740662669E0
5.773548558E0,5.474437714E0,3.204994202E0,2.712928772E0,6.899379583E0
5.783550902E0,3.387321472E0,2.079398155E0,1.419517040E0,4.220529833E0
5.793548037E0,2.650921345E-1,1.218689442E0,-2.489523172E0,2.784457473E0
5.803554027E0,-1.341998577E0,2.374745369E0,-4.764981270E0,5.490484701E0
5.813548558E0,-3.126892090E0,4.138556004E0,-6.261230469E0,8.130689203E0
5.823548558E0,-5.255059719E0,5.980367184E0,-7.401087761E0,1.086998364E1
5.833544652E0,-6.772759438E0,7.306303978E0,-8.490552902E0,1.308976076E1
5.843545954E0,-7.679552555E0,7.447757244E0,-9.182825089E0,1.409854219E1
5.853551944E0,-7.723661900E0,7.465625763E0,-9.200953484E0,1.414383492E1
5.863549600E0,-7.700886726E0,7.287935734E0,-9.076456070E0,1.395706697E1
5.873547256E0,-7.600709438E0,5.872052193E0,-8.125161171E0,1.258054152E1
5.883630016E0,-7.326089382E0,3.672763824E0,-7.785920143E0,1.130404053E1
5.893545433E0,-5.790752411E0,9.604339600E-1,-7.541540146E0,9.556676967E0
5.903570485E0,-3.958528519E0,-1.497143269E0,-7.305287361E0,8.442666014E0
5.913545485E0,-2.021959066E0,-3.165732861E0,-6.985162735E0,7.931121071E0
5.923550381E0,-1.783448100E0,-3.371051311E0,-5.791900635E0,6.934752125E0
5.933550381E0,-1.552804708E0,-3.352699280E0,-5.441755295E0,6.577575208E0
5.943550381E0,3.142852783E-1,-2.007495403E0,-4.268905640E0,4.727829141E0
5.953555329E0,5.957760811E-1,-4.168443680E-1,-4.011445999E0,4.076813384E0
5.963548298E0,1.645399213E0,1.322829247E0,-3.781587839E0,4.331007085E0
5.973545954E0,1.879017353E0,3.156586647E0,-3.597974777E0,5.142000386E0
5.983548037E0,1.970096946E0,3.181550026E0,-3.519603729E0,5.137232032E0
5.993553766E0,1.947543263E0,3.087689400E0,-3.524420023E0,5.074277002E0
6.003552985E0,1.874232650E0,1.207738876E0,-3.543966770E0,4.187013457E0
6.013548037E0,1.100945711E0,1.218263626E0,-3.574347019E0,3.933472300E0
6.023547516E0,2.550243139E-1,-7.757997513E-1,-3.575715542E0,3.667784657E0
6.033548298E0,-1.095397949E0,-1.878971100E0,-3.551510334E0,4.164571372E0
6.043546214E0,-1.086093783E0,-2.019907475E0,-3.506644011E0,4.190009323E0
6.053557673E0,-1.279391527E0,-2.092299461E0,-3.464029312E0,4.244297208E0
6.063579808E0,-1.274710774E0,-2.095157623E0,-3.432996750E0,4.219009328E0
6.073553558E0,-1.272256732E0,-2.017934799E0,-3.429532766E0,4.177606138E0
6.083568819E0,-1.248686075E0,-1.879508495E0,-3.467116117E0,4.136745493E0
6.093546527E0,-1.216259241E0,-9.792108536E-1,-4.069563389E0,4.358840054E0
6.103557933E0,2.497289181E-1,-9.103050232E-1,-4.066129684E0,4.174258063E0
6.113560277E0,1.300188899E0,-8.207621574E-1,-4.060746670E0,4.342096868E0
6.123560016E0,2.249212742E0,-7.574057579E-1,-4.038772106E0,4.684474524E0
6.133560537E0,2.394655943E0,-7.110266685E-1,-4.003901482E0,4.719233315E0
6.143558975E0,3.295596600E0,-6.854820251E-1,-3.952236176E0,5.191436539E0
6.153557152E0,3.328364372E0,-6.672120094E-1,-3.864821196E0,5.143930806E0
6.163558714E0,3.242231846E0,-6.514763832E-1,-3.731806755E0,4.986268191E0
6.173563141E0,3.057746887E0,-5.957064629E-1,-3.578012705E0,4.744139240E0
6.183559235E0,2.296662331E0,-4.745426178E-1,-3.426716089E0,4.152376634E0
6.193558975E0,2.102663755E0,1.246215820E0,-3.307348251E0,4.112517622E0
6.203557933E0,1.904625893E0,1.279750824E0,-3.220426321E0,3.954302423E0
6.213558975E0,1.726422787E0,2.384425163E0,-3.142842293E0,4.306213728E0
6.223558194E0,1.611144543E0,3.360594749E0,-3.029312134E0,4.802719627E0
6.233556631E0,1.584645510E0,4.303789139E0,-2.896882057E0,5.424539427E0
6.243594287E0,1.614451408E0,5.249711037E0,-2.779218197E0,6.155483174E0
6.253557829E0,2.545628309E0,6.034957886E0,-2.669001102E0,7.072800510E0
6.263545850E0,2.638130426E0,6.140122414E0,-2.545363426E0,7.151203421E0
6.273554079E0,3.669153214E0,6.175392151E0,-2.441129684E0,7.586650622E0
6.283547308E0,3.723399639E0,6.125014305E0,-2.340471745E0,7.540378843E0
6.293549600E0,3.748069525E0,6.024536133E0,-2.263840437E0,7.447686507E0
6.303548298E0,3.700066328E0,5.904103279E0,-2.227728367E0,7.315169174E0
6.313553506E0,3.501637220E0,5.213921547E0,-2.241630316E0,6.668684098E0
6.323549600E0,2.231055737E0,5.172003746E0,-2.284489393E0,6.078332357E0
6.333555850E0,-5.632514954E-1,5.068354607E0,-2.390113354E0,5.631883567E0
6.343548819E0,-2.788748980E0,5.029886246E0,-2.385486603E0,6.226349079E0
6.353552464E0,-3.947002888E0,5.025262833E0,-2.322161674E0,6.798862638E0
6.363549079E0,-5.456059933E0,5.040306091E0,-2.237306833E0,7.757500715E0
6.373554548E0,-6.710184574E0,5.052942276E0,-2.143660069E0,8.669145353E0
6.383554027E0,-7.557888985E0,5.082091331E0,-1.546222687E0,9.237972873E0
6.393549860E0,-7.597252846E0,5.152105331E0,-1.524204016E0,9.305140409E0
6.403548037E0,-7.485125065E0,5.980741501E0,-1.483949304E0,9.695280897E0
6.413546996E0,-6.621723175E0,6.055165291E0,-1.421784163E0,9.084806806E0
6.423578558E0,-5.370446205E0,6.772129059E0,-1.351951361E0,8.748211069E0
6.433550641E0,-4.033264637E0,6.736197472E0,-1.248230577E0,7.949947143E0
6.443650121E0,-2.081590891E0,6.693116188E0,7.862114906E-2,7.009779328E0
6.453543662E0,-1.854983449E0,6.619380951E0,9.770881385E-2,6.875079256E0
6.463550641E0,4.791653156E-2,6.469016075E0,1.115639284E-1,6.470155445E0
6.473549600E0,1.239565253E0,5.387927055E0,1.245415956E-1,5.530080522E0
6.483551735E0,2.202970743E0,4.349468231E0,-6.297388673E-2,4.875953209E0
6.493555329E0,2.415512562E0,3.339847565E0,-9.251442552E-2,4.122843874E0
6.503549600E0,3.337759495E0,2.554759979E0,-1.196242943E-1,4.204966940E0
6.513549600E0,3.532877445E0,8.589105606E-1,-2.407190800E0,4.360449282E0
6.523547516E0,3.564123631E0,7.814311981E-1,-2.572258234E0,4.464316789E0
6.533555850E0,3.530759335E0,-2.117042542E-1,-2.714829922E0,4.458854301E0
6.543548558E0,3.450664520E0,-1.120306015E0,-2.804820538E0,4.585759419E0
6.553549600E0,3.297639847E0,-2.169602394E0,-2.844459057E0,4.865444526E0
6.563548037E0,3.094509363E0,-3.308928013E0,-2.844100714E0,5.349196357E0
6.573548298E0,2.151468277E0,-4.514636040E0,-2.764650345E0,5.714371868E0
6.583553246E0,1.941721320E0,-5.692088127E0,-2.615418434E0,6.558243859E0
6.593549600E0,9.829657078E-1,-6.562040329E0,-1.799021006E0,6.874814284E0
6.603585069E0,8.100085258E-1,-6.686474800E0,-1.735845566E0,6.955445269E0
6.613554444E0,-9.622085094E-2,-7.413613319E0,-1.697264671E0,7.606025787E0
6.623686371E0,-2.773380280E-1,-7.376974106E0,-1.669057369E0,7.568514771E0
6.633561631E0,-2.008708715E0,-7.287234306E0,-1.647814989E0,7.736535968E0
6.643546787E0,-2.003043652E0,-7.159968376E0,-1.625854611E0,7.610567274E0
6.653551683E0,-2.004248381E0,-6.482475281E0,-1.600496292E0,6.971447893E0
6.663550121E0,-1.983703971E0,-6.443765640E0,-1.522737145E0,6.912013128E0
6.673547256E0,-3.228338718E0,-6.432585716E0,-1.382666230E0,7.328853647E0
6.683553766E0,-3.311307907E0,-6.446583748E0,4.569415003E-2,7.247433341E0
6.693547777E0,-3.954985619E0,-6.489151955E0,1.427018046E0,7.732230263E0
6.703551423E0,-3.840893745E0,-6.416271210E0,2.689306021E0,7.946909328E0
6.713550121E0,-2.957016468E0,-5.096489906E0,4.009247780E0,7.126866318E0
6.723543871E0,-1.819281578E0,-2.829675674E0,5.395755768E0,6.358539942E0
6.733552464E0,5.604438782E-1,1.172136307E0,6.738234520E0,6.862346924E0
6.743551944E0,3.077580214E0,3.118491173E0,8.023674965E0,9.141982668E0
6.753550121E0,5.292195797E0,5.516454697E0,8.930119514E0,1.175523897E1
6.763547516E0,6.900959492E0,7.092655182E0,9.766711235E0,1.390387168E1
6.773548819E0,8.211248398E0,7.846708298E0,9.575734138E0,1.485564255E1
6.783581371E0,8.289873123E0,7.828013420E0,9.306898117E0,1.471795309E1
6.793569079E0,8.306883812E0,6.914461136E0,8.963604927E0,1.404137831E1
6.803597881E0,8.241487503E0,4.982020378E0,7.149709702E0,1.199420661E1
6.813552256E0,5.915719986E0,2.600128174E0,5.409327507E0,8.427172334E0
6.823552464E0,3.907049894E0,1.246801376E0,2.983969688E0,5.071846572E0
6.833554027E0,2.088935137E0,-6.780004501E-1,9.607934952E-2,2.198309773E0
6.843550902E0,8.237037659E-1,-5.865306854E-1,-2.441907406E0,2.642994120E0
6.853552725E0,-2.379227877E-1,1.595068932E0,-5.714297771E0,5.937512204E0
6.863547256E0,-2.345317125E0,3.582112312E0,-7.759428978E0,8.862323572E0
6.873549079E0,-4.486836433E0,8.382002831E0,-9.836000443E0,1.367978718E1
6.883554808E0,-5.490548134E0,9.427031517E0,-9.925348282E0,1.474881624E1
6.893550121E0,-5.577188492E0,9.439538002E0,-9.824432373E0,1.472173158E1
6.903548298E0,-6.158045769E0,9.250198364E0,-8.850929260E0,1.420657053E1
6.913546735E0,-6.068119049E0,7.464610100E0,-7.664844036E0,1.230009377E1
6.923548298E0,-5.841934204E0,4.843348503E0,-6.622130394E0,1.007168461E1
6.933552725E0,-4.788146973E0,1.265355110E0,-6.335521221E0,8.041536180E0
6.943548558E0,-3.167058468E0,-1.961918831E0,-6.129865646E0,7.173188808E0
6.953548298E0,-1.404043555E0,-4.222471237E0,-5.943181038E0,7.424419338E0
6.963561110E0,-1.177896261E0,-5.173013687E0,-5.686511040E0,7.777140735E0
6.973569235E0,4.025009871E-1,-5.151215553E0,-4.736909866E0,7.009660748E0
6.983559600E0,6.917571425E-1,-3.902710438E0,-3.819813251E0,5.504602618E0
6.993546527E0,1.494655371E0,-2.219080925E0,-3.534423351E0,4.432884304E0
7.003548871E0,1.629900217E0,-3.656444550E-1,-2.366452217E0,2.896612967E0
7.013551162E0,1.722260714E0,9.004354477E-1,-2.122429371E0,2.877789498E0
7.023547516E0,1.830627561E0,2.524822235E0,-1.892190456E0,3.647781423E0
7.033557152E0,1.892171264E0,2.676639557E0,-1.760303020E0,3.720669044E0
7.043547777E0,1.888554573E0,2.726767540E0,-1.756242752E0,3.753170419E0
7.053553766E0,1.741871357E0,8.592023849E-1,-2.580182791E0,3.229502717E0
7.063552725E0,1.589349031E0,-3.094005585E-1,-3.455179691E0,3.815760180E0
7.073551423E0,6.923551559E-1,-1.544353962E0,-3.480708838E0,3.870364173E0
7.083556110E0,5.611048937E-1,-2.353350639E0,-3.505901337E0,4.259629340E0
7.093550381E0,4.134187698E-1,-2.423471928E0,-3.519646168E0,4.293255223E0
7.103549339E0,-7.408111095E-1,-2.439324856E0,-3.544042826E0,4.365701135E0
7.113547777E0,-7.336322069E-1,-2.392930031E0,-3.593918562E0,4.379564017E0
7.123548819E0,-7.246046662E-1,-2.278055668E0,-3.652784109E0,4.365480649E0
7.133557152E0,6.401386857E-1,-1.418016434E0,-4.226031303E0,4.503319744E0
7.143573402E0,1.331067085E0,-1.299266338E0,-4.136002541E0,4.535013740E0
7.153565954E0,2.035570860E0,-5.669269562E-1,-4.004119873E0,4.527464065E0
7.163549704E0,2.171008587E0,-5.001602173E-1,-3.839814186E0,4.439325569E0
7.173545225E0,3.101145744E0,-4.457263947E-1,-3.665927410E0,4.822323167E0
7.183554600E0,3.140328646E0,-3.922042847E-1,-2.969269991E0,4.339591281E0
7.193549600E0,3.165411949E0,-3.491411209E-1,-2.851390600E0,4.274594798E0
7.203555329E0,3.140305042E0,-2.979869843E-1,-2.703217506E0,4.154238425E0
7.213550902E0,3.066518307E0,-2.146492004E-1,-2.538867950E0,3.986910994E0
7.223547777E0,2.956872702E0,1.006834984E0,-1.735106707E0,3.573151010E0
7.233556631E0,2.916820049E0,9.615430832E-1,-1.589110732E0,3.457987452E0
7.243547777E0,2.918122292E0,2.721488953E0,-1.508090615E0,4.265709452E0
7.253552725E0,3.633113146E0,3.555562019E0,-1.436088085E0,5.282412459E0
7.263550641E0,3.630741596E0,4.446510315E0,-1.349444389E0,5.897010995E0
7.273550381E0,4.227947235E0,5.223969460E0,-1.287245512E0,6.842689219E0
7.283555381E0,4.235302448E0,5.362065315E0,-1.234870434E0,6.943661589E0
7.293557933E0,4.242003441E0,5.965084076E0,-1.215235591E0,7.419812583E0
7.303559235E0,4.201451778E0,5.928041458E0,-1.221257925E0,7.367858813E0
7.313558454E0,4.017104626E0,5.806458473E0,-1.211285114E0,7.163749102E0
7.323570954E0,3.026237726E0,4.910241127E0,-1.201885700E0,5.891783426E0
7.333565277E0,2.009537220E0,4.822540283E0,-1.210038185E0,5.362772327E0
7.343598558E0,8.647387028E-1,4.721369743E0,-1.235248089E0,4.956303372E0
7.353552516E0,-3.598177433E-1,4.105862617E0,-1.264384031E0,4.311176594E0
7.363545485E0,-2.319531918E0,4.110021591E0,-1.281784773E0,4.890345387E0
7.373560016E0,-2.322765112E0,4.152511597E0,-1.294621468E0,4.930987231E0
7.383560277E0,-3.873370886E0,4.243075371E0,-1.332998395E0,5.897760197E0
7.393542204E0,-4.055761814E0,5.075301170E0,-1.407594562E0,6.647496394E0
7.403558194E0,-4.868864059E0,5.214847565E0,-1.445776343E0,7.279473991E0
7.413563662E0,-4.808482170E0,7.125424385E0,-1.338652611E0,8.699722079E0
7.423558194E0,-4.600440502E0,7.214326859E0,-1.275447607E0,8.650857266E0
7.433563662E0,-4.356668472E0,7.835937500E0,-1.221084952E0,9.048399038E0
7.443559756E0,-3.276064873E0,7.778425217E0,-1.138252020E0,8.516578982E0
7.453559496E0,-3.000130653E0,7.666429520E0,4.011068642E-1,8.242318377E0
7.463558975E0,-1.546274900E0,7.491035461E0,4.212387204E-1,7.660549616E0
7.473559235E0,-1.553098679E0,6.218641281E0,2.377440482E-1,6.414057773E0
7.483558975E0,-1.368286014E0,5.098523140E0,2.531900704E-1,5.285002369E0
7.493563141E0,-1.192022562E0,3.860114098E0,2.678098977E-1,4.048841906E0
7.503554964E0,6.703407764E-1,2.702667236E0,2.813265026E-1,2.798733919E0
7.513554391E0,9.140750170E-1,1.724873543E0,-1.393914461E0,2.398691185E0
7.523533454E0,1.914383650E0,5.372400284E-1,-1.586215258E0,2.543535030E0
7.533546527E0,2.095410347E0,5.490818024E-1,-2.479189157E0,3.292205071E0
7.543549860E0,2.224871397E0,-7.061929703E-1,-2.631418943E0,3.517545579E0
7.553550641E0,2.335731506E0,-1.531768799E0,-3.427564383E0,4.421555713E0
7.563558454E0,2.389813900E0,-2.467677593E0,-3.526316166E0,4.922961394E0
7.573548819E0,2.387560129E0,-3.495954514E0,-3.616490364E0,5.567867086E0
7.583554548E0,2.270109415E0,-5.691131592E0,-3.562613249E0,7.087636328E0
7.593548558E0,2.083890915E0,-6.654728889E0,-3.444908142E0,7.777879534E0
7.603553766E0,9.820210934E-1,-7.496527672E0,-3.289508581E0,8.245190069E0
7.613555069E0,8.089876771E-1,-9.207521439E0,-2.498535156E0,9.574737074E0
7.623547777E0,-1.037509203E0,-9.138910294E0,-2.309691191E0,9.483184070E0
7.633548298E0,-1.036895275E0,-9.069033623E0,-1.449711919E0,9.242520615E0
7.643552725E0,-1.039367795E0,-8.997660637E0,-1.229384542E0,9.140545317E0
7.653549079E0,-1.043279409E0,-8.924622536E0,5.812281370E-1,9.004173781E0
7.663554027E0,-2.952085972E0,-9.048952103E0,5.272639394E-1,9.532908948E0
7.673549339E0,-3.038155317E0,-8.976826668E0,6.571926475E-1,9.499774046E0
7.683558558E0,-3.102880001E0,-8.902034760E0,2.169961929E0,9.673821475E0
7.693538194E0,-3.006752253E0,-7.384416580E0,3.102518320E0,8.555453656E0
7.703550433E0,-2.158254623E0,-6.556466103E0,4.306678295E0,8.135895077E0
7.713554600E0,-1.183502674E0,-5.042435646E0,5.744994164E0,7.735101406E0
7.723549339E0,7.145990133E-1,-2.735126972E0,7.384294987E0,7.906919992E0
7.733549079E0,2.817667007E0,-5.498981476E-2,8.843195915E0,9.281399961E0
7.743548037E0,5.067606926E0,2.449948311E0,1.068264198E1,1.207483857E1
7.753550381E0,6.756823063E0,4.503901482E0,1.052107620E1,1.329032847E1
7.763553506E0,8.773365021E0,6.804044724E0,1.019698906E1,1.507466564E1
7.773550641E0,7.728166580E0,6.830431938E0,9.858448982E0,1.426773898E1
7.783548298E0,6.780267715E0,6.673954964E0,7.988443851E0,1.242291996E1
7.793550902E0,5.293072701E0,4.770092010E0,6.441518307E0,9.605391949E0
7.803550381E0,3.471682310E0,2.990407944E0,4.689694405E0,6.556550262E0
7.813553506E0,1.516030312E0,9.864864349E-1,2.685063362E0,3.237447861E0
7.823547516E0,1.012897491E-2,1.077986717E0,4.743670225E-1,1.177786921E0
7.833549600E0,-1.673576593E0,1.170927048E0,-2.048625469E0,2.892886980E0
7.843548819E0,-1.698987246E0,2.388654709E0,-4.126531601E0,5.061668898E0
7.853546996E0,-1.915948033E0,4.663673401E0,-5.561357975E0,7.506624340E0
7.863571944E0,-3.937482834E0,6.852224350E0,-6.667798996E0,1.034003351E1
7.873539912E0,-4.798520565E0,8.227764130E0,-7.794858932E0,1.230779135E1
7.883544444E0,-4.870290756E0,8.330748558E0,-8.547647476E0,1.289121332E1
7.893557464E0,-5.537846088E0,8.257877350E0,-8.570829391E0,1.312704819E1
7.903550433E0,-5.401110649E0,7.403549194E0,-8.444488525E0,1.246169825E1
7.913557152E0,-5.220664024E0,5.654121399E0,-8.186016083E0,1.123544752E1
7.923550902E0,-4.961699009E0,3.057344437E0,-7.162723541E0,9.234198427E0
7.933550902E0,-3.240116835E0,-2.377710342E-1,-7.012897491E0,7.728882415E0
7.943551423E0,-8.338970542E-1,-3.242336273E0,-7.500383377E0,8.213639851E0
7.953552725E0,1.228808165E0,-6.069927216E0,-7.192354202E0,9.491256233E0
7.963555069E0,2.167730808E0,-6.032648563E0,-5.882543087E0,8.700357390E0
7.973551683E0,2.425494432E0,-4.712558746E0,-4.522115231E0,6.967119874E0
7.983552985E0,2.649556637E0,-3.043279648E0,-3.288995981E0,5.205688807E0
7.993549339E0,2.736321688E0,-1.074670315E0,-2.279057026E0,3.719741065E0
8.003548298E0,2.754072189E0,7.365722656E-1,-1.424925923E0,3.187140758E0
8.013552464E0,2.649689436E0,2.244776726E0,-1.849992126E-1,3.477657454E0
8.023551683E0,2.449959040E0,3.068811417E0,1.016218960E-2,3.926831557E0
8.033547516E0,1.307073355E0,3.094130516E0,1.599854976E-1,3.362689365E0
8.043555121E0,-5.620052814E-1,2.920750618E0,-8.862452507E-1,3.103556791E0
8.053550485E0,-5.745651722E-1,7.124853134E-1,-2.097419262E0,2.288433530E0
8.063570641E0,-5.837960839E-1,-6.197805405E-1,-2.854124546E0,2.978417820E0
8.073545746E0,-5.928375125E-1,-2.255625725E0,-2.931630373E0,3.746166090E0
8.083548089E0,-2.420934677E0,-3.477396488E0,-3.001873255E0,5.192730889E0
8.093554027E0,-2.476643324E0,-3.608241081E0,-3.560002804E0,5.641523360E0
8.103551423E0,-2.423971653E0,-3.635641575E0,-3.534352303E0,5.620068899E0
8.113552725E0,-2.231467724E0,-3.516081810E0,-3.496557236E0,5.437664204E0
8.123549339E0,-5.407432318E-1,-1.027947426E0,-3.358809233E0,3.553966603E0
8.133549600E0,1.561802745E0,7.527713776E-1,-3.222902298E0,3.659643669E0
8.143561839E0,2.880171776E0,7.728710175E-1,-3.108718395E0,4.307766141E0
8.153548819E0,3.829044580E0,7.949056625E-1,-2.998847008E0,4.928137659E0
8.163556371E0,4.004561424E0,8.178348541E-1,-2.873093605E0,4.996001693E0
8.173553246E0,4.752233505E0,8.414440155E-1,-2.726225138E0,5.542928362E0
8.183546996E0,4.793027878E0,7.659540176E-1,-2.570730686E0,5.492582094E0
8.193549339E0,4.743289471E0,7.927064896E-1,-2.415287733E0,5.381523336E0
8.203548298E0,4.599790096E0,8.224067688E-1,-2.263832092E0,5.192240130E0
8.213558454E0,4.397626400E0,2.420386314E0,-2.129939556E0,5.452891928E0
8.223556214E0,4.201231003E0,3.155102730E0,-1.426933289E0,5.444368998E0
8.233549860E0,4.040280342E0,3.919334412E0,-1.316823244E0,5.780923017E0
8.243553089E0,3.947712183E0,4.677253723E0,-1.209786177E0,6.238967580E0
8.253548871E0,3.926479340E0,4.837207794E0,-1.079050422E0,6.322987353E0
8.263555069E0,4.708597660E0,5.704340935E0,-4.010835886E-1,7.407514122E0
8.273550381E0,4.745268345E0,5.717275620E0,-3.543803692E-1,7.438440537E0
8.283543714E0,5.465220451E0,5.640702248E0,-3.136214018E-1,7.860312641E0
8.293549339E0,5.388706684E0,4.922430038E0,-2.865586281E-1,7.304149030E0
8.303549339E0,5.204043865E0,4.789560318E0,-2.641804218E-1,7.077552676E0
8.313558194E0,2.801100254E0,3.927172661E0,-2.809292078E-1,4.831952914E0
8.323550121E0,1.252986550E0,3.872488976E0,-3.976799250E-1,4.089534874E0
8.333548037E0,-5.140562057E-1,3.854146957E0,-5.639578104E-1,3.928963090E0
8.343550641E0,-1.997271895E0,3.892109871E0,-1.333498478E0,4.573383043E0
8.353549339E0,-3.699536324E0,3.998638153E0,-1.440877795E0,5.634873992E0
8.363554548E0,-4.826774597E0,4.972502708E0,-1.487549186E0,7.087759786E0
8.373549860E0,-5.028880596E0,5.816489220E0,-1.457234859E0,7.825900608E0
8.383548819E0,-5.689850807E0,6.754126549E0,-7.792019844E-1,8.865651887E0
8.393549287E0,-5.566488266E0,7.516525269E0,-6.670050025E-1,9.377037880E0
8.403556683E0,-4.625204086E0,7.605288506E0,8.946343064E-1,8.946133055E0
8.413563714E0,-3.800233841E0,7.636395454E0,9.051159620E-1,8.577618999E0
8.423544912E0,-2.844834805E0,7.575578690E0,7.184457779E-1,8.123954818E0
8.433548089E0,-1.618592858E0,7.430638313E0,7.275942564E-1,7.639608759E0
8.443546527E0,-1.430076122E0,6.437053680E0,7.327319384E-1,6.634581667E0
8.453546996E0,3.661607504E-1,5.397703171E0,7.383398414E-1,5.460258138E0
8.463554548E0,1.285951853E0,4.078861237E0,6.987973452E-1,4.333485766E0
8.473548819E0,1.539506435E0,2.821067810E0,-7.966508269E-1,3.311065719E0
8.483552204E0,2.611682892E0,4.550189972E-1,-1.993764281E0,3.317080919E0
8.493550381E0,3.405190945E0,4.629945755E-1,-2.141867161E0,4.049356033E0
8.503548819E0,3.464518070E0,-6.835422516E-1,-2.300289154E0,4.214433018E0
8.513558454E0,3.450280666E0,-8.343153000E-1,-3.059860229E0,4.686497980E0
8.523561058E0,3.392560244E0,-2.037122250E0,-3.115174055E0,5.036232864E0
8.533555069E0,3.272720814E0,-2.912879944E0,-3.090282440E0,5.361475231E0
8.543557412E0,3.116271973E0,-3.890841484E0,-3.044212580E0,5.840978402E0
8.553557933E0,2.243584633E0,-4.876381874E0,-2.934490681E0,6.117516468E0
8.563558454E0,2.062097549E0,-5.826954842E0,-2.823184252E0,6.795293838E0
8.573574860E0,1.123346567E0,-6.561785698E0,-2.707462072E0,7.186744042E0
8.583555016E0,9.073565006E-1,-6.672669411E0,-2.606650114E0,7.220972075E0
8.593560329E0,-1.824376583E-1,-7.533104897E0,-2.519538403E0,7.945377690E0
8.603533141E0,-3.816714287E-1,-7.572565556E0,-2.456035137E0,7.970039571E0
8.613553298E0,-1.584864140E0,-7.600116730E0,-2.369657040E0,8.117194289E0
8.623549131E0,-1.593967676E0,-7.625444889E0,-2.212958574E0,8.098476916E0
8.633554287E0,-1.606724977E0,-7.689256191E0,-1.403860450E0,7.979790103E0
8.643560798E0,-3.522011042E0,-8.966840744E0,-5.770452023E-1,9.650998698E0
8.653563662E0,-3.665117502E0,-8.885047913E0,1.272278547E0,9.695145972E0
8.663560798E0,-3.760595322E0,-8.965767860E0,2.630527973E0,1.007207764E1
8.673558194E0,-3.624361992E0,-8.891165733E0,4.255630493E0,1.050234349E1
8.683557412E0,-2.773441076E0,-6.259322643E0,6.058051586E0,9.141722178E0
8.693561839E0,-1.441522241E0,-3.010382652E0,7.970832825E0,8.641444671E0
8.703557412E0,3.238575459E-1,9.031724930E-1,9.535273552E0,9.583425587E0
8.713556891E0,2.501811504E0,4.408363342E0,1.129380417E1,1.237912520E1
8.723558194E0,4.283143044E0,7.024001122E0,1.123527241E1,1.392527386E1
8.733555329E0,5.470786095E0,8.577949524E0,1.110823059E1,1.506331655E1
8.743563141E0,5.657218456E0,9.202500343E0,1.088680649E1,1.533664529E1
8.753571735E0,6.363564491E0,9.089850426E0,1.044767666E1,1.524054728E1
8.763553714E0,6.358561039E0,7.649484634E0,8.745985985E0,1.324530802E1
8.773538089E0,6.203477859E0,5.285804749E0,6.490500927E0,1.041870777E1
8.783534079E0,4.683906555E0,2.722122192E0,3.496245861E0,6.447686792E0
8.793551735E0,3.133724213E0,7.834672928E-1,3.106752038E-1,3.245083592E0
8.803548298E0,1.876315236E0,7.555398941E-1,-2.814119339E0,3.465640929E0
8.813550381E0,6.921781301E-1,2.850744247E0,-5.146633625E0,5.923992826E0
8.823549079E0,-7.108623981E-1,5.690644264E0,-6.690097332E0,8.811705840E0
8.833548298E0,-1.737702608E0,8.142454147E0,-7.860584259E0,1.145023820E1
8.843554808E0,-3.921299696E0,9.535048485E0,-8.073455811E0,1.309482454E1
8.853548558E0,-4.002346516E0,9.389536858E0,-7.832466125E0,1.286583482E1
8.863550641E0,-3.999155045E0,7.670854568E0,-6.411509514E0,1.076766944E1
8.873546735E0,-3.913244009E0,5.108162880E0,-5.158940315E0,8.247513071E0
8.883548298E0,-3.687405586E0,7.329912186E-1,-4.849377632E0,6.136016583E0
8.893553246E0,-2.447319508E0,-2.298697472E0,-4.664571762E0,5.747313508E0
8.903551683E0,-1.263157487E0,-5.271842957E0,-4.522894859E0,7.060061820E0
8.913547256E0,-1.080359817E0,-6.839207649E0,-4.382455826E0,8.194379639E0
8.923546475E0,-9.054146409E-1,-6.856160164E0,-4.194902897E0,8.088505312E0
8.933567308E0,-7.387987375E-1,-5.703676224E0,-3.964239120E0,6.985194188E0
8.943548558E0,-7.813628316E-1,-3.628480911E0,-3.007869244E0,4.777413420E0
8.953541058E0,-6.528236270E-1,-1.280429840E0,-2.745731354E0,3.099148259E0
8.963546787E0,-5.580652952E-1,5.749807358E-1,-1.711008310E0,1.889335639E0
8.973545485E0,-4.664407670E-1,1.920578957E0,-1.528829336E0,2.498701594E0
8.983550902E0,-3.777239919E-1,2.597636223E0,-1.438298821E0,2.993174378E0
8.993550641E0,-4.901257753E-1,2.581796646E0,-1.455700278E0,3.004157203E0
9.003549860E0,-4.047084153E-1,1.676214218E0,-2.331251144E0,2.899692209E0
9.013552985E0,-3.214516938E-1,5.393753052E-1,-2.406409264E0,2.486978580E0
9.023552204E0,1.057204962E0,-3.001480579E0,-3.054196358E0,4.410746353E0
9.033548558E0,1.067538261E0,-3.933921814E0,-2.922972918E0,5.015889697E0
9.043557412E0,1.053400397E0,-3.991840363E0,-2.753324270E0,4.962382131E0
9.053547777E0,1.047802091E0,-3.947782040E0,-1.837862134E0,4.478907174E0
9.063552464E0,1.084241152E0,-3.775693417E0,-1.723609328E0,4.289786564E0
9.073545954E0,1.179824352E0,-2.335099220E0,-1.642879248E0,3.089292167E0
9.083547516E0,1.823759079E0,-1.421703815E0,-1.611089230E0,2.818323513E0
9.093553506E0,1.963907599E0,-6.694555283E-1,-1.632914305E0,2.640362265E0
9.103549860E0,3.132207155E0,-5.376329422E-1,-1.681813002E0,3.595589773E0
9.113575121E0,3.269044161E0,6.321573257E-1,-1.708796263E0,3.742493457E0
9.123545537E0,4.323005676E0,6.535491943E-1,-1.719362736E0,4.698054155E0
9.133537412E0,4.416956902E0,5.753183365E-1,-1.704984426E0,4.769430925E0
9.143538975E0,5.231566906E0,5.980110168E-1,-1.683612227E0,5.528241999E0
9.153548350E0,5.291746140E0,6.207342148E-1,-1.684696198E0,5.588030910E0
9.163549079E0,5.965688705E0,6.457910538E-1,-1.698942423E0,6.236416693E0
9.173551944E0,5.931476116E0,2.283214569E0,-1.695198298E0,6.577930902E0
9.183551423E0,5.853530884E0,3.038897514E0,-1.659069777E0,6.800826011E0
9.193555589E0,5.747677803E0,3.892035484E0,-1.629853725E0,7.130228854E0
9.203549860E0,5.725211620E0,4.860357285E0,-1.586171865E0,7.675745059E0
9.213548037E0,5.605771065E0,5.581310272E0,-1.531750202E0,8.057415980E0
9.223546996E0,5.437402725E0,5.575716972E0,-1.448356032E0,7.921597273E0
9.233548819E0,5.170123100E0,5.513325691E0,-7.544587255E-1,7.595797589E0
9.243555329E0,4.096721649E0,5.395676613E0,-6.900673509E-1,6.809746495E0
9.253547777E0,3.260421753E0,4.515720367E0,-6.435524225E-1,5.606803025E0
9.263548298E0,2.204517365E0,4.452046394E0,-6.376255751E-1,5.008710441E0
9.273576944E0,8.282313347E-1,4.397314072E0,-6.724455357E-1,4.524878030E0
9.283547100E0,-8.985879421E-1,4.403825760E0,-7.247987986E-1,4.552633843E0
9.293583454E0,-2.224943638E0,4.481637955E0,-8.089509010E-1,5.068516007E0
9.303553766E0,-4.806823730E0,5.294957161E0,-8.838675022E-1,7.205785694E0
9.313538194E0,-6.269433975E0,6.194671631E0,-9.349232912E-1,8.863060450E0
9.323546579E0,-7.260801315E0,7.240362167E0,-8.978133798E-1,1.029311172E1
9.333567048E0,-7.364287376E0,8.098801613E0,-2.413729429E-1,1.094904457E1
9.343555589E0,-7.326575279E0,8.184827805E0,7.732143998E-1,1.101217381E1
9.353548298E0,-7.112848282E0,8.196721077E0,7.927362919E-1,1.088151083E1
9.363548298E0,-5.981528759E0,8.093248367E0,8.147333264E-1,1.009668984E1
9.373578766E0,-4.702020168E0,7.874986649E0,6.320717931E-1,9.193689310E0
9.383553766E0,-1.558308363E0,5.511578560E0,6.722880602E-1,5.766957119E0
9.393548714E0,-1.332936525E0,4.412885666E0,6.440762281E-1,4.654579881E0
9.403553506E0,5.695366859E-2,3.496109962E0,6.180350184E-1,3.550773982E0
9.413547256E0,3.614263535E-1,2.790679932E0,3.946449161E-1,2.841525664E0
9.423550902E0,1.477349162E0,2.646783829E0,-1.221149802E0,3.267909427E0
9.433547256E0,1.761580110E0,1.936702728E0,-1.413825035E0,2.975379500E0
9.443554027E0,3.097600698E0,1.814588547E0,-2.253261566E0,4.238519714E0
9.453546475E0,3.908464670E0,3.067464828E-1,-2.307511330E0,4.549153550E0
9.463548558E0,4.043513775E0,2.240228653E-1,-2.349152565E0,4.681741948E0
9.473591006E0,4.649365902E0,-8.213539124E-1,-2.443202972E0,5.316057402E0
9.483567412E0,4.627820969E0,-1.871176720E0,-2.545591593E0,5.603397701E0
9.493564496E0,4.538546085E0,-2.997539043E0,-2.624704361E0,6.039264348E0
9.503564964E0,3.819537640E0,-4.099167824E0,-3.300862789E0,6.502902412E0
9.513547048E0,3.027140617E0,-5.148651600E0,-3.285056353E0,6.816435201E0
9.523545485E0,1.987787724E0,-6.052637100E0,-3.264773607E0,7.158523773E0
9.533554027E0,7.914102077E-1,-6.765521049E0,-3.259191513E0,7.551220730E0
9.543552464E0,-1.029560685E0,-6.904393196E0,-3.246771336E0,7.698841778E0
9.553546996E0,-1.051678181E0,-8.094799042E0,-3.184446573E0,8.761991697E0
9.563552204E0,-3.216788054E0,-9.378652573E0,-2.865676403E0,1.032080184E1
9.573573298E0,-3.986567259E0,-9.296674728E0,-1.436749935E0,1.021690412E1
9.583549079E0,-4.182980061E0,-1.066448212E1,-3.242735267E-1,1.146008963E1
9.593554808E0,-4.951137066E0,-1.069464397E1,1.069296956E0,1.183353556E1
9.603548558E0,-4.898189068E0,-1.069215202E1,1.028470635E0,1.180559710E1
9.613548298E0,-4.731077194E0,-1.059323788E1,3.112759352E0,1.201203775E1
9.623547777E0,-3.384134769E0,-9.097465515E0,4.797148705E0,1.082722876E1
9.633548298E0,-2.132637978E0,-6.835400581E0,6.717098713E0,9.817854194E0
9.643553246E0,-9.194594026E-1,-3.056325912E0,8.797047615E0,9.358129109E0
9.653545902E0,1.936269045E0,6.850442886E-1,1.124883461E1,1.143480230E1
9.663575277E0,4.499630451E0,4.534708023E0,1.125604439E1,1.294251855E1
9.673589756E0,6.428569794E0,7.148053169E0,1.118471241E1,1.474852418E1
9.683536631E0,7.551671028E0,8.737321854E0,1.103828430E1,1.597536381E1
9.693555121E0,7.681876659E0,9.458682060E0,1.077811623E1,1.626793425E1
9.703547516E0,7.683179855E0,9.336879730E0,1.028725719E1,1.587564916E1
9.713548819E0,7.488557816E0,7.494429588E0,7.893893242E0,1.321205978E1
9.723548298E0,6.091963291E0,4.902171135E0,5.422199249E0,9.515437104E0
9.733549079E0,4.589165688E0,2.159353256E0,2.241579294E0,5.545081237E0
9.743556891E0,1.339884758E0,5.081024170E-1,-4.137415409E0,4.378546048E0
9.753558714E0,-1.753388643E-1,5.758094788E-1,-6.789268970E0,6.815898578E0
9.763555850E0,-1.283118248E0,3.635187149E0,-7.828128815E0,8.725856908E0
9.773603246E0,-3.635334492E0,6.229415894E0,-8.148755074E0,1.088225567E1
9.783557673E0,-4.560821533E0,7.995121956E0,-8.364525795E0,1.243737753E1
9.793558194E0,-4.684903145E0,8.779958725E0,-8.407396317E0,1.302767460E1
9.803561839E0,-4.695093155E0,8.784783363E0,-8.179083824E0,1.288851158E1
9.813557412E0,-4.567963600E0,8.598304749E0,-6.742571831E0,1.184311660E1
9.823558714E0,-3.628803253E0,6.775661469E0,-5.018208504E0,9.179336467E0
9.833554496E0,-2.223675728E0,3.952357292E0,-3.551047325E0,5.759843662E0
9.843571839E0,-1.107207298E0,3.769721985E-1,-3.328084469E0,3.527628420E0
9.853551631E0,1.731579781E0,-2.492409706E0,-3.159099340E0,4.380682974E0
9.863543610E0,2.800936222E0,-4.246135712E0,-3.008774281E0,5.909960649E0
9.873569183E0,2.971050739E0,-4.378304482E0,-2.822095871E0,5.996742260E0
9.883553350E0,3.032976627E0,-4.307533264E0,-2.613630533E0,5.880888930E0
9.893548298E0,2.475796700E0,-3.179009438E0,-1.799516082E0,4.412927422E0
9.903556110E0,1.583797574E0,-1.715559959E0,-1.580744743E0,2.819630237E0
9.913561319E0,7.393323779E-1,3.915567398E-1,2.327092290E-1,8.683793127E-1
9.923559756E0,-2.965409756E-1,4.322404861E-1,3.806971312E-1,6.478415653E-1
9.933557933E0,-4.510232806E-1,3.534955978E-1,-6.358556747E-1,8.559752195E-1
9.943561058E0,-4.065551758E-1,3.739843369E-1,-1.397550821E0,1.502764018E0
9.953560016E0,-1.750233769E0,-1.417220116E0,-1.498853445E0,2.705252808E0
9.963561058E0,-1.839386225E0,-2.825292587E0,-2.327114344E0,4.096471781E0
9.973554287E0,-1.865528703E0,-4.149196148E0,-2.384597301E0,5.136373264E0
9.983548558E0,-1.809115171E0,-5.059036732E0,-2.981417894E0,6.144558814E0
9.993548819E0,-1.706826329E0,-5.141238689E0,-3.029523849E0,6.206738768E0
1.000354830E1,-2.529035211E-1,-5.127995968E0,-3.072777271E0,5.983499227E0
1.001354642E1,-1.819037199E-1,-4.977616787E0,-3.088669300E0,5.860856242E0
1.002356246E1,-1.119951755E-1,-3.572767735E0,-3.060790300E0,4.705916432E0
1.003355601E1,1.900335670E0,-2.328065872E0,-2.962858200E0,4.220153442E0
1.004355012E1,3.116590738E0,-1.211946487E0,-2.840739250E0,4.387681803E0
1.005354767E1,4.103453636E0,5.093727112E-1,-2.662702084E0,4.918106820E0
1.006354778E1,4.280493736E0,5.368528366E-1,-1.891129851E0,4.710330106E0
1.007354986E1,5.234117508E0,5.650501251E-1,-1.711451769E0,5.535732552E0
1.008354882E1,5.310182571E0,4.942264557E-1,-1.509716868E0,5.542701846E0
1.009354934E1,5.278519154E0,5.242462158E-1,-7.665110826E-1,5.359583733E0
1.010354700E1,5.848619938E0,5.746622086E-1,-7.620595694E-1,5.925987396E0
1.011354778E1,5.785531521E0,1.755459785E0,-8.079601526E-1,6.099738818E0
1.012354830E1,5.731686115E0,1.882740021E0,-8.594170809E-1,6.093893126E0
1.013354908E1,6.355702400E0,2.913668633E0,-8.937145472E-1,7.048627071E0
1.014355116E1,6.237224579E0,3.783347130E0,-9.146896601E-1,7.352097872E0
1.015354778E1,6.126968861E0,4.731191635E0,-9.227967262E-1,7.795862717E0
1.016355038E1,5.979719639E0,5.524766922E0,-9.112304449E-1,8.192096034E0
1.017354674E1,5.779780388E0,5.635622978E0,-8.747428656E-1,8.119808050E0
1.018354569E1,4.946203232E0,5.710394859E0,-8.207378387E-1,7.599154325E0
1.019354543E1,3.817467690E0,5.785969734E0,-7.532637119E-1,6.972654555E0
1.020355773E1,2.533581257E0,5.875214577E0,-7.318738699E-1,6.439939415E0
1.021355783E1,1.182481289E0,5.970653534E0,-7.793488503E-1,6.136314061E0
1.022354653E1,-1.745896339E-1,6.581155777E0,-8.662675619E-1,6.640219303E0
1.023354601E1,-2.264615297E0,6.573920250E0,-9.492379427E-1,7.017546763E0
1.024354830E1,-2.291276217E0,6.557035446E0,-1.007801652E0,7.018569991E0
1.025355090E1,-4.450160980E0,6.565739632E0,-1.085140347E0,8.005647958E0
1.026354726E1,-5.515455246E0,6.588807106E0,-1.163522959E0,8.671009822E0
1.027354752E1,-6.270261765E0,6.587660789E0,-1.233014464E0,9.177896379E0
1.028354705E1,-6.301280975E0,6.583851814E0,-1.146161556E0,9.185147411E0
1.029356132E1,-6.118634224E0,6.512392044E0,-4.279336929E-1,8.946064059E0
1.030354908E1,-5.883362293E0,6.408332825E0,-3.278291225E-1,8.705639172E0
1.031354752E1,-4.924279213E0,6.299372673E0,1.023904562E0,8.060955427E0
1.032355220E1,-3.966860533E0,6.188548088E0,1.047616959E0,7.425066412E0
1.033354726E1,-2.806715250E0,6.072015762E0,1.069682837E0,6.774307882E0
1.034354830E1,-1.071225762E0,5.405627251E0,1.091144919E0,5.617733337E0
1.035354804E1,-8.584608436E-1,5.244252205E0,1.091732264E0,5.425035995E0
1.036354856E1,5.919612646E-1,4.193059921E0,8.905732632E-1,4.327272857E0
1.037367976E1,9.030035138E-1,3.490261078E0,-5.240942836E-1,3.643077347E0
1.038355283E1,2.125804663E0,2.739331245E0,-1.594317675E0,3.816389653E0
1.039371965E1,2.354092121E0,1.673148155E0,-2.433788538E0,3.776837448E0
1.040355366E1,3.251645088E0,1.618700027E-1,-2.625918388E0,4.182683954E0
1.041354913E1,3.310529232E0,-1.185960770E0,-3.432929277E0,4.914377902E0
1.042355064E1,3.296482086E0,-2.912963390E0,-3.532609940E0,5.641939635E0
1.043354908E1,3.231274843E0,-4.652304173E0,-3.594966888E0,6.708864148E0
1.044355038E1,3.076780796E0,-6.235265732E0,-3.582211971E0,7.821595836E0
1.045355012E1,2.366010189E0,-7.716785431E0,-3.464245796E0,8.783380929E0
1.046354960E1,1.517465830E0,-9.634024620E0,-3.230558872E0,1.027393029E1
1.047354726E1,1.340376616E0,-9.560337067E0,-3.066282272E0,1.012910368E1
1.048355168E1,5.393588543E-1,-9.484782219E0,-2.354652166E0,9.787562952E0
1.049355403E1,3.713902235E-1,-9.406821251E0,-2.163822889E0,9.659624539E0
1.050355090E1,-9.261007309E-1,-9.525456429E0,-1.420780659E0,9.675257124E0
1.051354882E1,-9.608313441E-1,-9.440527916E0,-1.156236172E0,9.559479394E0
1.052354934E1,-1.002878904E0,-9.350925446E0,1.476832628E-1,9.405710134E0
1.053354934E1,-1.021581769E0,-9.260810852E0,1.493143201E0,9.435874287E0
1.054354830E1,-1.037631512E0,-9.171576500E0,1.647883534E0,9.376034065E0
1.055367184E1,-1.227839708E0,-9.283031464E0,3.591183424E0,1.002890133E1
1.056355267E1,-1.216215730E0,-9.196985245E0,5.116518974E0,1.059445538E1
1.057355898E1,-1.163404703E0,-7.302823544E0,6.938879013E0,1.014065009E1
1.058354809E1,-1.109850645E0,-5.043655396E0,8.903614998E0,1.029293876E1
1.059354835E1,1.196443558E0,-1.820406437E0,1.170744038E1,1.190838011E1
1.060354908E1,3.012752771E0,6.676855087E-1,1.160787106E1,1.201104299E1
1.061354882E1,4.681704521E0,4.617017746E0,1.289198494E1,1.447198970E1
1.062354934E1,5.700326443E0,6.796161652E0,1.265528202E1,1.545437471E1
1.063355116E1,5.777554989E0,8.213280678E0,1.213279915E1,1.574937892E1
1.064355168E1,4.805799007E0,9.006999969E0,9.182873726E0,1.373123893E1
1.065354700E1,4.532705784E0,7.929583549E0,6.967336178E0,1.148771041E1
1.066354986E1,2.937873602E0,5.968733788E0,3.916923523E0,7.720050143E0
1.067355038E1,1.393464327E0,4.058449745E0,7.290799022E-1,4.352506711E0
1.068355012E1,-1.328730583E-1,3.000498772E0,-1.296348572E0,3.271263937E0
1.069355012E1,-1.721564412E0,3.088971138E0,-4.583837509E0,5.789394876E0
1.070355142E1,-1.730837941E0,4.444752693E0,-6.432011604E0,8.007646331E0
1.071354830E1,-3.374302864E0,5.960149765E0,-7.828664780E0,1.040179298E1
1.072354908E1,-3.554172993E0,6.838562965E0,-8.892379761E0,1.176743417E1
1.073364231E1,-4.384899139E0,6.864416122E0,-9.025949478E0,1.215793211E1
1.074354450E1,-4.393515110E0,6.730291367E0,-8.986375809E0,1.205631565E1
1.075359038E1,-4.287858009E0,5.547180176E0,-8.791274071E0,1.124470693E1
1.076354793E1,-4.033533096E0,3.896246910E0,-8.419735909E0,1.011642634E1
1.077354653E1,-2.718599081E0,1.588631630E0,-6.895060539E0,7.579999423E0
1.078355142E1,-1.136527538E0,-1.050670624E0,-5.819858551E0,6.022155524E0
1.079355142E1,-9.622609615E-2,-3.320727348E0,-4.880546570E0,5.903916023E0
1.080355533E1,9.318583012E-1,-4.539019108E0,-4.512183189E0,6.467677442E0
1.081354856E1,1.147752523E0,-4.545779228E0,-3.234048367E0,5.695657423E0
1.082354882E1,1.323722363E0,-2.014305115E0,-1.610900164E0,2.899080083E0
1.083354856E1,1.313235283E0,3.217706680E-1,-4.091038108E-1,1.412617853E0
1.084355298E1,1.203089476E0,3.352479935E-1,-2.269540131E-1,1.269379229E0
1.085354752E1,3.542886972E-1,1.620594025E0,-5.464228615E-2,1.659768434E0
1.086354986E1,2.618808746E-1,1.667157173E0,7.470118999E-2,1.689252764E0
1.087354856E1,-7.450917363E-1,1.556151390E0,-1.044787407E0,2.017015015E0
1.088354934E1,-9.126092196E-1,3.049373627E-1,-2.005317926E0,2.224217249E0
1.089354700E1,-8.801729083E-1,-1.757615089E0,-2.859725475E0,3.470150565E0
1.090354804E1,-8.478552103E-1,-3.547573090E0,-2.966517925E0,4.701527612E0
1.091359283E1,-8.155589104E-1,-4.924526215E0,-3.697658062E0,6.211985988E0
1.092355778E1,-7.556297183E-1,-5.724378586E0,-3.716133595E0,6.866522800E0
1.093362694E1,-8.934355974E-1,-5.739290237E0,-3.706935167E0,6.890504186E0
1.094354601E1,-7.977014780E-1,-5.621308804E0,-3.678421259E0,6.765073782E0
1.095355246E1,-7.020145655E-1,-4.328908920E0,-3.594894886E0,5.670586048E0
1.096354934E1,-6.187972426E-1,-3.053940773E0,-3.473850489E0,4.666594207E0
1.097355168E1,6.469480395E-1,-1.766551971E0,-3.373840570E0,3.862906655E0
1.098356262E1,1.521466732E0,-7.461862564E-1,-3.261663198E0,3.675609033E0
1.099355767E1,2.347195864E0,4.276885986E-1,-3.155757427E0,3.956140910E0
1.100355898E1,3.413269043E0,4.748001099E-1,-2.995777130E0,4.566237107E0
1.101355559E1,3.525378466E0,5.031499863E-1,-2.809352398E0,4.535847675E0
1.102355637E1,3.609750986E0,4.353742599E-1,-2.599196434E0,4.469415513E0
1.103355793E1,4.310723782E0,4.690523148E-1,-1.896741867E0,4.732861640E0
1.104355950E1,4.336896896E0,1.892354012E0,-1.770608544E0,5.052200809E0
1.105355898E1,5.066438675E0,2.061111450E0,-1.646074653E0,5.711964900E0
1.106355741E1,5.112316132E0,3.291114807E0,-1.500835061E0,6.262564873E0
1.107355871E1,6.162937164E0,4.105896950E0,-1.346120715E0,7.526767250E0
1.108355976E1,6.785191059E0,4.869916916E0,-1.193373442E0,8.436767666E0
1.109356632E1,7.390776634E0,5.015613556E0,-1.074797869E0,8.996396448E0
1.110356845E1,7.427071095E0,5.711949348E0,-4.062445164E-1,9.378314615E0
1.111357835E1,8.442234039E0,5.714433670E0,-3.273241520E-1,1.019966709E1
1.112355642E1,8.230086327E0,5.646637917E0,-2.049404383E-1,9.983027661E0
1.113354991E1,6.582427025E0,5.543522835E0,6.011456251E-1,8.626724003E0
1.114355976E1,5.197688103E0,4.737266541E0,6.427344084E-1,7.061923492E0
1.115355871E1,3.489039421E0,4.695886612E0,6.409089565E-1,5.885194257E0
1.116355924E1,1.505634069E0,4.646705627E0,5.744020939E-1,4.918205456E0
1.117356288E1,-6.863074303E-1,4.628381729E0,4.864414930E-1,4.704206697E0
1.118355976E1,-5.007646561E0,4.803234100E0,2.857490778E-1,6.944727096E0
1.119355689E1,-6.635254860E0,5.915044785E0,1.995157003E-1,8.891241104E0
1.120355950E1,-7.728249550E0,6.755207062E0,1.793199778E-1,1.026600308E1
1.121354830E1,-7.862566948E0,7.570214272E0,2.395020723E-1,1.091720955E1
1.122355064E1,-7.846460819E0,7.663616180E0,1.366827726E0,1.105288100E1
1.123354804E1,-7.619245529E0,7.693227768E0,1.361715317E0,1.091297047E1
1.124354778E1,-6.355867386E0,7.637544632E0,1.357882380E0,1.002860822E1
1.125354778E1,-5.057942390E0,7.461632729E0,1.354472041E0,9.115554767E0
1.126355559E1,-3.583850145E0,6.461904526E0,1.148662210E0,7.477942019E0
1.127356054E1,-1.419604063E0,5.460857391E0,1.144355893E0,5.757238014E0
1.128354148E1,-1.178552270E0,4.214222908E0,1.107288480E0,4.513839602E0
1.129356752E1,7.256177664E-1,2.792714119E0,1.072816372E0,3.078426264E0
1.130354653E1,1.845571280E0,1.464291573E0,1.042024255E0,2.576062442E0
1.131354330E1,2.774842739E0,8.270168304E-2,-4.571130276E-1,2.813457680E0
1.132355012E1,3.644570589E0,8.925724030E-2,-6.493965387E-1,3.703049756E0
1.133354986E1,4.403889656E0,-1.085858345E0,-1.552629948E0,4.794162305E0
1.134354830E1,4.531292915E0,-1.755678177E0,-1.678717852E0,5.141314518E0
1.135355116E1,5.211543560E0,-1.914317608E0,-1.799073577E0,5.836220002E0
1.136355507E1,5.128909111E0,-3.721056461E0,-2.578564167E0,6.841122936E0
1.137354804E1,4.922817230E0,-4.539712906E0,-2.639987946E0,7.198101076E0
1.138354960E1,3.865763187E0,-5.543076038E0,-2.722386599E0,7.285684990E0
1.139354720E1,2.964684486E0,-6.674108505E0,-3.368782759E0,8.042498102E0
1.140354700E1,2.046728849E0,-7.847653866E0,-3.352926970E0,8.775926700E0
1.141355325E1,1.084246397E0,-9.574807167E0,-3.343179703E0,1.019947906E1
1.142354804E1,1.158919334E-1,-9.489389420E0,-3.329436302E0,1.005719089E1
1.143354830E1,-1.359652877E0,-9.401201248E0,-3.286665440E0,1.005153772E1
1.144355090E1,-1.431344390E0,-1.058660507E1,-3.160821199E0,1.114072459E1
1.145356101E1,-2.789143801E0,-1.051900959E1,-2.907245159E0,1.126414490E1
1.146356210E1,-3.687706470E0,-1.036544037E1,-1.458058953E0,1.109808402E1
1.147358012E1,-4.458100796E0,-9.204172134E0,-7.209265232E-2,1.022725011E1
1.148356007E1,-4.628140926E0,-9.099884033E0,1.721033335E0,1.035323783E1
1.149354653E1,-4.721090317E0,-7.252011299E0,3.328408241E0,9.271389490E0
1.150355351E1,-4.660624504E0,-5.817136765E0,5.503194332E0,9.265292697E0
1.151355585E1,-3.950471401E0,-3.937546730E0,7.806610584E0,9.594460243E0
1.152355064E1,-1.822476387E0,-1.469037056E0,9.819957733E0,1.009510079E1
1.153354960E1,-2.989599705E-1,8.594770432E-1,1.200858879E1,1.204301800E1
1.154354856E1,4.337978363E0,5.099982262E0,1.185415077E1,1.361428536E1
1.155354752E1,5.814380646E0,6.142388344E0,1.167497921E1,1.441669506E1
1.156355767E1,6.619560242E0,6.174214363E0,1.137814140E1,1.453965621E1
1.157354778E1,6.723849297E0,6.069527626E0,1.097117615E1,1.422729844E1
1.158354856E1,6.705145836E0,5.132823944E0,8.632184982E0,1.207557369E1
1.159355116E1,5.629059792E0,3.357276917E0,6.775150299E0,9.426573291E0
1.160354804E1,3.794795990E0,4.890174866E-1,4.601778984E0,5.984645731E0
1.161355194E1,1.716461182E0,5.515489578E-1,2.077982187E0,2.751082553E0
1.162354752E1,-2.456784248E-2,6.252870560E-1,-1.062634587E0,1.233198989E0
1.163356564E1,-2.021910191E0,7.061719894E-1,-3.544636726E0,4.141406672E0
1.164355637E1,-2.243561506E0,3.638327599E0,-4.653805256E0,6.318931817E0
1.165356491E1,-4.766186714E0,6.523214340E0,-5.557949543E0,9.806103418E0
1.166355043E1,-6.024262428E0,8.631266594E0,-6.594327927E0,1.242077540E1
1.167355116E1,-6.176237106E0,9.648163795E0,-7.536116600E0,1.371225812E1
1.168355012E1,-6.196889400E0,9.685310364E0,-7.644586563E0,1.380747547E1
1.169354986E1,-6.117863655E0,9.541942596E0,-8.120218277E0,1.394327326E1
1.170354908E1,-5.914002895E0,8.090093613E0,-7.811962128E0,1.270636837E1
1.171355455E1,-5.519567490E0,5.108166695E0,-6.421196938E0,9.888921193E0
1.172354908E1,-1.361808419E0,-2.419351101E0,-7.023173809E0,7.552003196E0
1.173354804E1,9.692859650E-2,-4.961782932E0,-6.814457417E0,8.430036471E0
1.174354934E1,1.348515511E0,-5.945021629E0,-6.375092506E0,8.820633805E0
1.175354804E1,2.194814682E0,-5.879178047E0,-4.271294117E0,7.591172468E0
1.176356002E1,2.450943470E0,-4.420270920E0,-2.532652378E0,5.653339453E0
1.177354778E1,2.611997604E0,-2.752731323E0,-1.237214923E0,3.991335865E0
1.178354752E1,2.583089828E0,-9.919881821E-1,1.606983244E-1,2.771681361E0
1.179354856E1,1.894338250E0,2.986946106E-1,3.823758960E-1,1.955491550E0
1.180354830E1,1.701359868E0,3.283519745E-1,5.778406262E-1,1.826565140E0
1.181357153E1,4.767578244E-1,1.401729584E0,7.311317325E-1,1.651271467E0
1.182355507E1,-5.649775267E-1,1.343480110E0,8.300741911E-1,1.677248215E0
1.183354554E1,-7.593243718E-1,3.048048019E-1,-1.419201612E0,1.638173582E0
1.184354939E1,-2.351855993E0,-1.400697708E0,-2.329480171E0,3.594392654E0
1.185354908E1,-3.090821266E0,-2.930539131E0,-2.406041384E0,4.891857606E0
1.186355559E1,-3.191961050E0,-4.155953407E0,-3.085006237E0,6.080939693E0
1.187354856E1,-3.209871531E0,-4.836780548E0,-3.090166569E0,6.576233780E0
1.188355194E1,-3.106823683E0,-4.864426136E0,-3.120201111E0,6.561299414E0
1.189354934E1,-7.100846767E-1,-4.015307903E0,-3.188902140E0,5.176486710E0
1.190354856E1,4.242348075E-1,-2.964976788E0,-3.149307966E0,4.346171095E0
1.191355585E1,2.102098942E0,-1.825435638E0,-3.091294050E0,4.160184387E0
1.192354986E1,3.781844616E0,-7.768659592E-1,-2.991866589E0,4.884376634E0
1.193355012E1,5.322625160E0,4.641456604E-1,-2.823302269E0,6.042913659E0
1.194354908E1,6.498080730E0,4.979190826E-1,-2.573001385E0,7.006662024E0
1.195354908E1,7.231886864E0,5.328159332E-1,-1.470941782E0,7.399172261E0
1.196355325E1,7.276148319E0,5.705480576E-1,-1.267861962E0,7.407788699E0
1.197354934E1,7.223983288E0,5.107421875E-1,-1.069365144E0,7.320541915E0
1.198356549E1,7.053301811E0,5.538368225E-1,-2.618956566E-1,7.079858120E0
1.199355069E1,6.773033142E0,2.072958946E0,-1.568803787E-1,7.084895778E0
1.200353835E1,5.841320992E0,2.204521179E0,-4.507923126E-2,6.243634894E0
1.201355523E1,5.522725105E0,3.033609390E0,2.482724190E-2,6.301102674E0
1.202355220E1,4.638226509E0,3.196678162E0,6.718993187E-2,5.633507869E0
1.203354653E1,4.418545246E0,4.333338737E0,1.084120274E-1,6.189759274E0
1.204354960E1,4.236248493E0,5.027588844E0,1.523765326E-1,6.576143968E0
1.205355012E1,4.102789879E0,5.160498619E0,2.146594524E-1,6.596189011E0
1.206355403E1,3.995033503E0,5.263894081E0,7.607245445E-1,6.651885102E0
1.207354908E1,3.703563690E0,5.225594521E0,6.912268400E-1,6.442128270E0
1.208354778E1,2.234705448E0,5.079536438E0,6.493953466E-1,5.587245581E0
1.209354856E1,1.029578209E0,4.228709221E0,6.024019718E-1,4.393734300E0
1.210354726E1,-3.583195210E-1,4.164820671E0,5.107874870E-1,4.211297657E0
1.211355611E1,-2.563427687E0,4.105055809E0,3.452303410E-1,4.851992239E0
1.212354986E1,-3.547211170E0,4.096142769E0,-4.356372356E-1,5.436071419E0
1.213354726E1,-5.159439087E0,4.175551414E0,-5.671664476E-1,6.661585328E0
1.214354960E1,-6.498795509E0,5.094211578E0,-6.463923454E-1,8.282702321E0
1.215354882E1,-7.248641968E0,5.994989395E0,-6.636666059E-1,9.429907825E0
1.216356392E1,-7.277638435E0,7.029376030E0,-6.367869377E-1,1.013812834E1
1.217354944E1,-7.174727440E0,7.909560204E0,-5.756922960E-1,1.069435730E1
1.218353720E1,-6.870340347E0,7.974631310E0,1.940826178E-1,1.052777227E1
1.219354486E1,-5.433638096E0,7.978089333E0,2.906063795E-1,9.657058787E0
1.220354705E1,-4.342838287E0,7.886553764E0,1.415865064E0,9.113871216E0
1.221355512E1,-3.067111969E0,7.670953751E0,1.217088223E0,8.350569502E0
1.222356080E1,-1.448320270E0,6.187000275E0,1.215020418E0,6.469380080E0
1.223356106E1,-1.220554948E0,4.924967766E0,1.213322878E0,5.217012007E0
1.224356262E1,8.337385654E-1,3.534244537E0,1.201918840E0,3.824998476E0
1.225355924E1,1.805383444E0,1.252893448E0,1.002086163E0,2.415228364E0
1.226355950E1,2.012501001E0,8.868026733E-2,-6.552193165E-1,2.118333501E0
1.227355585E1,2.808071136E0,9.576892853E-2,-1.578939915E0,3.222962372E0
1.228354444E1,2.919298410E0,1.045064926E-1,-1.808106184E0,3.435472717E0
1.229355819E1,2.944573879E0,1.187696457E-1,-2.867575407E0,4.111886462E0
1.230355898E1,2.919119120E0,-2.161087990E0,-3.054797411E0,4.745876627E0
1.231355741E1,2.866355658E0,-3.004907608E0,-3.840964079E0,5.656718973E0
1.232355793E1,2.804718018E0,-4.067508698E0,-3.878513575E0,6.281236957E0
1.233355715E1,2.735062122E0,-5.291001320E0,-3.828497648E0,7.080441654E0
1.234357720E1,2.651449203E0,-6.495972633E0,-3.722204208E0,7.942458530E0
1.235355231E1,2.518460512E0,-7.514379501E0,-3.593583584E0,8.701861043E0
1.236355106E1,1.794720173E0,-8.200735092E0,-3.448041439E0,9.075354887E0
1.237357012E1,1.561370850E0,-8.278458595E0,-3.285260677E0,9.042327873E0
1.238354809E1,2.682967186E-1,-8.339311600E0,-2.418584824E0,8.687096962E0
1.239354710E1,-1.165430188E0,-8.379755020E0,-2.165123463E0,8.733056815E0
1.240355637E1,-1.403829694E0,-8.371967316E0,-8.541131020E-1,8.531710481E0
1.241355976E1,-2.722908974E0,-8.320660591E0,1.062116623E-1,8.755507231E0
1.242355950E1,-3.680844784E0,-8.240359306E0,1.545772195E0,9.156503235E0
1.243356054E1,-4.672439575E0,-8.098644257E0,3.449012995E0,9.965712268E0
1.244355924E1,-4.667181015E0,-7.970787525E0,4.976289749E0,1.049187743E1
1.245354960E1,-4.505727768E0,-6.999825478E0,6.378653526E0,1.048743821E1
1.246354986E1,-3.031665325E0,-5.559473038E0,7.670886993E0,9.946921251E0
1.247355038E1,-1.412108779E0,-3.281439304E0,8.853203773E0,9.546785436E0
1.248354856E1,9.938867092E-1,-5.214195251E-1,9.942234039E0,1.000538389E1
1.249354960E1,3.299942970E0,2.109812737E0,1.149520588E1,1.214416286E1
1.250355898E1,5.188539505E0,4.199866295E0,1.135583687E1,1.317250356E1
1.251354778E1,6.466449261E0,5.601782799E0,1.114328957E1,1.404876646E1
1.252356028E1,6.714507103E0,6.365025520E0,1.085627556E1,1.426383099E1
1.253354809E1,6.843157768E0,6.368716240E0,1.049571514E1,1.405522647E1
1.254353939E1,6.768755436E0,6.211255074E0,8.870928764E0,1.277063494E1
1.255353825E1,5.869298935E0,4.611292839E0,7.293407917E0,1.043582726E1
1.256354653E1,4.404473782E0,2.977560997E0,4.963562489E0,7.273390637E0
1.257354726E1,2.776254177E0,1.754932404E0,2.181395054E0,3.942823782E0
1.258354543E1,1.269399166E0,1.745671272E0,-1.107615709E0,2.426016281E0
1.259355116E1,-1.119904518E-1,2.795552254E0,-3.524835348E0,4.500235382E0
1.260355741E1,-1.783118844E0,4.891652107E0,-5.105244637E0,7.291865053E0
1.261354882E1,-4.492281437E0,7.824048042E0,-7.172509193E0,1.152567605E1
1.262354778E1,-5.327574253E0,7.866036415E0,-7.335747242E0,1.200294813E1
1.263354856E1,-5.458703041E0,7.704597473E0,-7.268170834E0,1.191572777E1
1.264354986E1,-6.029204845E0,6.116731644E0,-6.967045307E0,1.105917887E1
1.265355559E1,-5.865314484E0,4.178914070E0,-5.802498817E0,9.248471729E0
1.266355038E1,-4.821868896E0,4.000005722E-1,-5.416657448E0,7.262960692E0
1.267354700E1,-3.293565750E0,-1.877288342E0,-5.252333164E0,6.477560539E0
1.268357616E1,-1.215244174E0,-4.623181343E0,-5.194604397E0,7.059358255E0
1.269354804E1,4.169964790E-1,-6.351790905E0,-5.861080170E0,8.652825811E0
1.270356522E1,1.652163744E0,-6.492122173E0,-5.704871655E0,8.799025852E0
1.271354845E1,2.534611940E0,-6.407636642E0,-5.419041157E0,8.766303217E0
1.272354476E1,2.743302584E0,-4.950728416E0,-3.871389866E0,6.857337706E0
1.273352882E1,2.839937925E0,-2.997154236E0,-2.230379105E0,4.692842623E0
1.274354887E1,2.717429876E0,-8.211765289E-1,-8.647559285E-1,2.967584681E0
1.275355356E1,1.389132380E0,2.751216888E-1,4.137382507E-1,1.475316934E0
1.276354648E1,6.136875153E-1,2.520803452E0,5.839480758E-1,2.659334083E0
1.277354934E1,-3.138697147E-1,3.214541435E0,7.479657531E-1,3.315304451E0
1.278357694E1,-4.802201390E-1,3.204860687E0,6.484760642E-1,3.304884962E0
1.279354908E1,-1.873275518E0,2.383192062E0,-4.946562648E-1,3.071392257E0
1.280355533E1,-2.934554338E0,-9.004545212E-1,-2.928368807E0,4.242378033E0
1.281354648E1,-2.911458969E0,-2.709571838E0,-3.670920134E0,5.412395727E0
1.282354960E1,-2.764168262E0,-4.137191296E0,-3.742835045E0,6.226218128E0
1.283354830E1,-1.706426859E0,-4.903922081E0,-3.804731846E0,6.437105624E0
1.284355038E1,-2.737831175E-1,-4.926094532E0,-3.863212824E0,6.266241127E0
1.285355351E1,-1.854356527E-1,-4.821541309E0,-3.894477844E0,6.200693885E0
1.286354778E1,1.288406610E0,-3.660574913E0,-3.840004444E0,5.459435357E0
1.287354726E1,2.550868750E0,-2.519558907E0,-3.696772575E0,5.149877274E0
1.288357486E1,3.778601646E0,-1.429540634E0,-3.510329247E0,5.351992923E0
1.289356278E1,4.775022984E0,3.821516037E-1,-3.277293921E0,5.804096810E0
1.290356366E1,4.944513798E0,4.171667099E-1,-2.286272764E0,5.463450184E0
1.291356861E1,5.734008312E0,4.531707764E-1,-2.042869329E0,6.103894673E0
1.292354548E1,5.712127686E0,3.906250000E-1,-1.047649860E0,5.820529256E0
1.293355153E1,5.605828285E0,4.297904968E-1,-8.168082237E-1,5.681303223E0
1.294355220E1,5.426745415E0,4.697628021E-1,1.431701183E-1,5.448921046E0
1.295355663E1,5.184723854E0,1.586483955E0,3.158653975E-1,5.431211995E0
1.296355325E1,4.903772831E0,1.759125710E0,4.652463198E-1,5.230484239E0
1.297355038E1,4.662822723E0,2.955005646E0,1.850055337E0,5.822085440E0
1.298357694E1,4.457902431E0,3.803641319E0,1.921882749E0,6.167188555E0
1.299354726E1,4.319277763E0,4.947748184E0,1.922657728E0,6.843462956E0
1.300355845E1,4.233064651E0,5.091945648E0,1.913657665E0,6.892665122E0
1.301354934E1,4.148290634E0,5.850459099E0,1.701166153E0,7.370899072E0
1.302354934E1,4.043207645E0,5.814103127E0,1.632889867E0,7.267575424E0
1.303354804E1,3.875882626E0,5.707288742E0,1.565299392E0,7.074303718E0
1.304354674E1,3.065054417E0,5.579175949E0,1.501683474E0,6.540398772E0
1.305355377E1,2.223323345E0,5.478678703E0,1.437638044E0,6.084890318E0
1.306354700E1,1.264038324E0,5.419290543E0,-2.420458794E-1,5.570016973E0
1.307356377E1,2.334579229E-1,5.409776688E0,-4.686001539E-1,5.435050369E0
1.308359371E1,-8.700878620E-1,5.478812218E0,-1.563829660E0,5.763679329E0
1.309357486E1,-1.965517759E0,6.207879066E0,-1.754754424E0,6.743899885E0
1.310356710E1,-3.041346073E0,6.934104919E0,-1.894281626E0,7.805120105E0
1.311355351E1,-3.804053545E0,7.812594414E0,-1.955121756E0,8.906736547E0
1.312354882E1,-3.919281244E0,8.606813431E0,-1.942064643E0,9.654512830E0
1.313355455E1,-4.560094357E0,8.708325386E0,-1.816964865E0,9.996537045E0
1.314354700E1,-4.503408432E0,8.752982140E0,-8.306832910E-1,9.878533220E0
1.315355377E1,-4.364431858E0,8.716926575E0,-7.072433829E-1,9.774112111E0
1.316355194E1,-3.449463606E0,7.522745132E0,7.117961049E-1,8.306452142E0
1.317354465E1,-1.413700819E0,6.465657234E0,7.297850847E-1,6.658517834E0
1.318357460E1,-1.209321499E0,5.098765373E0,7.470471263E-1,5.293198110E0
1.319354960E1,-9.032678604E-2,3.580733299E0,7.640860677E-1,3.662463298E0
1.320355611E1,8.581397533E-1,2.146926880E0,5.769670606E-1,2.382979197E0
1.321354830E1,1.140395880E0,-2.879428864E-2,-4.276544452E-1,1.218285762E0
1.322355142E1,2.109995365E0,-2.191925049E-2,-1.296206474E0,2.476431327E0
1.323354934E1,2.208712101E0,-9.359359741E-3,-2.130632877E0,3.068891201E0
1.324354778E1,2.287615776E0,-2.086475372E0,-2.883042097E0,4.230661550E0
1.325357377E1,2.295242310E0,-3.396975994E0,-3.061808109E0,5.116859590E0
1.326353986E1,2.243685722E0,-4.711089134E0,-3.878452778E0,6.501606140E0
1.327355684E1,2.161935806E0,-6.045068741E0,-3.955307484E0,7.540641869E0
1.328356903E1,2.041476727E0,-7.345317364E0,-3.955026627E0,8.588570895E0
1.329355194E1,1.924884796E0,-8.529896736E0,-3.872133493E0,9.563353889E0
1.330355793E1,1.826482534E0,-9.799619675E0,-3.686236382E0,1.062811944E1
1.331354856E1,1.720773220E0,-9.727495193E0,-2.626668215E0,1.022177133E1
1.332355194E1,1.566435575E0,-9.654064178E0,-2.470487356E0,1.008751621E1
1.333355611E1,6.511837244E-1,-1.066199112E1,-2.306664705E0,1.092807380E1
1.334354882E1,-1.223831773E0,-9.656600952E0,-1.493368864E0,9.847733583E0
1.335356444E1,-1.272098422E0,-9.575386047E0,-6.092798114E-1,9.678712427E0
1.336354830E1,-2.852784634E0,-9.491002083E0,8.150931597E-1,9.943936724E0
1.337355012E1,-3.104323387E0,-8.358203888E0,9.465584159E-1,8.966179162E0
1.338357226E1,-4.058994293E0,-8.173557281E0,2.162209511E0,9.378572561E0
1.339354533E1,-4.123910427E0,-6.986603737E0,3.275745392E0,8.749272933E0
1.340355663E1,-4.056008339E0,-5.687997818E0,4.628681183E0,8.380287126E0
1.341354882E1,-2.769055367E0,-3.488562584E0,6.425874710E0,7.818542212E0
1.342354934E1,-1.533429861E0,-6.291732788E-1,8.325829506E0,8.489210983E0
1.343355950E1,9.361925125E-1,2.321303368E0,1.094598484E1,1.122851236E1
1.344354200E1,2.717581272E0,4.858666420E0,1.077787971E1,1.213072869E1
1.345355502E1,4.015076637E0,6.614915848E0,1.191481876E1,1.420707071E1
1.346356424E1,4.766302109E0,7.526765823E0,1.178416252E1,1.477282390E1
1.347354861E1,4.896015644E0,7.541578293E0,1.149904251E1,1.459706652E1
1.348358267E1,4.980834961E0,7.373653412E0,1.100725079E1,1.415411783E1
1.349356002E1,4.894588947E0,5.284256935E0,9.147331238E0,1.164276776E1
1.350355819E1,3.643030643E0,2.977713585E0,6.304058552E0,7.866359049E0
1.351356106E1,2.204125881E0,3.958396912E-1,2.809782982E0,3.593012714E0
1.352355950E1,-4.659918547E-1,5.079269409E-1,-3.810325623E0,3.872172457E0
1.353355924E1,-1.657293439E0,2.760699272E0,-6.160238266E0,6.951015574E0
1.354355767E1,-3.170014858E0,5.495289803E0,-7.944094658E0,1.016640763E1
1.355355819E1,-4.008041859E0,7.569119453E0,-9.237358093E0,1.259701367E1
1.356355689E1,-4.148407459E0,8.838431358E0,-9.469046593E0,1.360110278E1
1.357355741E1,-4.742066383E0,8.907637596E0,-9.502058983E0,1.386081982E1
1.358359804E1,-4.660932064E0,8.786838531E0,-9.284616470E0,1.360650293E1
1.359355898E1,-4.457680702E0,7.380869865E0,-8.090262413E0,1.182372628E1
1.360355976E1,-3.166706562E0,4.976830482E0,-6.770591736E0,8.979854373E0
1.361356710E1,-1.149782181E0,1.426182747E0,-6.424084187E0,6.680183675E0
1.362356773E1,-9.615156054E-1,-1.975242615E0,-6.119257450E0,6.501646514E0
1.363360075E1,1.004712105E0,-4.275747299E0,-5.846096992E0,7.312202912E0
1.364354627E1,1.289999366E0,-5.198298454E0,-5.562584877E0,7.721965792E0
1.365354601E1,2.179942131E0,-5.157875538E0,-4.548281670E0,7.214062233E0
1.366355559E1,2.297857761E0,-4.050110340E0,-4.209982872E0,6.277539314E0
1.367355871E1,2.294791698E0,-2.724857330E0,-2.921922684E0,4.607444908E0
1.368357512E1,2.151008606E0,-1.375954628E0,-2.607734919E0,3.649708285E0
1.369354700E1,1.297561288E0,1.662702560E-1,-1.560845017E0,2.036553034E0
1.370354830E1,5.044900179E-1,2.028760910E-1,-1.437860012E0,1.537241133E0
1.371354804E1,-5.294352174E-1,2.209749222E-1,-1.461327910E0,1.569907904E0
1.372355351E1,-7.085525393E-1,-8.899049759E-1,-2.536209106E0,2.779628428E0
1.373356236E1,-6.920355558E-1,-2.180678844E0,-2.614605427E0,3.474253153E0
1.374354960E1,-6.773066521E-1,-3.466489792E0,-3.370248318E0,4.881994418E0
1.375354726E1,-6.618531346E-1,-4.434894562E0,-3.393249035E0,5.623208902E0
1.376354778E1,-6.427028775E-1,-4.534047127E0,-3.426365376E0,5.719320766E0
1.377354778E1,-7.992619276E-1,-4.532221794E0,-3.449731112E0,5.751564897E0
1.378359127E1,-7.215895057E-1,-4.394335747E0,-3.451560974E0,5.634194816E0
1.379359017E1,-6.450121403E-1,-3.129086494E0,-3.414628267E0,4.676206706E0
1.380355361E1,4.801885486E-1,-1.989157200E0,-3.338420630E0,3.915658273E0
1.381357142E1,1.626851320E0,-9.851312637E-1,-3.234372139E0,3.752105004E0
1.382354653E1,2.779080391E0,2.304677963E-1,-3.124718666E0,4.188110549E0
1.383355689E1,3.639088869E0,2.548656464E-1,-2.974972963E0,4.707269742E0
1.384355064E1,3.783112526E0,2.802963257E-1,-2.802737236E0,4.716549844E0
1.385355455E1,3.889829874E0,3.066749573E-1,-2.616944313E0,4.698214929E0
1.386354934E1,3.872803211E0,3.372840881E-1,-2.427286148E0,4.583021199E0
1.387354908E1,3.785736561E0,2.703971863E-1,-1.753230453E0,4.180757463E0
1.388359335E1,3.578228474E0,3.266935349E-1,-1.650927901E0,3.954239574E0
1.389355377E1,3.405889034E0,1.550881386E0,-1.585606337E0,4.064413936E0
1.390355377E1,3.284511566E0,2.480834007E0,-1.540879726E0,4.395095441E0
1.391355325E1,3.237440109E0,3.401494026E0,-1.496095419E0,4.928436017E0
1.392354778E1,3.272628307E0,4.313894272E0,-1.445267200E0,5.604335563E0
1.393355246E1,4.293486595E0,5.124713898E0,-1.364578009E0,6.823400385E0
1.394355090E1,4.875436306E0,5.269212723E0,-1.268318772E0,7.289932400E0
1.395354882E1,5.496828556E0,5.364032745E0,-1.176654458E0,7.769973435E0
1.396354726E1,5.545666218E0,5.376208305E0,-1.083244562E0,7.799451796E0
1.397357470E1,5.554556847E0,5.320641518E0,-9.931927919E-1,7.755563155E0
1.398358356E1,5.458444118E0,5.245120049E0,-9.314684868E-1,7.627157404E0
1.399366580E1,5.195420265E0,5.178512573E0,-9.157762527E-1,7.392430612E0
1.400354783E1,3.553150654E0,5.114932060E0,-9.493446350E-1,6.299894030E0
1.401354757E1,2.035468817E0,5.068633080E0,-1.002454281E0,5.553295345E0
1.402354908E1,2.073357105E-1,5.042170525E0,-1.038393617E0,5.152158091E0
1.403355689E1,-2.159125566E0,5.067124367E0,-1.049309611E0,5.607015536E0
1.404355012E1,-3.818714142E0,5.156562805E0,-1.071099758E0,6.505380262E0
1.405355246E1,-5.448061943E0,5.899272919E0,-1.086989403E0,8.103353989E0
1.406354804E1,-6.782754421E0,6.903129578E0,-9.430885315E-1,9.723598690E0
1.407355168E1,-6.848885059E0,6.949554443E0,-1.303833723E-1,9.758100909E0
1.408359309E1,-6.778054237E0,6.936499596E0,-5.501616001E-2,9.698457231E0
1.409355090E1,-6.547986984E0,6.843701363E0,4.119551182E-2,9.471751631E0
1.410354856E1,-5.491744041E0,6.666104317E0,1.177965283E0,8.716868795E0
1.411355012E1,-4.382290363E0,5.620605469E0,1.203162074E0,7.227950860E0
1.412354986E1,-3.141343594E0,5.406572342E0,1.224897861E0,6.371768894E0
1.413355273E1,-1.206705451E0,4.100502968E0,1.221986413E0,4.445617328E0
1.414354648E1,-9.825356603E-1,3.153967857E0,1.218247294E0,3.520939653E0
1.415359694E1,4.023702741E-1,2.297166824E0,1.013646126E0,2.542903011E0
1.416355220E1,1.389745712E0,1.582396507E0,-4.908070564E-1,2.162466975E0
1.417364549E1,2.411498547E0,1.422078133E0,-1.293959260E0,3.084146887E0
1.418358741E1,3.323883057E0,-4.280757904E-2,-1.521209717E0,3.655695565E0
1.419355012E1,3.528179646E0,-3.041839600E-2,-2.562170982E0,4.360469818E0
1.420355064E1,4.347684383E0,-1.120603561E0,-2.708662033E0,5.243563850E0
1.421354830E1,4.330009460E0,-2.056886673E0,-2.836661577E0,5.570135871E0
1.422354752E1,4.182129383E0,-3.126917839E0,-2.933253050E0,5.989306705E0
1.423355898E1,3.352342129E0,-4.237357140E0,-2.955868959E0,6.158778660E0
1.424354934E1,2.020223856E0,-6.363854408E0,-2.879861355E0,7.271419998E0
1.425355116E1,1.252102613E0,-7.216200829E0,-2.694223166E0,7.803855061E0
1.426355142E1,3.990147114E-1,-7.879157066E0,-1.934281111E0,8.122916486E0
1.427355064E1,-8.428049684E-1,-7.984939098E0,-1.758590460E0,8.219623655E0
1.428360116E1,-8.764533401E-1,-9.605064392E0,-1.030349374E0,9.699848054E0
1.429354856E1,-1.114965200E0,-9.720261574E0,-8.108404875E-1,9.817540158E0
1.430354752E1,-2.472523689E0,-9.632344246E0,3.246364594E-1,9.949915472E0
1.431354908E1,-2.634671211E0,-9.544925690E0,1.463919878E0,1.000950350E1
1.432354778E1,-3.394854546E0,-9.460075378E0,1.604003191E0,1.017796098E1
1.433364569E1,-3.455589771E0,-9.376124382E0,1.747625351E0,1.014430892E1
1.434354517E1,-3.432636738E0,-9.498784065E0,3.311813116E0,1.062911096E1
1.435356856E1,-3.311274052E0,-9.417009354E0,4.328326225E0,1.088021181E1
1.436355017E1,-2.435631752E0,-8.202732086E0,5.726891518E0,1.029632955E1
1.437354778E1,-1.071454763E0,-5.571972847E0,7.370174885E0,9.301310367E0
1.438359908E1,1.034467220E-1,-1.882743835E0,9.131299973E0,9.323951135E0
1.439354705E1,1.981352210E0,1.899116516E0,1.165912914E1,1.197779999E1
1.440354960E1,3.662977934E0,4.937594414E0,1.156458187E1,1.309720580E1
1.441354934E1,4.881832600E0,6.952188492E0,1.138930321E1,1.420849893E1
1.442355012E1,5.736972809E0,8.151725769E0,1.112369537E1,1.493653537E1
1.443355533E1,5.761145592E0,7.973988533E0,1.062121964E1,1.447707146E1
1.444354814E1,5.618726730E0,5.838901520E0,8.333712578E0,1.162383871E1
1.445354804E1,4.462862492E0,3.159076691E0,5.444962978E0,7.716510156E0
1.446355090E1,3.084615946E0,2.769412994E-1,1.885915518E0,3.626048725E0
1.447355038E1,1.725259662E0,3.450374603E-1,-9.477021098E-1,1.998427141E0
1.448359153E1,4.019019604E-1,3.222360611E-1,-4.641109943E0,4.669610559E0
1.449354882E1,-1.650596738E0,3.492134094E0,-6.242792130E0,7.341111884E0
1.450355090E1,-2.794027805E0,6.233501434E0,-7.547979355E0,1.018013378E1
1.451367705E1,-3.982047558E0,8.214413643E0,-8.538349152E0,1.249946801E1
1.452354965E1,-4.186220646E0,9.213068962E0,-8.713164330E0,1.335381278E1
1.453357028E1,-5.155166149E0,9.222014427E0,-8.641986847E0,1.364936719E1
1.454355434E1,-5.179577827E0,9.016227722E0,-8.304487228E0,1.330732494E1
1.455354648E1,-5.112921715E0,7.004923820E0,-6.518976212E0,1.084933072E1
1.456354778E1,-4.874292374E0,3.925417900E0,-5.148736000E0,8.104141795E0
1.457354465E1,-3.562905550E0,2.547845840E-1,-4.952682495E0,6.106412616E0
1.458359335E1,-1.288541555E0,-3.164708138E0,-4.806775570E0,5.897525610E0
1.459354882E1,-1.115478158E0,-5.365784645E0,-4.675629139E0,7.203988078E0
1.460355064E1,1.227022409E-1,-6.024668694E0,-4.397570610E0,7.459913939E0
1.461355012E1,2.686562538E-1,-4.291646957E0,-3.455168962E0,5.516212682E0
1.462354778E1,4.103764892E-1,-2.679089546E0,-3.185705662E0,4.182660663E0
1.463355741E1,4.844927192E-1,-1.028703690E0,-2.914633751E0,3.128586642E0
1.464354908E1,5.473560691E-1,1.296558380E-1,-2.070512295E0,2.145560641E0
1.465354700E1,5.561019182E-1,1.266661644E0,-1.894453406E0,2.345769548E0
1.466354856E1,5.427556038E-1,1.357860565E0,-1.732343912E0,2.267021039E0
1.467354908E1,4.972886443E-1,1.300845146E0,-1.647890568E0,2.157553571E0
1.468359361E1,4.148715734E-1,1.135635376E-1,-1.647724509E0,1.702941913E0
1.469354976E1,-5.879752040E-1,-1.344151497E0,-2.261071205E0,2.695348045E0
1.470356278E1,-5.393291116E-1,-2.716930866E0,-2.247787476E0,3.567231105E0
1.471354892E1,-4.901952147E-1,-3.825693130E0,-2.239736795E0,4.460116612E0
1.472356111E1,-6.401115656E-1,-4.605619431E0,-2.232192755E0,5.157921834E0
1.473354934E1,-5.900292993E-1,-4.662678719E0,-2.214548349E0,5.195472240E0
1.474355924E1,-5.400501490E-1,-4.636609077E0,-2.207667351E0,5.163680183E0
1.475356054E1,-4.869509041E-1,-4.479485035E0,-2.239915371E0,5.031910992E0
1.476355976E1,-4.005937576E-1,-3.144639969E0,-2.888640881E0,4.288762296E0
1.477355950E1,1.709494591E0,-1.971908569E0,-2.838102818E0,3.855596292E0
1.478360220E1,4.106365681E0,2.741613388E-1,-2.670976400E0,4.906273380E0
1.479355871E1,4.913166046E0,3.023471832E-1,-2.477010727E0,5.510553199E0
1.480355950E1,5.060411930E0,3.312177658E-1,-1.590419531E0,5.314782065E0
1.481356028E1,5.693519115E0,2.606210709E-1,-1.423704267E0,5.874607825E0
1.482356028E1,5.658793926E0,2.933168411E-1,-1.241328120E0,5.800765378E0
1.483356132E1,5.562713623E0,3.267841339E-1,-5.198804140E-1,5.596503048E0
1.484355924E1,5.422655106E0,3.618345261E-1,-4.481887817E-1,5.453162917E0
1.485355845E1,5.254218102E0,1.844336510E0,-3.694721460E-1,5.580761121E0
1.486355845E1,5.089390755E0,1.926316261E0,-2.944005728E-1,5.449703138E0
1.487354710E1,4.909470558E0,2.610808372E0,-2.071348429E-1,5.564362170E0
1.488359470E1,4.738302708E0,3.311449051E0,-1.533168554E-1,5.782794603E0
1.489354757E1,4.564712524E0,4.154255867E0,-1.610195637E-1,6.174169542E0
1.490356314E1,4.390781403E0,4.893817902E0,-1.839456558E-1,6.577404578E0
1.491354757E1,4.215339661E0,5.009509087E0,-2.229492664E-1,6.550875981E0
1.492355012E1,3.970099449E0,5.076881409E0,-2.312941551E-1,6.449024070E0
1.493355168E1,2.756626129E0,5.065496445E0,-2.323887348E-1,5.771676219E0
1.494354960E1,1.868200779E0,5.024323463E0,-2.496315241E-1,5.366219928E0
1.495354882E1,9.500076771E-1,4.958406448E0,-2.970641851E-1,5.057326984E0
1.496355611E1,-1.039974213E0,4.811910629E0,-3.704681396E-1,4.936929907E0
1.497354934E1,-2.242493629E0,4.756420135E0,-4.115244150E-1,5.274624397E0
1.498354830E1,-3.357056618E0,4.740550041E0,-4.490691423E-1,5.826174296E0
1.499355351E1,-4.406304359E0,4.776252747E0,-5.204386711E-1,6.519123010E0
1.500354882E1,-5.157106400E0,4.888121605E0,-6.021616459E-1,7.131064289E0
1.501355533E1,-5.237512112E0,5.849126816E0,-6.438523531E-1,7.877713087E0
1.502354856E1,-5.797820091E0,5.959465981E0,-6.110677719E-1,8.336867302E0
1.503354882E1,-5.670753956E0,6.777795792E0,-4.969872236E-1,8.851155999E0
1.504354726E1,-5.465935707E0,6.786115646E0,4.508215189E-1,8.725311385E0
1.505354762E1,-5.187970161E0,6.746203423E0,1.425370336E0,8.628903500E0
1.506357023E1,-4.146636009E0,6.665388107E0,1.454341292E0,7.983551679E0
1.507355424E1,-3.794033527E0,6.555671692E0,1.478529811E0,7.717355256E0
1.508354965E1,-2.459236622E0,6.395725250E0,1.501844168E0,7.014890031E0
1.509354830E1,-8.274108768E-1,5.321517944E0,1.523801088E0,5.596885897E0
1.510355220E1,-8.174749613E-1,4.432070732E0,1.315266609E0,4.694831471E0
1.511355689E1,-6.177389026E-1,3.424245834E0,1.277156591E0,3.706506420E0
1.512354856E1,1.070273757E0,2.401944160E0,1.105455160E-1,2.631927426E0
1.513354986E1,1.888830423E0,1.395829201E0,-8.415595293E-1,2.494843075E0
1.514355220E1,2.817665339E0,-1.357498169E-1,-1.776323080E0,3.333615103E0
1.515354778E1,3.627589941E0,-1.749875069E0,-2.688503981E0,4.842470980E0
1.516355246E1,3.687621355E0,-2.856218338E0,-2.860618591E0,5.471715743E0
1.517354934E1,3.656923532E0,-3.953970909E0,-3.544284821E0,6.447397193E0
1.518354986E1,3.530645847E0,-4.983855247E0,-3.574767113E0,7.076950836E0
1.519354960E1,2.794458628E0,-5.957257271E0,-3.530879498E0,7.467598224E0
1.520354674E1,2.602168083E0,-6.821324825E0,-3.431425095E0,8.066996299E0
1.521355533E1,1.581635237E0,-7.571829796E0,-3.314409971E0,8.415431655E0
1.522354830E1,1.353438616E0,-8.220950127E0,-3.120938778E0,8.896970042E0
1.523354564E1,-5.053132772E-1,-8.318315506E0,-2.156638145E0,8.608182297E0
1.524356726E1,-7.343086004E-1,-9.776478767E0,-1.353152514E0,9.896957509E0
1.525354913E1,-7.677016854E-1,-9.690303802E0,-4.244484901E-1,9.729928581E0
1.526353642E1,-8.060329556E-1,-9.600488663E0,4.936153889E-1,9.646902500E0
1.527354809E1,-2.639163256E0,-9.507330894E0,1.810182571E0,1.003151456E1
1.528354783E1,-2.775702953E0,-9.413419724E0,1.975928426E0,1.001105843E1
1.529355273E1,-2.885758638E0,-9.518733978E0,3.497487068E0,1.054354377E1
1.530355220E1,-2.856179476E0,-9.433215141E0,4.494400978E0,1.083249506E1
1.531355429E1,-2.713580847E0,-9.356928825E0,5.578299522E0,1.122644483E1
1.532354882E1,-8.675783277E-1,-5.220612526E0,8.166396141E0,9.731264729E0
1.533355090E1,1.186748743E0,-1.891744137E0,9.750543594E0,1.000300799E1
1.534355090E1,2.817436934E0,1.755842209E0,1.182991791E1,1.228689914E1
1.535354804E1,4.095602036E0,4.948771477E0,1.173017502E1,1.337390374E1
1.536355637E1,4.902467251E0,7.182046890E0,1.157732964E1,1.447931435E1
1.537354830E1,4.954164505E0,8.476361275E0,1.134537315E1,1.500366417E1
1.538354856E1,4.920516491E0,8.541688919E0,1.091756916E1,1.470935921E1
1.539355168E1,4.723828793E0,8.424819946E0,9.132698059E0,1.329279216E1
1.540354804E1,3.349411011E0,6.731809616E0,7.311264038E0,1.048763065E1
1.541356773E1,2.133300781E0,4.196684837E0,5.182378769E0,7.001441677E0
1.542355778E1,8.119946718E-1,1.576257706E0,2.832523346E0,3.341722940E0
1.543355981E1,-3.018095493E-1,1.643142700E-1,2.763592601E-1,4.409791651E-1
1.544355491E1,-1.405355692E0,-1.043511391E0,-1.258131981E0,2.155652274E0
1.545354757E1,-1.403897047E0,2.910985947E-1,-4.182352543E0,4.421282405E0
1.546355507E1,-3.185139656E0,2.369885445E0,-5.473613262E0,6.761798118E0
1.547354986E1,-4.041896343E0,4.702971458E0,-6.684280872E0,9.117810997E0
1.548355038E1,-4.095664024E0,6.383171082E0,-7.567409992E0,1.071377762E1
1.549354986E1,-4.073810101E0,7.217733383E0,-7.656865120E0,1.128358043E1
1.550354595E1,-3.839410305E0,7.170362473E0,-7.504464149E0,1.106671368E1
1.551355533E1,-2.733484745E0,5.891055107E0,-7.156048775E0,9.663617500E0
1.552355012E1,-1.011583805E0,3.489294052E0,-6.093208790E0,7.094058650E0
1.553355090E1,-8.230792284E-1,8.187866211E-2,-5.808652401E0,5.867248610E0
1.554354960E1,1.507396936E0,-2.104207993E0,-5.483688354E0,6.063891058E0
1.555354778E1,2.440396309E0,-3.686366081E0,-4.573738098E0,6.361124839E0
1.556355325E1,2.665448666E0,-3.790456772E0,-4.252463818E0,6.289326486E0
1.557354726E1,2.816110611E0,-3.724163532E0,-3.047428846E0,5.575544418E0
1.558355038E1,2.823542833E0,-2.696651936E0,-2.058216095E0,4.413680923E0
1.559357616E1,2.740400314E0,-1.402369499E0,-1.094497204E0,3.267163636E0
1.560354825E1,1.786580801E0,8.753299713E-2,-7.746077776E-1,1.949243493E0
1.561354965E1,1.620790958E0,1.133232117E-1,5.365887880E-1,1.711061953E0
1.562356168E1,7.417241335E-1,4.059505463E-2,4.941611290E-1,8.921871273E-1
1.563356293E1,-3.859282434E-1,6.660747528E-2,6.119350195E-1,7.265271040E-1
1.564355429E1,-3.785031438E-1,9.094238281E-2,-7.885688543E-1,8.794179808E-1
1.565354856E1,-3.698086441E-1,1.152906418E-1,-1.467998505E0,1.518245690E0
1.566355403E1,-1.655807018E0,-2.097432137E0,-1.554331660E0,3.091418018E0
1.567354856E1,-1.786262035E0,-3.385455132E0,-2.300703526E0,4.466013347E0
1.568355038E1,-1.931973338E0,-4.431818485E0,-2.453002691E0,5.421324402E0
1.569354517E1,-1.874664783E0,-4.497970104E0,-2.491510153E0,5.472999721E0
1.570354882E1,-1.710516930E0,-4.480829239E0,-2.514595032E0,5.415430455E0
1.571355325E1,-4.071910977E-1,-4.346063614E0,-2.535381317E0,5.047992863E0
1.572354960E1,-3.272128701E-1,-3.209618092E0,-2.571504354E0,4.125694027E0
1.573354986E1,1.713149071E0,-2.234383583E0,-3.096767187E0,4.185369368E0
1.574354830E1,3.088618279E0,-1.211750984E0,-3.019920349E0,4.486404154E0
1.575354804E1,4.354751110E0,2.588691711E-1,-2.870486259E0,5.222122351E0
1.576355924E1,5.310153484E0,1.894769669E-1,-2.072685242E0,5.703477506E0
1.577356444E1,5.460396767E0,2.209844589E-1,-1.853548765E0,5.770650744E0
1.578354882E1,6.133509159E0,2.529850006E-1,-1.034357309E0,6.225257509E0
1.579353981E1,6.092829704E0,2.855119705E-1,-8.973261118E-1,6.165167073E0
1.580356835E1,5.980642319E0,3.185262680E-1,-7.590687275E-1,6.037029639E0
1.581355356E1,5.794447422E0,1.533040047E0,-6.242698431E-1,6.026238093E0
1.582355116E1,5.518639088E0,1.610424042E0,3.821694851E-2,5.748939338E0
1.583355012E1,4.623429775E0,1.744547844E0,9.942042828E-2,4.942614135E0
1.584354830E1,4.393898487E0,2.748835564E0,1.069445610E-1,5.184002123E0
1.585354934E1,4.223971844E0,3.499258041E0,1.121352911E-1,5.486284654E0
1.586355325E1,4.250078678E0,4.459586143E0,1.884998083E-1,6.163327796E0
1.587355038E1,4.845593452E0,5.111520767E0,1.927297115E-1,7.045889951E0
1.588355325E1,4.745212078E0,5.075599670E0,1.614617109E-1,6.950166873E0
1.589354856E1,4.586760044E0,5.026125908E0,8.302009106E-2,6.804939506E0
1.590354804E1,4.354179382E0,4.982394218E0,-6.320226192E-2,6.617184051E0
1.591356184E1,3.206606865E0,4.966348648E0,-9.709684849E-1,5.990803475E0
1.592355871E1,2.046181917E0,4.961815834E0,-1.142782688E0,5.487479301E0
1.593355845E1,5.720424652E-1,4.981090546E0,-1.282368779E0,5.175226110E0
1.594355819E1,-2.063629866E0,5.040487289E0,-1.347674251E0,5.610820459E0
1.595355819E1,-2.263181925E0,5.154740334E0,-1.372655392E0,5.794611562E0
1.596356476E1,-4.564126015E0,6.149434090E0,-1.352537155E0,7.776640834E0
1.597356330E1,-5.905731201E0,6.301033974E0,-1.263781548E0,8.727991405E0
1.598358340E1,-6.790441990E0,7.455403328E0,-1.445387602E-1,1.008533751E1
1.599355981E1,-6.845286369E0,7.535086632E0,1.376226068E0,1.027275397E1
1.600354752E1,-6.787999153E0,7.572718620E0,1.186481714E0,1.023868833E1
1.601356236E1,-6.587597847E0,7.517117500E0,1.201702595E0,1.006715402E1
1.602355898E1,-6.294689655E0,7.389326096E0,1.212972641E0,9.782461890E0
1.603355767E1,-4.901988029E0,6.627945900E0,1.216954708E0,8.333074598E0
1.604355845E1,-3.737068415E0,5.885490417E0,1.177095771E0,7.070377093E0
1.605355741E1,-1.294319510E0,3.903800011E0,9.798294902E-1,4.227881662E0
1.606355793E1,-1.081357956E0,2.846126556E0,-1.612620950E-1,3.048897648E0
1.607355663E1,3.518797755E-1,1.934219360E0,-1.028731823E0,2.218854000E0
1.608355845E1,1.276360512E0,1.156577110E0,-1.804266930E0,2.494422964E0
1.609355950E1,2.251786947E0,-1.856184006E-1,-1.985322118E0,3.007740441E0
1.610356262E1,3.153377056E0,-1.752061844E-1,-2.136317253E0,3.812916924E0
1.611355819E1,3.355058670E0,-1.308219910E0,-2.824084759E0,4.576386428E0
1.612355845E1,4.188768387E0,-2.428992271E0,-2.887635946E0,5.637750031E0
1.613355976E1,4.238086700E0,-3.609524727E0,-2.921947241E0,6.287115659E0
1.614359819E1,4.224822044E0,-4.817606926E0,-2.939639091E0,7.049818139E0
1.615356752E1,4.123553753E0,-6.016658783E0,-2.933502913E0,7.861890218E0
1.616355632E1,3.926382303E0,-7.188950539E0,-2.900805712E0,8.689773393E0
1.617354887E1,2.868738651E0,-8.307629585E0,-2.842460632E0,9.237204838E0
1.618354804E1,1.968160152E0,-9.741345406E0,-2.740071774E0,1.030899889E1
1.619356054E1,9.076071382E-1,-9.862154961E0,-2.616909266E0,1.024373298E1
1.620355012E1,-1.015179634E0,-9.780708313E0,-2.438653231E0,1.013113391E1
1.621354960E1,-1.059928417E0,-9.696426392E0,-1.467728138E0,9.863993051E0
1.622355064E1,-1.117935538E0,-9.607188225E0,-6.100130081E-1,9.691231156E0
1.623355090E1,-3.081588745E0,-9.673491478E0,1.312002540E0,1.023689295E1
1.624355377E1,-3.208451748E0,-9.577371597E0,2.540885210E0,1.041519596E1
1.625354804E1,-3.257586241E0,-7.777212620E0,3.627463579E0,9.179073824E0
1.626355403E1,-3.160773754E0,-7.579174995E0,4.950510025E0,9.588635661E0
1.627354804E1,-1.278049946E0,-6.354416370E0,6.514744759E0,9.189881302E0
1.628354601E1,-1.427346706E0,-5.327399254E0,8.101091385E0,9.800315457E0
1.629355377E1,-1.376342297E0,-3.753924370E0,9.440027237E0,1.025184766E1
1.630354726E1,8.148876429E-1,-1.680457115E0,1.044847679E1,1.061407769E1
1.631354856E1,2.306128263E0,4.128751755E-1,1.148246574E1,1.171903209E1
1.632358918E1,3.508014679E0,2.538801193E0,1.132107449E1,1.212099031E1
1.633354736E1,4.300897121E0,4.176457405E0,1.097275734E1,1.250367610E1
1.634356877E1,4.400012016E0,5.435199738E0,1.063504887E1,1.272814858E1
1.635354444E1,4.419694901E0,6.433806419E0,9.007431030E0,1.191895053E1
1.636354674E1,4.303409576E0,6.576800346E0,7.600160599E0,1.093325559E1
1.637355220E1,3.394776821E0,6.629839897E0,5.996529579E0,9.562303787E0
1.638355038E1,2.299289942E0,6.540223122E0,4.084528446E0,8.046404498E0
1.639355012E1,8.833991289E-1,6.447855949E0,1.951133847E0,6.794274329E0
1.640354908E1,-1.376347661E0,6.484528542E0,-1.519633532E-1,6.630726668E0
1.641354882E1,-2.694956541E0,7.983021736E0,-3.013958454E0,8.948484361E0
1.642354830E1,-2.824512959E0,8.012931824E0,-4.545037746E0,9.635471861E0
1.643354830E1,-3.505559444E0,7.850028992E0,-5.886763573E0,1.041949555E1
1.644355481E1,-3.538271427E0,6.216555595E0,-6.106739998E0,9.405168875E0
1.645354856E1,-3.526118755E0,4.726158142E0,-6.819399834E0,9.015225918E0
1.646354752E1,-3.384534836E0,2.717892647E0,-6.778250217E0,8.049018108E0
1.647354856E1,-3.161450863E0,1.410923004E-1,-6.694652081E0,7.404933833E0
1.648354960E1,-2.093269825E0,-2.703993797E0,-6.634701729E0,7.464089231E0
1.649355455E1,-7.101715803E-1,-5.004045486E0,-7.189176083E0,8.788007035E0
1.650362887E1,-5.387042761E-1,-6.318617821E0,-6.991565704E0,9.439127315E0
1.651355043E1,8.163019419E-1,-6.375495911E0,-6.746524811E0,9.318202294E0
1.652358210E1,1.712504625E0,-5.681640625E0,-6.395109177E0,8.724169511E0
1.653354575E1,2.530541658E0,-4.053565979E0,-5.071258545E0,6.967976856E0
1.654355455E1,2.693492651E0,-2.005648613E0,-3.952502251E0,5.186502006E0
1.655355246E1,2.736327648E0,7.989406586E-2,-2.677561998E0,3.829257149E0
1.656355064E1,2.711363316E0,2.013793945E0,-1.446225286E0,3.674020231E0
1.657355220E1,2.567259073E0,3.255478859E0,9.056568146E-2,4.146946334E0
1.658354595E1,1.689465046E0,3.402609825E0,2.793182731E-1,3.809207852E0
1.659355246E1,-2.339709997E-1,3.201839447E0,4.694384038E-1,3.244517019E0
1.660355194E1,-1.420681596E0,1.091325760E0,5.749724507E-1,1.881467892E0
1.661354726E1,-2.439928532E0,3.888130188E-3,-1.347728252E0,2.787407003E0
1.662355194E1,-2.627471209E0,-2.661578655E0,-2.215479136E0,4.346947629E0
1.663355090E1,-3.289513350E0,-4.048546791E0,-3.049448729E0,6.042413983E0
1.664355585E1,-3.279407501E0,-4.832356453E0,-3.188351154E0,6.653703144E0
1.665354700E1,-3.155593872E0,-4.850807667E0,-4.091553688E0,7.087236365E0
1.666354908E1,-1.947333097E0,-4.754138947E0,-4.140545845E0,6.598337913E0
1.667354934E1,-2.890134454E-1,-3.772279739E0,-4.171880245E0,5.631892043E0
1.668366580E1,-1.735853404E-1,-2.814156532E0,-4.141561508E0,5.010203647E0
