"Time (s)","Linear Acceleration x (m/s^2)","Linear Acceleration y (m/s^2)","Linear Acceleration z (m/s^2)","Absolute acceleration (m/s^2)"
8.197714100E-2,0.000000000E0,0.000000000E0,0.000000000E0,0.000000000E0
9.197766200E-2,1.999999955E-2,-2.409505844E-2,1.765727997E-3,3.136382660E-2
1.019787030E-1,3.999999911E-2,-3.763341904E-2,2.613210678E-2,6.082072970E-2
1.119771410E-1,5.999999866E-2,-4.945802689E-2,6.992006302E-2,1.045701271E-1
1.219760990E-1,7.999999821E-2,-5.545902252E-2,1.303758621E-1,1.627070014E-1
1.320083910E-1,-6.666666269E-2,-5.661296844E-2,1.887598038E-1,2.080378226E-1
1.419790680E-1,-2.285714261E-2,-4.947280884E-2,6.937437057E-1,6.958809791E-1
1.521203180E-1,1.499999966E-2,-4.413461685E-2,6.213364601E-1,6.230825475E-1
1.619758910E-1,4.888888821E-2,-4.870414734E-2,5.650196075E-1,5.692182132E-1
1.719792240E-1,7.999999821E-2,-6.105756760E-2,5.286178589E-1,5.381123182E-1
1.819810470E-1,-7.272727042E-2,-7.073020935E-2,5.117068291E-1,5.216664617E-1
1.919807870E-1,-3.000000119E-2,-6.477546692E-2,5.370178223E-1,5.417416383E-1
2.019831300E-1,9.230768308E-3,-2.803993225E-2,5.736975670E-1,5.744565634E-1
2.119839120E-1,4.571428522E-2,4.746723175E-2,1.140164852E0,1.142067784E0
2.219862550E-1,7.999999821E-2,6.522803307E-1,1.125515938E0,1.303324885E0
2.319787030E-1,-7.500000298E-2,7.150940895E-1,1.109102249E0,1.321776213E0
2.419865160E-1,-3.294117749E-2,1.340722084E0,1.091236115E0,1.728993084E0
2.519807870E-1,-1.629451513E0,1.366458893E0,1.039774895E0,2.367161585E0
2.619776620E-1,-1.636090755E0,1.983106613E0,9.605584145E-1,2.744481238E0
2.719794850E-1,-1.630700111E0,1.941778183E0,8.304529190E-1,2.668208653E0
2.819763600E-1,-1.610732675E0,1.886021137E0,6.768584251E-1,2.570928394E0
2.919797450E-1,-1.583423853E0,1.795022488E0,-1.361250877E-1,2.397470932E0
3.019768800E-1,-1.545445085E0,1.674815655E0,-1.840729713E-1,2.286326933E0
3.119862550E-1,-1.517513275E0,1.539860725E0,-2.001180649E-1,2.171189728E0
3.219765160E-1,-1.484062552E0,1.402303696E0,-1.799316406E-1,2.049700639E0
3.321282350E-1,-1.431995988E0,7.572827339E-1,-1.057281494E-1,1.623350883E0
3.419756300E-1,-1.336109400E0,6.562457085E-1,1.856279373E-2,1.488687790E0
3.519790160E-1,-1.236654282E0,5.404706001E-1,8.554592133E-1,1.597883834E0
3.619797450E-1,-1.134472847E0,4.361982346E-1,9.025278091E-1,1.513887046E0
3.719794850E-1,-9.596168399E-1,2.765603065E-1,9.803304672E-1,1.399427707E0
3.819774010E-1,-8.518853188E-1,2.014455795E-1,9.892792702E-1,1.320970247E0
3.919807870E-1,-7.437067628E-1,1.323637962E-1,9.939708710E-1,1.248438231E0
4.019828700E-1,-1.278104782E-1,6.855297089E-2,9.760541916E-1,9.867709020E-1
4.119841720E-1,-8.338683844E-2,-5.426716805E-1,9.056549072E-1,1.059082966E0
4.219792240E-1,8.143826127E-1,-6.040558815E-1,8.146510124E-1,1.300676293E0
4.319807870E-1,8.312911391E-1,-6.594562531E-1,7.158799171E-1,1.280004517E0
4.419800050E-1,8.483624458E-1,-7.001318932E-1,6.441631317E-1,1.274695904E0
4.519781820E-1,8.655839562E-1,-7.282104492E-1,5.956864357E-1,1.278424176E0
4.619792240E-1,8.829443455E-1,-7.550916672E-1,5.384612083E-1,1.280505609E0
4.719771410E-1,7.053115964E-1,-7.665777206E-1,4.547595978E-1,1.136623131E0
4.819792240E-1,7.275660634E-1,-7.984523773E-1,3.534131050E-1,1.136564736E0
4.919888600E-1,7.497156858E-1,-8.093934059E-1,-2.887339592E-1,1.140420359E0
5.019788070E-1,7.717676163E-1,-8.120388985E-1,-3.157410622E-1,1.163926477E0
5.119895890E-1,7.937282920E-1,-8.459920883E-1,-3.381128311E-1,1.208315978E0
5.219789120E-1,6.199516058E-1,-9.115166664E-1,-3.516907692E-1,1.157103722E0
5.319797450E-1,6.459100246E-1,-9.895911217E-1,-3.577270508E-1,1.234689836E0
5.419784430E-1,6.716202497E-1,-1.044691086E0,-3.621091843E-1,1.293667765E0
5.519815680E-1,6.970974207E-1,-1.089651108E0,-3.506612778E-1,1.340241651E0
5.619792240E-1,7.223554254E-1,-1.106646538E0,-3.160572052E-1,1.358806858E0
5.719839120E-1,5.513288975E-1,-1.114091396E0,-2.328014374E-1,1.264657939E0
5.819789640E-1,5.799571276E-1,-1.098930597E0,-1.704950333E-1,1.254219791E0
5.919781820E-1,6.477357149E-1,-1.070205927E0,-7.179021835E-2,1.253018802E0
6.019768800E-1,6.752313972E-1,-1.047647953E0,-7.693767548E-3,1.246420020E0
6.119800050E-1,5.060308576E-1,-1.045500278E0,5.222225189E-2,1.162697392E0
6.219836510E-1,5.364513397E-1,-1.056112528E0,1.084489822E-1,1.189501952E0
6.319776620E-1,5.665125251E-1,-1.043961048E0,1.517734528E-1,1.197424859E0
6.419802660E-1,5.962326527E-1,-9.881637096E-1,1.549983025E-1,1.164467847E0
6.519797450E-1,6.256287098E-1,-8.852787018E-1,1.719613075E-1,1.097588426E0
6.619781820E-1,4.579954743E-1,-1.489443779E-1,1.910753250E-1,5.181255273E-1
6.719792240E-1,4.899632633E-1,-5.494928360E-2,1.878833771E-1,5.276206843E-1
6.819887550E-1,5.215511322E-1,5.505609512E-2,1.510076523E-1,5.457564183E-1
6.919888070E-1,5.527769327E-1,7.073631287E-1,1.189842224E-1,9.055838881E-1
7.019766200E-1,5.836572647E-1,7.296752930E-1,9.119129181E-2,9.388278263E-1
7.119747970E-1,4.172382355E-1,7.380089760E-1,8.158206940E-2,8.517045426E-1
7.219818280E-1,4.504137635E-1,7.342982292E-1,8.766222000E-2,8.658816967E-1
7.319787030E-1,4.832018018E-1,7.347259521E-1,1.217627525E-1,8.877681983E-1
7.419781820E-1,5.156191587E-1,7.290678024E-1,1.848139763E-1,9.118986694E-1
7.519794850E-1,5.476817489E-1,7.471990585E-1,2.534074783E-1,9.604567045E-1
7.619800050E-1,3.822214603E-1,7.810063362E-1,3.218541145E-1,9.271753949E-1
7.719763600E-1,4.558896422E-1,9.313731194E-1,3.799972534E-1,1.104395385E0
7.819779220E-1,4.891884327E-1,1.594994068E0,3.768563271E-1,1.710360223E0
7.919787030E-1,5.221325755E-1,1.624037266E0,3.542146683E-1,1.742293746E0
8.019766200E-1,3.573676944E-1,1.622490406E0,2.905635834E-1,1.686598347E0
8.119781820E-1,3.922070563E-1,1.584870815E0,2.061114311E-1,1.645637809E0
8.219789640E-1,4.266659319E-1,1.525854111E0,1.134910583E-1,1.588444146E0
8.319779220E-1,4.607587457E-1,1.429079056E0,4.784250259E-2,1.502283087E0
8.419859950E-1,4.944992661E-1,6.869940758E-1,-1.379489899E-2,8.465699520E-1
8.519794850E-1,3.303696513E-1,5.704302788E-1,-7.673263550E-2,6.636435088E-1
8.620093800E-1,3.658529818E-1,-9.332847595E-2,-1.455636024E-1,4.046571031E-1
8.719902140E-1,4.009631872E-1,-1.337733269E-1,-2.145586014E-1,4.740276088E-1
8.819985470E-1,4.357136190E-1,-1.588640213E-1,-2.545280457E-1,5.290261440E-1
8.919751100E-1,4.701169729E-1,-1.948909760E-1,-2.499613762E-1,5.669860230E-1
9.019826100E-1,3.065109849E-1,-2.257881165E-1,-2.893190384E-1,4.781576763E-1
9.119787030E-1,3.425281048E-1,-2.182679176E-1,-3.617763519E-1,5.439195853E-1
9.219794850E-1,3.781811893E-1,-1.387248039E-1,-4.288339615E-1,5.883571617E-1
9.319794850E-1,4.134825170E-1,-4.062271118E-2,-4.717440605E-1,6.286178928E-1
9.419774010E-1,4.484438300E-1,4.916620255E-2,-5.179729462E-1,6.868880237E-1
9.519792240E-1,3.248737752E-1,5.087184906E-2,-5.652651787E-1,6.539538494E-1
9.619768800E-1,3.609503806E-1,1.176738739E-2,-6.364493370E-1,7.317727839E-1
9.719805260E-1,3.966849446E-1,-2.695369720E-2,-6.633143425E-1,7.733507381E-1
9.819958390E-1,4.320882559E-1,-8.471679688E-2,-6.323699951E-1,7.705640838E-1
9.919885990E-1,2.692540288E-1,-1.540498734E-1,-5.951037407E-1,6.711017491E-1
1.001991464E0,3.060658276E-1,-2.187623978E-1,-5.766873360E-1,6.885503329E-1
1.011988599E0,3.425345421E-1,-2.599816322E-1,-5.697674751E-1,7.138314488E-1
1.021985735E0,3.786705434E-1,-2.613849640E-1,-5.825319290E-1,7.423320875E-1
1.031988078E0,4.144838452E-1,-1.991577148E-1,-5.443439484E-1,7.125805130E-1
1.042032245E0,2.519642115E-1,-9.158802032E-2,-4.523463249E-1,5.258246162E-1
1.051986568E0,2.891018093E-1,5.386562347E-1,2.574133873E-1,6.633189635E-1
1.061966880E0,3.259066343E-1,5.763168335E-1,3.056955338E-1,7.292502905E-1
1.071976412E0,3.623882830E-1,6.083073616E-1,3.520526886E-1,7.907617906E-1
1.081988599E0,3.985559940E-1,6.645131111E-1,3.821196556E-1,8.639675841E-1
1.091979745E0,2.363054901E-1,7.756738663E-1,3.883209229E-1,8.990569340E-1
1.101988339E0,2.737232149E-1,1.676981449E0,3.689727783E-1,1.738773157E0
1.111989641E0,3.108183742E-1,1.772156715E0,2.448697090E-1,1.815794223E0
1.121988860E0,3.475998342E-1,1.857632160E0,-7.834639549E-1,2.045834464E0
1.131987037E0,2.255493850E-1,2.520681381E0,-1.865637302E0,3.144091235E0
1.141987557E0,2.631784081E-1,2.541131973E0,-1.908954620E0,3.189156992E0
1.151990682E0,3.004954159E-1,2.507608414E0,-1.939680576E0,3.184455713E0
1.161993807E0,1.314856887E0,2.373834133E0,-1.940021515E0,3.335808838E0
1.171988339E0,1.360996246E0,1.227707863E0,-1.918886185E0,2.653620464E0
1.181989120E0,1.414234638E0,2.408061028E-1,-1.849975109E0,2.341037184E0
1.191988078E0,1.488185167E0,-5.802001953E-1,-1.739696503E0,2.361751740E0
1.201987037E0,2.181996584E0,-7.360315323E-1,-1.622831821E0,2.817167838E0
1.211987818E0,2.213886738E0,-1.747693062E0,-9.541373253E-1,2.977600303E0
1.222074328E0,2.195603132E0,-1.819539785E0,-8.997845650E-1,2.990152238E0
1.231971985E0,2.138679028E0,-1.880117178E0,-8.176860809E-1,2.962667567E0
1.241967401E0,2.087215662E0,-1.945470810E0,-7.067241669E-1,2.939521209E0
1.251975110E0,2.069748878E0,-1.985729694E0,8.840513229E-2,2.869633828E0
1.261980266E0,2.057488441E0,-2.013918877E0,1.386485100E-1,2.882421090E0
1.271979745E0,2.020572662E0,-2.036487818E0,1.869955063E-1,2.874885013E0
1.281984432E0,1.928232193E0,-2.054172754E0,2.336554527E-1,2.827065610E0
1.291978703E0,1.807340384E0,-2.053014278E0,2.350063324E-1,2.745282293E0
1.301980526E0,1.725057602E0,-2.040380001E0,1.921534538E-1,2.678786522E0
1.311977922E0,1.692440510E0,-1.841628790E0,-9.242148399E-1,2.666481680E0
1.321978182E0,1.680708289E0,-6.507053375E-1,-1.749599934E0,2.511831546E0
1.331980005E0,1.688489556E0,2.008309364E-1,-2.600517273E0,3.107091909E0
1.341979224E0,1.732697248E0,1.090077400E0,-3.441551685E0,4.004345951E0
1.351979745E0,1.813383818E0,1.800028324E0,-4.274687290E0,4.980101833E0
1.361978182E0,1.896479487E0,1.895938873E0,-4.389338017E0,5.143686118E0
1.371977922E0,1.952392101E0,1.967852116E0,-5.108159065E0,5.811847030E0
1.381977662E0,1.999269605E0,1.979913235E0,-5.070930004E0,5.799264305E0
1.391980005E0,2.052883625E0,1.915633202E0,-4.970918655E0,5.709116746E0
1.402097141E0,2.122059584E0,1.789969444E0,-4.831089973E0,5.571943810E0
1.411971724E0,2.726068258E0,9.632596970E-1,-3.936536312E0,4.884223124E0
1.421965474E0,2.746634483E0,8.482303619E-1,-3.778926849E0,4.748029472E0
1.431977974E0,2.791434765E0,7.329649925E-1,-2.889487028E0,4.083929604E0
1.441976620E0,2.842656612E0,6.468191147E-1,-2.800317764E0,4.042381868E0
1.451981828E0,2.884818554E0,6.104059219E-1,-2.735141039E0,4.021911235E0
1.461978964E0,2.919090748E0,6.123685837E-1,-2.686006308E0,4.013815636E0
1.471981568E0,2.961112738E0,6.476817131E-1,-2.616758823E0,4.004385969E0
1.481974537E0,3.029343605E0,7.070813179E-1,-2.486245155E0,3.982248315E0
1.491981307E0,3.809184313E0,8.118996620E-1,-1.533783436E0,4.185875992E0
1.501983130E0,3.887806177E0,8.486289978E-1,-1.439560413E0,4.231730406E0
1.511978443E0,4.652338028E0,8.847579956E-1,-7.987785339E-1,4.802613141E0
1.521976620E0,4.721184254E0,9.252166748E-1,-7.404441833E-1,4.867634358E0
1.531984432E0,5.304590225E0,9.742875099E-1,-6.696634293E-1,5.434736674E0
1.541978964E0,5.314506531E0,1.030813217E0,-6.124877930E-1,5.448091120E0
1.551976099E0,5.319037437E0,1.079160690E0,-5.866823196E-1,5.459024015E0
1.561976620E0,5.318908215E0,1.139866829E0,-5.930452347E-1,5.471908591E0
1.571977141E0,5.319627285E0,1.196654320E0,-5.981264114E-1,5.485268564E0
1.581974641E0,5.330857277E0,1.245124340E0,-5.923428535E-1,5.506291310E0
1.591996724E0,5.351243496E0,1.286333561E0,-5.819935799E-1,5.534363334E0
1.601987141E0,5.384474754E0,1.311455250E0,-5.628099442E-1,5.570389420E0
1.611976151E0,5.428877354E0,1.312825203E0,-5.310840607E-1,5.610549850E0
1.621981568E0,6.045054436E0,1.293545246E0,-4.884762764E-1,6.201173398E0
1.631980787E0,6.068012714E0,1.261202335E0,-4.413132668E-1,6.213386116E0
1.641977662E0,6.117685318E0,1.222403049E0,-3.999757767E-1,6.251425716E0
1.651980266E0,6.171078682E0,1.182897091E0,-3.637347221E-1,6.293946343E0
1.661977922E0,6.751822472E0,1.137931824E0,-3.417053223E-1,6.855564021E0
1.671978964E0,6.751817703E0,1.031279087E0,-3.491835594E-1,6.839042916E0
1.681976620E0,6.733152390E0,9.655342102E-1,-3.919677734E-1,6.813313155E0
1.691979224E0,6.692663670E0,9.027881622E-1,-4.630470276E-1,6.769134805E0
1.701979224E0,6.647875786E0,8.378195763E-1,-5.684485435E-1,6.724531794E0
1.711976099E0,6.594527245E0,7.758412361E-1,-1.333083630E0,6.772505531E0
1.721976880E0,6.558179855E0,7.116308212E-1,-1.392270088E0,6.741999513E0
1.731978182E0,6.536672115E0,6.601567268E-1,-1.476945877E0,6.733888800E0
1.741975318E0,6.528114319E0,6.149220467E-1,-1.569112778E0,6.742145103E0
1.751977662E0,6.530853271E0,5.800251961E-1,-2.235897064E0,6.927316173E0
1.761995474E0,6.538564682E0,5.492696762E-1,-2.251227379E0,6.937041876E0
1.771975422E0,6.560379028E0,5.221400261E-1,-2.267926693E0,6.960940647E0
1.782063860E0,6.594473362E0,4.981837273E-1,-2.266300201E0,6.990807003E0
1.791976932E0,6.639256001E0,4.721274376E-1,-2.263372660E0,7.030325764E0
1.801977453E0,6.683576584E0,4.540195465E-1,-2.273959875E0,7.074406209E0
1.811983391E0,6.712852478E0,4.477205276E-1,-2.306066751E0,7.112017008E0
1.821977922E0,6.724163055E0,4.370660782E-1,-2.361767292E0,7.140261921E0
1.831978703E0,6.729613304E0,4.372668266E-1,-2.413577080E0,7.162698641E0
1.841991724E0,6.744622231E0,4.469161034E-1,-2.457097054E0,7.192147730E0
1.851977401E0,6.830070972E0,5.252327919E-1,-3.128843307E0,7.530962715E0
1.861982349E0,6.843035698E0,5.863008499E-1,-3.163924217E0,7.561831967E0
1.871975630E0,6.869483471E0,6.439595222E-1,-3.207083464E0,7.608539371E0
1.881978182E0,6.897912502E0,7.083778381E-1,-3.242617846E0,7.654904738E0
1.891978964E0,6.947591782E0,7.688822746E-1,-3.271503687E0,7.717703537E0
1.901977401E0,8.027653694E0,8.308267593E-1,-3.314117432E0,8.724498340E0
1.911977922E0,8.005956650E0,8.939900398E-1,-3.373546124E0,8.733577361E0
1.921977922E0,7.984584808E0,9.532985687E-1,-3.442706347E0,8.747262412E0
1.931978182E0,7.963536263E0,9.994578362E-1,-4.013741016E0,8.973680556E0
1.942000839E0,7.843314171E0,1.039026737E0,-4.049099445E0,8.887764627E0
1.951978495E0,7.823398590E0,1.072838306E0,-4.116452217E0,8.905151677E0
1.962148026E0,7.803785801E0,1.111382961E0,-4.196988106E0,8.930226989E0
1.971974589E0,7.784469604E0,1.173554420E0,-5.663504601E0,9.697962743E0
1.981992974E0,7.765447617E0,1.226974964E0,-5.595386982E0,9.649663192E0
1.991983651E0,7.647211552E0,1.287394047E0,-5.726753235E0,9.640172745E0
2.001980005E0,7.629254341E0,1.348993301E0,-5.658600807E0,9.594012082E0
2.011979745E0,7.611574173E0,1.406707287E0,-5.590922832E0,9.548471338E0
2.021978703E0,7.594163895E0,1.456127167E0,-5.523712635E0,9.502790793E0
2.031979224E0,7.497590542E0,1.521317005E0,-5.616315842E0,9.490588654E0
2.041987037E0,7.481273174E0,1.476099014E0,-4.241917610E0,8.725948752E0
2.051979224E0,7.465209961E0,1.406572819E0,-4.106816292E0,8.635609238E0
2.061977922E0,7.449395180E0,1.330568314E0,-4.001442909E0,8.560107823E0
2.071977922E0,7.337218285E0,1.265225887E0,-3.880785465E0,8.396193455E0
2.081977141E0,5.582115173E0,1.202047825E0,-3.786660910E0,6.851549433E0
2.091979485E0,5.430075645E0,1.137119293E0,-3.726987839E0,6.683502087E0
2.101978703E0,5.310193539E0,1.067415237E0,-3.730433941E0,6.576752093E0
2.111978703E0,5.224417210E0,1.003699303E0,-3.833926201E0,6.557510014E0
2.121978443E0,5.155598164E0,9.519829750E-1,-5.095750332E0,7.311165123E0
2.131992557E0,5.082822323E0,9.095139503E-1,-5.215706348E0,7.339338601E0
2.141987141E0,5.027019024E0,8.491034508E-1,-5.136335373E0,7.236977131E0
2.151974745E0,5.018076897E0,2.116136551E-1,-5.059113503E0,7.128850224E0
2.161981307E0,5.000062466E0,1.548895836E-1,-4.982758999E0,7.060630474E0
2.171979224E0,4.978872776E0,8.657741547E-2,-4.907289028E0,6.991291395E0
2.181979224E0,4.939433098E0,1.940202713E-2,-6.018936157E0,7.786267927E0
2.191979745E0,4.876803398E0,-6.917142868E-2,-6.621010303E0,8.223489132E0
2.201981828E0,4.804905891E0,-1.508140564E-1,-6.625020027E0,8.185398944E0
2.211978182E0,4.724025726E0,-2.259068489E-1,-6.653873444E0,8.163423594E0
2.221978964E0,4.623253822E0,-3.539581299E-1,-7.413023472E0,8.743722277E0
2.231977401E0,4.558205128E0,-4.041767120E-1,-7.393373013E0,8.694973105E0
2.241990422E0,4.503950119E0,-4.483160973E-1,-7.350728035E0,8.632482646E0
2.251990682E0,4.463893890E0,-4.807109833E-1,-7.296995640E0,8.567588755E0
2.261987297E0,4.441535950E0,-4.961652756E-1,-7.209214211E0,8.482110062E0
2.271985214E0,4.433537960E0,-5.004091263E-1,-7.092077255E0,8.378796330E0
2.281987557E0,5.616657257E0,-4.910664558E-1,-6.933667183E0,8.936650693E0
2.292042505E0,5.519487858E0,-4.692273140E-1,-6.732323647E0,8.718319917E0
2.301987037E0,5.425391674E0,-4.165058136E-1,-5.954269409E0,8.066081831E0
2.312018130E0,5.333584309E0,-3.263907433E-1,-5.816861629E0,7.898704432E0
2.321984224E0,5.145622253E0,-2.048506737E-1,-5.675956726E0,7.663933515E0
2.331968964E0,5.060986042E0,4.495716095E-1,-5.532258511E0,7.511429862E0
2.341977453E0,4.964068413E0,5.276107788E-1,-5.415816307E0,7.365555961E0
2.351987037E0,3.382291317E0,6.043782234E-1,-5.315589428E0,6.329348984E0
2.361989120E0,3.251345634E0,6.797389984E-1,-5.254308701E0,6.216192843E0
2.371990682E0,3.126749516E0,7.481880188E-1,-5.223557472E0,6.133669416E0
2.381990162E0,3.044272423E0,7.877197266E-1,-5.223410130E0,6.096893499E0
2.392034432E0,2.963644028E0,7.980566025E-1,-5.226040840E0,6.060658638E0
2.401988078E0,2.919869900E0,7.385125160E-1,-5.255709648E0,6.057518046E0
2.411987037E0,2.897816658E0,6.896886826E-1,-5.225200653E0,6.014626649E0
2.421990162E0,2.865754128E0,6.370520592E-1,-5.211750031E0,5.981698791E0
2.431989380E0,2.825894833E0,5.847978592E-1,-5.222531796E0,5.966783765E0
2.441988339E0,2.793410301E0,5.336856842E-1,-5.240136147E0,5.962129515E0
2.451991464E0,2.766228676E0,4.693455696E-1,-5.232885838E0,5.937625834E0
2.461987818E0,2.758307934E0,3.890018463E-1,-5.214210033E0,5.911647094E0
2.471988339E0,2.782088280E0,2.947711945E-1,-5.190886497E0,5.896796408E0
2.481987818E0,2.828804970E0,-3.031444550E-1,-5.172916412E0,5.903651271E0
2.492130578E0,4.242259026E0,-3.270697594E-1,-5.159547806E0,6.687650546E0
2.501967974E0,4.226358414E0,-3.428878784E-1,-5.119745255E0,6.647666433E0
2.511964953E0,4.110406876E0,-3.556385040E-1,-5.081564426E0,6.545549667E0
2.521975630E0,4.094607830E0,-3.563332558E-1,-5.030332565E0,6.495924291E0
2.531979745E0,4.077722073E0,-3.348932266E-1,-5.002703190E0,6.462740129E0
2.541984953E0,4.060213566E0,-2.847690582E-1,-4.970982552E0,6.424725297E0
2.551977141E0,4.021145821E0,-1.888442039E-1,-4.899251461E0,6.340973168E0
2.561980005E0,3.884635925E0,-8.257675171E-2,-4.785834312E0,6.164529606E0
2.571978443E0,3.850552559E0,2.290964127E-2,-4.637479782E0,6.027727481E0
2.581979745E0,3.838892460E0,2.127795219E-1,-3.853574753E0,5.443565818E0
2.591978443E0,3.809314251E0,8.719425201E-1,-3.156636477E0,5.023496060E0
2.601979485E0,3.682210445E0,9.261360168E-1,-3.022114754E0,4.852790874E0
2.611978703E0,3.656825066E0,9.760923386E-1,-1.999813437E0,4.280698494E0
2.621977401E0,3.634841442E0,1.020123005E0,-1.924260736E0,4.237393377E0
2.631978182E0,2.090022087E0,1.053106785E0,-1.867978930E0,2.994423402E0
2.641980266E0,2.006334305E0,1.092160702E0,-1.815466404E0,2.917894893E0
2.651977662E0,1.917738914E0,1.119168282E0,-1.982024193E0,2.976353488E0
2.661980787E0,1.826486111E0,1.141685486E0,-1.950544238E0,2.905876819E0
2.671977401E0,1.755188942E0,1.160066605E0,-1.944516659E0,2.864888791E0
2.681969797E0,1.727923870E0,1.146470070E0,-1.937933564E0,2.838256687E0
2.691983860E0,1.734053135E0,1.124167919E0,-1.929532886E0,2.827329295E0
2.701975370E0,1.775437355E0,1.083412647E0,-2.115537882E0,2.966725686E0
2.711977922E0,1.836503029E0,1.047443867E0,-2.100916386E0,2.980558956E0
2.721974849E0,1.906138897E0,1.033918858E0,-2.086353302E0,3.009189891E0
2.731980266E0,1.976595402E0,1.032216072E0,-1.041472197E0,2.461110265E0
2.741978964E0,2.023931980E0,1.025164604E0,-9.977951050E-1,2.478479009E0
2.751980005E0,2.056235313E0,9.891414642E-1,-9.927210808E-1,2.488372891E0
2.761976620E0,1.953380585E0,9.323453903E-1,-1.023733854E0,2.394367273E0
2.771976360E0,1.865734577E0,9.047183990E-1,-1.113680363E0,2.353670505E0
2.781979485E0,1.278174877E0,8.633460999E-1,-1.236187816E0,1.976678482E0
2.791981047E0,1.272089005E0,7.967920303E-1,-2.402867317E0,2.833171248E0
2.801978182E0,1.278999329E0,7.032680511E-1,-2.406384945E0,2.814447324E0
2.811977401E0,1.306864738E0,6.108174324E-1,-2.407824516E0,2.806886582E0
2.821977922E0,1.352636814E0,5.099105835E-1,-2.407262802E0,2.807943972E0
2.831976880E0,1.428524971E0,4.311017990E-1,-2.404782772E0,2.830108220E0
2.841985735E0,1.521818161E0,3.752102852E-1,-2.599698067E0,3.035645452E0
2.851981360E0,1.643558979E0,3.148474693E-1,-2.591595650E0,3.084928372E0
2.861985110E0,2.321516037E0,2.623395920E-1,-2.555435181E0,3.462442452E0
2.872018547E0,2.363235474E0,2.266116142E-1,-2.517794609E0,3.460567066E0
2.881975110E0,2.403491974E0,2.056803703E-1,-2.479857206E0,3.459590994E0
2.891981568E0,2.437252045E0,1.882300377E-1,-2.640960932E0,3.598652903E0
2.901977922E0,2.460096836E0,1.883049011E-1,-2.600698471E0,3.584852538E0
2.911981307E0,2.468168259E0,1.948494911E-1,-2.560330868E0,3.561616912E0
2.921981828E0,2.465964794E0,2.011594772E-1,-2.520459175E0,3.531877964E0
2.931981307E0,2.460789204E0,2.154173851E-1,-2.482102871E0,3.501817074E0
2.941980787E0,2.478902340E0,2.317547798E-1,-2.603164911E0,3.602101421E0
2.951979224E0,2.492494106E0,2.398934364E-1,-2.562795877E0,3.583015272E0
2.961978703E0,2.512290001E0,2.483582497E-1,-2.522386551E0,3.568713603E0
2.971980266E0,2.536772728E0,2.581772804E-1,-2.482330322E0,3.558628277E0
2.981980682E0,2.566511154E0,2.632746696E-1,-2.642725706E0,3.693276623E0
2.991978964E0,2.614802361E0,2.638483047E-1,-2.601701975E0,3.698061719E0
3.001976880E0,2.674576283E0,2.510600090E-1,-2.560633659E0,3.711230814E0
3.011980266E0,3.740259171E0,2.361893654E-1,-2.519398451E0,4.515826905E0
3.021976099E0,3.740951061E0,2.156381607E-1,-2.478336573E0,4.492590213E0
3.032003964E0,3.642522335E0,1.843667030E-1,-2.637614965E0,4.500996862E0
3.041978443E0,3.642905235E0,1.742048264E-1,-2.595865488E0,4.476563806E0
3.051992610E0,3.642010212E0,1.687808037E-1,-2.554471970E0,4.451747116E0
3.061975630E0,3.640736103E0,1.809949875E-1,-2.512903929E0,4.427460301E0
3.071975682E0,2.583142757E0,2.137813568E-1,-2.472460747E0,3.582093120E0
3.081983130E0,1.556718826E0,2.542958260E-1,-3.552400112E0,3.886847878E0
3.091981047E0,1.378632069E0,2.891745567E-1,-3.574378729E0,3.841930713E0
3.101978703E0,1.846899986E-1,3.609881401E-1,-3.553798676E0,3.576857260E0
3.111980266E0,9.491348267E-2,1.120460510E0,-3.559842587E0,3.733218392E0
3.121983130E0,2.622961998E-1,2.104307652E0,-2.612107038E0,3.364522725E0
3.131978182E0,1.494720936E0,2.225848198E0,-2.568544865E0,3.712952141E0
3.141980005E0,2.303471088E0,2.938071728E0,-2.524697304E0,4.506921456E0
3.151977401E0,2.429531097E0,3.018358231E0,-2.480843067E0,4.600835803E0
3.161978443E0,3.532319546E0,3.115739346E0,-2.438184500E0,5.303758733E0
3.171977662E0,3.453052521E0,3.719707012E0,-2.594736338E0,5.700214788E0
3.181977141E0,3.486274242E0,3.609664440E0,-2.550318241E0,5.629201417E0
3.191977401E0,2.012929916E0,3.453831196E0,-2.505904913E0,4.718092433E0
3.201978964E0,9.380197525E-1,2.528964996E0,-2.462936878E0,3.652615922E0
3.211999537E0,-1.719846725E-1,2.383361340E0,-2.419847250E0,3.400830886E0
3.221977089E0,-1.141601086E0,1.653028488E0,-2.577343702E0,3.267790811E0
3.232000370E0,-1.786263943E0,1.554414272E0,-2.534759760E0,3.468710084E0
3.241975891E0,-1.853684425E0,1.440958023E0,-2.492047310E0,3.423858316E0
3.251982610E0,-1.921454906E0,1.303003311E0,-2.450025082E0,3.375267321E0
3.261980526E0,-1.979223251E0,4.968061447E-1,-2.409688950E0,3.157648153E0
3.271980266E0,-2.009382248E0,4.192986488E-1,-2.568660498E0,3.288076205E0
3.281976880E0,-2.050800562E0,3.357996941E-1,-2.526231766E0,3.271145260E0
3.291979745E0,-2.670662642E0,2.790565491E-1,-2.483429670E0,3.657558534E0
3.301983391E0,-2.563647747E0,2.103486061E-1,-4.145626545E0,4.878806796E0
3.311977141E0,-2.484320402E0,1.786632538E-1,-4.198524952E0,4.881739464E0
3.321977922E0,-2.410778522E0,2.221660614E-1,-4.184611797E0,4.834478952E0
3.331981047E0,-2.306952715E0,9.338006973E-1,-4.091636658E0,4.789102746E0
3.341978703E0,-2.170721769E0,1.002098083E0,-2.403317451E0,3.390010080E0
3.351978182E0,-1.405573845E0,1.629823208E0,-2.358079433E0,3.192569519E0
3.361976880E0,-1.286997318E0,1.644735336E0,-2.511691570E0,3.266513580E0
3.371979224E0,-1.242829800E0,1.682238579E0,-2.462936640E0,3.231193191E0
3.381980266E0,-1.222592354E0,2.244728088E0,-2.414323330E0,3.516033759E0
3.391987037E0,-1.199274540E0,2.264664650E0,-2.367417097E0,3.488786194E0
3.401979276E0,-1.208652973E0,2.308197021E0,-2.320677042E0,3.489148525E0
3.412089745E0,-1.776559830E0,2.918333530E0,-2.472284079E0,4.217229421E0
3.421984745E0,-1.848577976E0,3.856149673E0,-2.425504684E0,4.916320150E0
3.431975891E0,-2.876724720E0,3.800267220E0,-2.378895283E0,5.326980272E0
3.441977401E0,-3.637482405E0,3.736750126E0,-2.333613873E0,5.713171926E0
3.451981307E0,-3.701620579E0,4.993171692E0,-2.288475752E0,6.623509623E0
3.461981828E0,-4.913259029E0,5.066698074E0,-2.443024874E0,7.468595196E0
3.471979745E0,-4.743051052E0,5.969423771E0,-2.397848368E0,7.992510884E0
3.481983130E0,-4.533672333E0,6.954096317E0,-2.312869072E0,8.617598491E0
3.491988339E0,-4.342750549E0,6.963056087E0,-2.267886877E0,8.513926433E0
3.501992766E0,-4.307147980E0,7.657270908E0,-2.421638727E0,9.113158377E0
3.511988860E0,-2.328577280E0,7.598654747E0,-3.367055893E0,8.631274037E0
3.521988339E0,-2.021699667E0,7.570840359E0,-3.365557194E0,8.528298101E0
3.531988078E0,-1.783297300E0,8.274379730E0,-3.319041014E0,9.091839332E0
3.541993026E0,-1.561894774E0,8.210944176E0,-2.225973845E0,8.649513229E0
3.551988860E0,-1.341397047E0,8.068202972E0,-2.379068613E0,8.517934768E0
3.561986776E0,-1.136772037E0,7.817623615E0,-2.331008911E0,8.236570415E0
3.572013339E0,-9.663444757E-1,6.608173847E0,-2.283156633E0,7.057944988E0
3.581977193E0,-8.289084435E-1,5.780641556E0,-2.235522032E0,6.253036443E0
3.592009120E0,-7.089495659E-1,4.888506889E0,-2.189331293E0,5.403080659E0
3.601979276E0,-5.854742527E-1,3.928377151E0,-2.341537476E0,4.610610035E0
3.611986255E0,-4.348015785E-1,1.995697975E0,-2.293976784E0,3.071513032E0
3.621990422E0,-2.712235451E-1,1.975713730E0,-2.246650934E0,3.004071799E0
3.631989120E0,-1.262179613E-1,1.959968567E0,-2.199556828E0,2.948806198E0
3.641990682E0,9.163618088E-3,1.948873043E0,-2.153777599E0,2.904642501E0
3.651989901E0,1.276452541E-1,1.844649792E0,-2.307456017E0,2.956920600E0
3.661988078E0,2.616105080E-1,1.864315510E0,-2.221554756E0,2.911944009E0
3.671987037E0,3.566312790E-1,1.869050026E0,-2.175661564E0,2.890335121E0
3.681991985E0,4.465672970E-1,1.875014782E0,-2.130570412E0,2.873052917E0
3.691988339E0,5.230095387E-1,1.781947613E0,-2.285010338E0,2.944511592E0
3.701988860E0,5.869252682E-1,1.789719105E0,-2.239833117E0,2.926504422E0
3.711986255E0,6.497048140E-1,1.798139572E0,-2.194775105E0,2.910749049E0
3.721984693E0,7.065235376E-1,1.807121277E0,-2.149830818E0,2.895968813E0
3.731990682E0,7.476857901E-1,1.816707611E0,-2.104996681E0,2.879317908E0
3.741988078E0,7.798895836E-1,1.727457047E0,-2.261073351E0,2.950387823E0
3.751993287E0,7.989617586E-1,1.738419533E0,-2.216073751E0,2.927699649E0
3.761974068E0,8.168668747E-1,1.749740601E0,-2.171172619E0,2.905658996E0
3.771988860E0,8.384393454E-1,1.761401176E0,-2.126368523E0,2.885646849E0
3.781974328E0,8.733983040E-1,1.773591995E0,-2.082818031E0,2.871686632E0
3.791975630E0,9.594706297E-1,1.686106682E0,-2.238605738E0,2.962244973E0
3.801988078E0,1.045461297E0,1.698491096E0,-2.193178892E0,2.964438392E0
3.811978182E0,1.131641746E0,1.711021423E0,-2.147868395E0,2.970108751E0
3.821981828E0,1.193796515E0,1.723599434E0,-2.102576017E0,2.969304807E0
3.831979224E0,1.259361744E0,1.736553192E0,-2.058532715E0,2.973073482E0
3.841991203E0,1.414489508E0,4.906711578E-1,-2.174189568E0,2.639817991E0
3.851977141E0,1.469016314E0,4.492168427E-1,-2.128772974E0,2.625162676E0
3.861977922E0,1.471201301E0,4.276924133E-1,-2.083332777E0,2.586045152E0
3.871976151E0,1.477141500E0,4.039258957E-1,-2.037949324E0,2.549184298E0
3.881978182E0,1.495979071E0,3.638486862E-1,-2.193256378E0,2.679685203E0
3.891976620E0,1.539116859E0,3.092794418E-1,-1.036160350E0,1.881000465E0
3.901978703E0,1.564856648E0,2.535867691E-1,-9.521760941E-1,1.849249008E0
3.911977922E0,1.579869986E0,1.467685699E-1,-8.942159414E-1,1.821305118E0
3.921979224E0,1.605841756E0,-7.388401031E-1,-8.385019302E-1,1.956450339E0
3.931998755E0,1.661789298E0,-7.919836044E-1,-7.909078598E-1,2.003576039E0
3.941977505E0,1.723285794E0,-8.231229782E-1,-7.591083050E-1,2.055113326E0
3.952049172E0,1.776827216E0,-8.186182976E-1,-7.708324194E-1,2.102720498E0
3.961974849E0,1.816857338E0,-8.126754761E-1,-8.106541634E-1,2.149086361E0
3.971979485E0,1.839804411E0,-8.201751709E-1,-8.500922918E-1,2.186372449E0
3.981984328E0,1.842434049E0,-8.197550774E-1,-8.694490194E-1,2.196019856E0
3.991977662E0,1.808759689E0,-7.862095833E-1,-8.572044373E-1,2.150473569E0
4.001979485E0,1.768220067E0,-7.444753647E-1,-8.456587791E-1,2.096660331E0
4.011980787E0,1.728648543E0,-7.205634117E-1,-8.194470406E-1,2.044243349E0
4.021979485E0,1.704786539E0,-6.860547066E-1,-7.035434246E-1,1.967724969E0
4.031976880E0,1.702377796E0,-6.169767380E-1,-6.725335121E-1,1.931593068E0
4.041981568E0,1.734203577E0,-4.965286255E-1,-6.488730907E-1,1.917039126E0
4.051983391E0,1.809459329E0,3.502016068E-1,-6.419386864E-1,1.951632523E0
4.061977141E0,2.453428507E0,4.932417870E-1,-6.456199884E-1,2.584458177E0
4.071978964E0,2.487526178E0,1.827315331E0,-6.685966253E-1,3.158146490E0
4.081980526E0,2.509961605E0,1.855475903E0,-7.313171625E-1,3.205857588E0
4.091976360E0,2.504160166E0,1.883766651E0,-8.152954578E-1,3.237916246E0
4.101976880E0,2.474718332E0,1.911595821E0,-8.872854710E-1,3.250493027E0
4.111976151E0,2.415140629E0,1.936804295E0,-9.258227348E-1,3.231294302E0
4.121996255E0,2.346994638E0,1.865776539E0,-9.556603432E-1,3.146870289E0
4.131998339E0,2.310691833E0,1.889356613E0,-9.498890638E-1,3.132292195E0
4.141973807E0,2.279084682E0,1.912056923E0,-9.406334162E-1,3.120092930E0
4.151977141E0,2.216851711E0,1.934186935E0,-8.846206665E-1,3.072143280E0
4.161978182E0,2.141503811E0,1.954602242E0,-7.818107605E-1,3.002954638E0
4.171980005E0,2.080104351E0,7.374567986E-1,3.556776047E-2,2.207247541E0
4.181981047E0,2.051531553E0,6.601104736E-1,6.795406342E-2,2.156187679E0
4.191979224E0,2.053394318E0,5.722393990E-1,6.673598289E-2,2.132683719E0
4.201983130E0,1.920298457E0,6.293849945E-1,8.789467812E-2,2.022720225E0
4.211977401E0,1.825722337E0,1.882542133E0,6.491351128E-2,2.623250026E0
4.221979224E0,1.247003436E0,1.907504559E0,-5.399107933E-2,2.279584666E0
4.231980005E0,1.226409674E0,3.475059032E0,-7.606911659E-1,3.762813710E0
4.241979485E0,1.171445966E0,4.475523949E0,-9.068443775E-1,4.714336326E0
4.251976360E0,5.254528522E-1,5.383918762E0,-1.662219405E0,5.659121424E0
4.261978182E0,4.309988022E-1,6.225263596E0,-1.756354451E0,6.482626610E0
4.271977922E0,-2.671473026E-1,6.366360664E0,-1.884261847E0,6.644724110E0
4.281977922E0,-3.148381710E-1,6.988371849E0,-3.018579721E0,7.618942690E0
4.291977037E0,-3.681364059E-1,6.896678925E0,-2.989979267E0,7.525933870E0
4.301973651E0,-1.362718225E0,5.888713360E0,-2.936883211E0,6.720061680E0
4.311993755E0,-1.457288980E0,4.692864418E0,-3.078962564E0,5.798851446E0
4.321982401E0,-1.340214372E0,3.272048950E0,-3.001843929E0,4.638269707E0
4.331980787E0,-1.224523425E0,1.756250381E0,-2.924669266E0,3.624577677E0
4.341979224E0,-1.091185451E0,3.138008118E-1,-2.846403599E0,3.064501605E0
4.351981828E0,2.506345510E-1,-9.188137054E-1,-4.183652878E0,4.290686158E0
4.361983912E0,3.767181635E-1,-1.779878616E0,-4.281475067E0,4.651979494E0
4.371982610E0,5.353195071E-1,-1.924963951E0,-5.384751320E0,5.743483261E0
4.381976880E0,1.392085314E0,-1.901729584E0,-6.384917259E0,6.806000686E0
4.391978182E0,1.477983713E0,-1.107315063E0,-6.373869896E0,6.636022902E0
4.401978703E0,1.552287817E0,-2.293610573E-1,-6.325473785E0,6.517194379E0
4.411977662E0,1.605180502E0,1.575800896E0,-6.206334114E0,6.601388948E0
4.421981307E0,1.666786075E0,1.572586060E0,-6.055765152E0,6.474835466E0
4.431977922E0,1.733666658E0,1.562557220E0,-5.864004135E0,6.311396806E0
4.441980005E0,1.751972437E0,1.555768967E0,-5.651459694E0,6.117909869E0
4.451978964E0,1.748924136E0,1.447068214E0,-4.845770359E0,5.351096376E0
4.461976620E0,1.716098785E0,2.471608162E0,-4.673933029E0,5.558731142E0
4.472073443E0,1.648559809E0,2.441842079E0,-4.494314671E0,5.373937713E0
4.481980839E0,1.561200976E0,1.426624298E0,-4.311228752E0,4.802009864E0
4.491965787E0,1.476943016E0,1.425769806E0,-4.111400127E0,4.595409799E0
4.501975370E0,1.377166152E0,1.327080727E0,-3.378239632E0,3.882039783E0
4.511981568E0,1.291374803E0,1.333162308E0,-3.228657246E0,3.724137246E0
4.521978703E0,1.244068742E0,1.340637207E0,-3.062767029E0,3.567289872E0
4.531978182E0,1.236066937E0,1.349228859E0,-2.902547359E0,3.431189467E0
4.541979745E0,1.271806002E0,1.359334946E0,-2.756105900E0,3.325868568E0
4.551980266E0,1.369054317E0,1.272249222E0,-2.655631065E0,3.247353409E0
4.561976360E0,2.257220745E0,1.305664062E0,-2.585456848E0,3.672109918E0
4.571976360E0,2.901757240E0,1.319868088E0,-2.567790985E0,4.093384589E0
4.581978703E0,2.957564592E0,1.334736824E0,-2.576815367E0,4.143511571E0
4.591976099E0,3.013998032E0,1.250371933E0,-2.599259138E0,4.171781654E0
4.601978182E0,3.056094646E0,1.266188622E0,-2.621164322E0,4.220598360E0
4.611976880E0,3.060514450E0,1.285789490E0,-2.632925510E0,4.237015465E0
4.621976880E0,3.043335438E0,1.305787086E0,-2.620816469E0,4.223227376E0
4.631978182E0,2.969367266E0,2.671804428E-1,-2.593267679E0,3.951400335E0
4.641979745E0,2.863185883E0,2.376031876E-1,-2.542236805E0,3.836307684E0
4.652025526E0,2.738827229E0,1.983356476E-1,-2.495216846E0,3.710339436E0
4.661982662E0,2.595282555E0,1.649932861E-1,-2.431320667E0,3.560061026E0
4.671966203E0,1.881160498E0,1.416530609E-1,-2.373140812E0,3.031604809E0
4.681977453E0,1.769548297E0,1.220331192E-1,-2.329631567E0,2.928032871E0
4.691983130E0,1.653135061E0,1.253347397E-1,-2.299155712E0,2.834551343E0
4.701977662E0,1.537652731E0,1.307744980E-1,-2.276891708E0,2.750584255E0
4.711977662E0,1.441519260E0,1.415443420E-1,-2.259659767E0,2.684040768E0
4.721979745E0,1.362622380E0,1.667509079E-1,-2.232897520E0,2.621140391E0
4.731978443E0,1.317145705E0,2.090959549E-1,-2.201930523E0,2.574313880E0
4.741983130E0,1.328587651E0,3.222970963E-1,-2.180494785E0,2.573631301E0
4.751985995E0,1.355098844E0,1.365465164E0,-2.166429281E0,2.897275241E0
4.761988339E0,1.378424287E0,1.384403229E0,-2.161526203E0,2.913558193E0
4.771989901E0,1.377520919E0,1.403250694E0,-2.179536343E0,2.935482083E0
4.781988078E0,1.365266800E0,1.322268486E0,-2.232297897E0,2.931808535E0
4.791986516E0,1.329162598E0,1.341052055E0,-2.868829966E0,3.434425599E0
4.802023495E0,1.296909332E0,1.359584808E0,-2.952321053E0,3.499520576E0
4.811988599E0,1.249325752E0,1.375567436E0,-3.692006111E0,4.133268650E0
4.821989120E0,1.207871199E0,1.391444206E0,-3.773539305E0,4.199365273E0
4.832046099E0,1.152179956E0,1.307464600E0,-3.857051373E0,4.232472991E0
4.841983703E0,1.112959862E0,1.323463440E0,-4.460061073E0,4.783553063E0
4.851967870E0,1.111519575E0,1.339676857E0,-4.439236164E0,4.768335933E0
4.861976932E0,1.152045965E0,1.355470657E0,-4.353228092E0,4.702670032E0
4.871988860E0,1.245737076E0,2.362465858E0,-4.212040424E0,4.987423216E0
4.881995891E0,1.887341499E0,2.474495888E0,-3.361084700E0,4.580619848E0
4.891987297E0,1.966576338E0,3.265448570E0,-3.183141232E0,4.966182131E0
4.902033130E0,2.048187494E0,3.330328941E0,-2.360531807E0,4.567085863E0
4.911987297E0,2.642345905E0,3.430193901E0,-2.241905928E0,4.875896253E0
4.921988078E0,2.645161390E0,4.166378021E0,-2.080595493E0,5.355787729E0
4.931987297E0,2.567972898E0,4.232963562E0,-2.059834003E0,5.362404446E0
4.941992245E0,2.455780745E0,4.313134193E0,-2.110589981E0,5.393382585E0
4.951988599E0,1.659745693E0,4.964449883E0,-2.746546268E0,5.911347969E0
4.961987818E0,1.533455849E0,5.017326355E0,-2.825679541E0,5.958986110E0
4.971985214E0,6.910562515E-1,5.089600563E0,-2.907681465E0,5.902220272E0
4.981999693E0,5.516564846E-1,5.156054497E0,-2.979565859E0,5.980554787E0
4.991987297E0,-3.994662762E-1,5.178095818E0,-3.032666683E0,6.014093183E0
5.002029224E0,-5.312129259E-1,5.136789322E0,-3.054637671E0,5.999966917E0
5.012020735E0,-2.013536692E0,5.019264221E0,-3.018281221E0,6.193332291E0
5.021983703E0,-2.151303291E0,4.234462738E0,-2.896220922E0,5.562991656E0
5.031985630E0,-2.086915970E0,4.093578339E0,-2.054375648E0,5.033195922E0
5.041976672E0,-2.001689672E0,3.249206543E0,-1.910144806E0,4.267640787E0
5.051989120E0,-1.915506721E0,3.161139488E0,-1.022138715E0,3.834936298E0
5.061979745E0,-1.805786490E0,3.077175140E0,-8.990391493E-1,3.679421569E0
5.071978443E0,-1.896138310E0,3.050695419E0,6.311647594E-2,3.592501458E0
5.081977662E0,-1.748204827E0,3.061594009E0,9.098166972E-2,3.526734419E0
5.091977401E0,-1.614171624E0,3.120290756E0,1.184105873E-1,3.515079729E0
5.102020891E0,-1.447906733E0,3.214864731E0,1.646745801E-1,3.529717674E0
5.111975318E0,-1.528065681E0,3.203217506E0,-1.183907628E0,3.741286462E0
5.121976620E0,-1.413823009E0,3.108905792E0,-1.318627596E0,3.661006619E0
5.131978964E0,-1.303435802E0,2.956959724E0,-1.459310174E0,3.545721631E0
5.141977141E0,-1.200566530E0,9.445066452E-1,-2.126283169E0,2.618116290E0
5.151978703E0,7.288039923E-1,9.550914764E-1,-2.172657728E0,2.482699457E0
5.161976620E0,1.498697162E0,8.673677444E-1,-2.187503815E0,2.789909125E0
5.171976620E0,2.331273079E0,8.802747726E-1,-2.143962622E0,3.287292741E0
5.181979485E0,3.055800438E0,8.936195374E-1,-2.058213949E0,3.791136618E0
5.192012870E0,3.218499660E0,-6.962080002E-1,-1.323307514E0,3.548885518E0
5.202037089E0,3.978118420E0,-7.809686661E-1,-1.283446670E0,4.252360941E0
5.211969693E0,3.963365555E0,-8.869857788E-1,-1.251640916E0,4.249895913E0
5.221980422E0,3.881958961E0,-1.578645229E0,-1.224243760E0,4.365833130E0
5.231982349E0,3.733194351E0,-1.614518166E0,-2.315946966E-1,4.073947112E0
5.241982349E0,2.999943018E0,-1.650793552E0,-2.022157609E-1,3.430112050E0
5.251987818E0,2.777628899E0,-1.694638729E0,-1.774715334E-1,3.258606890E0
5.261982089E0,1.733134508E0,-1.734051704E0,-3.474805355E-1,2.476173108E0
5.271977662E0,1.500537634E0,-1.775444508E0,-3.170740008E-1,2.346135613E0
5.281980005E0,3.347508907E-1,-1.897542953E0,-2.713115513E-1,1.945851325E0
5.291978703E0,-4.545226097E-1,-2.542193890E0,-2.647018433E-1,2.596036911E0
5.302018807E0,-6.127688885E-1,-2.594341278E0,-4.580974579E-1,2.704800484E0
5.311977662E0,-7.763497829E-1,-3.258171082E0,-4.502442777E-1,3.379514417E0
5.321979485E0,-9.057645798E-1,-3.390992165E0,-4.405732155E-1,3.537420260E0
5.331977662E0,-1.895390987E0,-4.520350933E0,-4.286435843E-1,4.920347028E0
5.341977662E0,-1.849265456E0,-5.187145710E0,5.280718803E-1,5.532189734E0
5.351976880E0,-1.997811675E0,-5.332287312E0,5.616710782E-1,5.721889012E0
5.361979745E0,-8.535590172E-1,-6.251209259E0,6.398155093E-1,6.341572682E0
5.371994849E0,-1.267045736E-1,-6.277538300E0,1.460872889E0,6.446525479E0
5.381978807E0,4.403638840E-2,-6.239646912E0,1.560382128E0,6.431945675E0
5.391989120E0,1.264774680E0,-6.067609787E0,2.382623672E0,6.640213783E0
5.402020370E0,2.289051294E0,-4.386170387E0,2.446770430E0,5.519504691E0
5.411983130E0,3.435114384E0,-2.672128677E0,3.276987553E0,5.447837178E0
5.421978443E0,4.622307777E0,-6.981077194E-1,3.340127468E0,5.745392509E0
5.431977401E0,5.659473419E0,1.236450195E0,4.009459019E0,7.045155079E0
5.441986776E0,6.368656158E0,3.023370743E0,3.936789036E0,8.074581093E0
5.451982349E0,6.390336037E0,4.353861809E0,3.844343185E0,8.635478090E0
5.461982349E0,6.319684029E0,5.242956161E0,3.725328922E0,9.016932467E0
5.471978964E0,6.052578926E0,5.179587364E0,3.583270550E0,8.735082412E0
5.481981307E0,4.585690498E0,3.859410286E0,3.409703732E0,6.895627937E0
5.491978703E0,3.392140150E0,1.374093056E0,3.282913208E0,4.916529839E0
5.502019068E0,2.255488873E0,1.443044662E0,3.188575029E0,4.163726536E0
5.511975839E0,1.347392321E0,-4.795761108E-1,3.108895302E0,3.422088443E0
5.521978703E0,1.150854588E0,-1.519547462E0,3.019831896E0,3.571116835E0
5.531977662E0,4.196102619E-1,-1.625658512E0,2.852760077E0,3.310147795E0
5.541979745E0,3.617095947E-1,-1.654812813E0,1.939765453E0,2.575253248E0
5.552013182E0,3.340940475E-1,-1.540450096E0,3.749046326E-1,1.620234185E0
5.561974172E0,2.983026505E-1,-2.121858597E-1,-2.711822510E0,2.736418944E0
5.571986568E0,2.664496899E-1,1.776227951E0,-4.097669601E0,4.474022500E0
5.581976151E0,-3.372626305E-1,4.504453659E0,-6.129698753E0,7.614266587E0
5.591978443E0,-4.277153015E-1,7.217988014E0,-7.429486275E0,1.036723481E1
5.602024797E0,-1.193492889E0,9.091683388E0,-8.341881752E0,1.239637541E1
5.611980005E0,-1.182830334E0,9.876460075E0,-8.494813919E0,1.308072684E1
5.621978703E0,-1.193332314E0,9.785573959E0,-8.519137383E0,1.302909058E1
5.631978443E0,-2.105519533E0,8.420124054E0,-8.263622284E0,1.198412095E1
5.641984953E0,-2.130271196E0,3.739130974E0,-6.181598663E0,7.532019506E0
5.651978443E0,-1.996564627E0,1.413121223E0,-5.879641533E0,6.368152515E0
5.661977662E0,-1.841023684E0,-2.485250473E0,-5.724633694E0,6.506709540E0
5.671977141E0,-1.689434528E0,-4.441708565E0,-5.629794121E0,7.367329628E0
5.681976880E0,-6.619119644E-1,-5.182293892E0,-5.528803825E0,7.606705540E0
5.691981047E0,-5.537973642E-1,-5.115955353E0,-5.392637253E0,7.453873304E0
5.702020370E0,-4.425023794E-1,-3.510827541E0,-5.203084946E0,6.292361348E0
5.711978703E0,-3.272714615E-1,-1.738224030E0,-4.963285446E0,5.269035187E0
5.721977401E0,-2.008957863E-1,1.152100563E0,-4.011389256E0,4.178389472E0
5.731999380E0,5.129203796E-1,1.046203613E0,-3.741517544E0,3.918747612E0
5.741972453E0,6.490103006E-1,2.978424072E0,-2.582448006E0,3.995154819E0
5.751974901E0,8.010989428E-1,3.630201340E0,-2.349609375E0,4.397815992E0
5.761982610E0,1.492794275E0,3.640818596E0,-2.151829004E0,4.484903885E0
5.771975891E0,1.523664355E0,3.521850586E0,-2.028849125E0,4.340646656E0
5.781982089E0,1.504800200E0,2.305684090E0,-2.011750221E0,3.409947465E0
5.791981047E0,1.416465402E0,9.372911453E-1,-2.043434858E0,2.657162950E0
5.802019589E0,6.988605261E-1,-9.016036987E-2,-2.684569597E0,2.775508755E0
5.811978182E0,6.284788847E-1,-1.051781654E0,-2.684723616E0,2.951096618E0
5.821976880E0,4.903143644E-1,-1.976557732E0,-2.794161797E0,3.457532182E0
5.831981047E0,4.867891073E-1,-1.974570751E0,-2.834827900E0,3.488859772E0
5.841994068E0,5.726422071E-1,-1.908635616E0,-3.390679121E0,3.932876036E0
5.851976360E0,1.308630824E0,-1.786763191E0,-3.327182293E0,3.996896214E0
5.861976880E0,2.021509647E0,-9.397811890E-1,-3.225927591E0,3.921262394E0
5.871979224E0,2.707110405E0,-8.727364540E-1,-3.084484577E0,4.195731256E0
5.881977401E0,2.811044216E0,-8.133802414E-1,-2.423586845E0,3.799648694E0
5.891978443E0,3.545501232E0,-7.803487778E-1,-2.317447662E0,4.306981178E0
5.902026360E0,3.555100203E0,-7.653255463E-1,-2.195763111E0,4.248039110E0
5.911994380E0,3.540864944E0,-7.661285400E-1,-2.064782619E0,4.169892656E0
5.921987089E0,3.471098661E0,-7.723159790E-1,-1.387735128E0,3.817172602E0
5.931976932E0,3.346411943E0,-7.629909515E-1,-1.298808098E0,3.669813423E0
5.941978964E0,3.196769238E0,-7.130985260E-1,-1.212700486E0,3.492633038E0
5.951989380E0,3.014265299E0,-6.152009964E-1,-1.136245012E0,3.279530498E0
5.961979745E0,2.320515394E0,-4.832410812E-1,-1.073195219E0,2.601934207E0
5.971984432E0,2.175963640E0,1.019374847E0,-1.063462138E0,2.627716606E0
5.981995526E0,1.997664690E0,1.052077293E0,-1.066157222E0,2.496842419E0
5.991981568E0,1.257276058E0,1.084806442E0,-1.099205256E0,1.991431721E0
6.002034432E0,1.052299142E0,1.137240410E0,-1.816177011E0,2.387288874E0
6.011988339E0,9.351054430E-1,1.069475174E0,-1.905160666E0,2.376517725E0
6.021994328E0,8.882079124E-1,1.092722893E0,-2.588054180E0,2.946350464E0
6.031988860E0,9.052393436E-1,1.115335464E0,-2.677699566E0,3.038668530E0
6.041990682E0,9.900693893E-1,1.136852264E0,-2.784821987E0,3.166686591E0
6.051986516E0,1.920480251E0,2.249028206E0,-3.466173649E0,4.556394631E0
6.061988599E0,2.586730003E0,2.333727837E0,-3.471895695E0,4.918487312E0
6.071988860E0,2.737654448E0,2.432114601E0,-3.424820900E0,5.013913791E0
6.081988860E0,3.712856531E0,2.517366409E0,-3.353672743E0,5.600853339E0
6.091999224E0,3.791838646E0,2.572457314E0,-3.236007690E0,5.609574201E0
6.101994016E0,3.845212460E0,2.610357285E0,-3.086673737E0,5.579173664E0
6.111982610E0,3.834843874E0,2.685848236E0,-2.425205231E0,5.272706013E0
6.121993339E0,3.748764992E0,3.372684479E0,-2.350488663E0,5.563545318E0
6.131993547E0,3.597439051E0,3.494034767E0,-2.297911644E0,5.516361536E0
6.141993547E0,2.712215900E0,4.324832916E0,-2.264576912E0,5.584675768E0
6.151988599E0,2.519547462E0,4.418833733E0,-2.238820553E0,5.557564974E0
6.161989120E0,1.348174334E0,4.524560928E0,-2.206700802E0,5.211406150E0
6.171993026E0,5.258200169E-1,4.609007835E0,-2.166859627E0,5.120031304E0
6.181994589E0,-1.062294245E0,4.644167900E0,-2.063481569E0,5.191793595E0
6.191988078E0,-2.334741354E0,4.576228142E0,-1.956646204E0,5.497394434E0
6.202037818E0,-2.498803139E0,4.486048698E0,-1.176326036E0,5.268054005E0
6.211990943E0,-2.457386017E0,4.414518356E0,-1.074108005E0,5.165309900E0
6.221987557E0,-2.382885933E0,4.381005287E0,-4.357448220E-1,5.006118880E0
6.231988599E0,-2.287245035E0,4.378146172E0,-3.517292142E-1,4.952107348E0
6.241993807E0,-2.172489643E0,4.407091141E0,7.475216985E-1,4.970005258E0
6.251991724E0,-2.238725424E0,4.429479599E0,5.876677036E-1,4.997752932E0
6.261979745E0,-2.072736979E0,4.426958084E0,6.056993604E-1,4.925552576E0
6.271994120E0,-1.912388325E0,4.402869225E0,6.210209727E-1,4.840263791E0
6.281985630E0,-1.758272529E0,4.329741478E0,6.166442037E-1,4.713643349E0
6.291975630E0,-1.611167669E0,4.185920715E0,6.107143760E-1,4.526672679E0
6.302026880E0,-2.520967722E-1,3.301666260E0,3.785332441E-1,3.332842674E0
6.311980787E0,-3.917491436E-2,3.137845039E0,-7.697196603E-1,3.231110416E0
6.321981828E0,8.497672081E-1,2.175251961E0,-8.804794550E-1,2.495810384E0
6.331978703E0,1.052954912E0,2.050837517E0,-9.942978621E-1,2.510632750E0
6.341980005E0,2.018523216E0,7.290487289E-1,-1.104016304E0,2.413462248E0
6.351988339E0,2.171437263E0,6.420421600E-1,-1.206169844E0,2.565580561E0
6.361977662E0,3.084532261E0,6.770057678E-1,-1.273597360E0,3.405102981E0
6.371976620E0,3.122486353E0,-6.328058243E-1,-1.274055839E0,3.431265439E0
6.381978182E0,3.125050545E0,-7.759866714E-1,-1.251045942E0,3.454448172E0
6.391978443E0,3.063843250E0,-1.815867424E0,-1.235037327E0,3.769592440E0
6.402019328E0,2.959377289E0,-1.967426300E0,-1.220904231E0,3.757564015E0
6.411977401E0,2.788848400E0,-3.005342007E0,-1.213728786E0,4.275850037E0
6.421976620E0,1.994903445E0,-3.100152016E0,-1.202121615E0,3.877586705E0
6.431980526E0,1.812619567E0,-3.867827892E0,-1.176122069E0,4.430456570E0
6.441978964E0,9.927273989E-1,-3.954110146E0,-1.108430505E0,4.224821051E0
6.451997662E0,8.140112162E-1,-4.653510571E0,-1.018263340E0,4.832663357E0
6.461988339E0,1.202511787E-2,-4.724811554E0,5.414133891E-2,4.725137047E0
6.471978235E0,-1.587331295E-1,-5.404811859E0,1.031389460E-1,5.408125838E0
6.481986255E0,-9.119656086E-1,-5.479315758E0,1.557257175E-1,5.556872587E0
6.491982349E0,-1.035030961E0,-6.175576687E0,9.704902768E-3,6.261719468E0
6.502021672E0,-2.136567593E0,-6.246603966E0,6.532064080E-2,6.602215459E0
6.511980005E0,-2.119538784E0,-6.860136986E0,8.763078600E-2,7.180640868E0
6.521980526E0,-2.083210468E0,-6.892827988E0,1.131608486E-1,7.201642097E0
6.531983651E0,-2.050505877E0,-6.898478508E0,1.832076073E0,7.426310175E0
6.541980266E0,-2.152798653E0,-5.883980274E0,3.032805443E0,6.960867386E0
6.551983130E0,-2.097707748E0,-4.367584705E0,3.157482386E0,5.783240352E0
6.561981307E0,3.432276249E-1,-2.225378036E0,4.196943283E0,4.762819074E0
6.571982610E0,1.774995804E0,1.065639496E0,4.905605793E0,5.324581283E0
6.581976099E0,3.340443611E0,2.464375496E0,5.496789932E0,6.888135427E0
6.591980005E0,4.634472370E0,4.354512215E0,5.545498371E0,8.437574471E0
6.602018807E0,5.599934101E0,5.660018921E0,6.219420433E0,1.010327999E1
6.611976620E0,5.780612469E0,6.317988396E0,6.103054047E0,1.051568954E1
6.621976099E0,5.840955734E0,6.304189682E0,5.933744907E0,1.044360570E1
6.631986412E0,5.762187004E0,5.525732994E0,5.742984772E0,9.834551250E0
6.641990578E0,4.713036537E0,4.149638176E0,5.501618385E0,8.348653499E0
6.651983703E0,3.373808861E0,2.578622818E0,5.204772949E0,6.717257128E0
6.661979224E0,2.023461342E0,1.052137375E0,4.298430443E0,4.865993540E0
6.671976151E0,9.838896990E-1,1.111575127E0,3.365378857E0,3.678235046E0
6.681983651E0,2.773368359E-1,3.642177582E-2,2.289518118E0,2.306541887E0
6.691987557E0,1.358089447E-1,9.338188171E-2,1.091262341E0,1.103638411E0
6.702024537E0,-6.959915161E-1,1.195265770E0,-2.001967430E-1,1.397548993E0
6.711977141E0,-7.928977013E-1,2.364353180E0,-2.374678373E0,3.443537440E0
6.721978182E0,-2.113003492E0,5.685050011E0,-4.394040108E0,7.489470332E0
6.731976099E0,-2.008748770E0,6.397741318E0,-5.602146149E0,8.737860554E0
6.741977401E0,-1.889701962E0,6.418202400E0,-6.600853920E0,9.398700337E0
6.751983651E0,-1.776777983E0,6.321997643E0,-7.298000813E0,9.817607145E0
6.761977401E0,-1.645409346E0,5.323731422E0,-7.330423355E0,9.207855056E0
6.771978443E0,-1.710942268E0,3.987473488E0,-7.252958298E0,8.451785156E0
6.781978964E0,-1.541385651E0,2.078264236E0,-7.128839493E0,7.583891117E0
6.791976880E0,1.056016684E-1,-2.207984924E-1,-6.931517601E0,6.935837364E0
6.802018547E0,2.913652658E-1,-2.061972618E0,-6.705667496E0,7.021581115E0
6.811996255E0,4.394305944E-1,-3.044062614E0,-6.424068451E0,7.122364208E0
6.821975005E0,5.553865433E-1,-3.111160278E0,-5.519380093E0,6.360135934E0
6.831987662E0,6.589628458E-1,-3.000701904E0,-5.174692631E0,6.017963756E0
6.841983130E0,7.552988529E-1,-1.554046154E0,-4.025171757E0,4.380358830E0
6.851986255E0,8.045167923E-1,-3.522195816E-1,-3.726150990E0,3.828251180E0
6.861979745E0,8.736887574E-1,7.921085358E-1,-2.815483093E0,3.052492920E0
6.871988339E0,9.619119763E-1,6.956357956E-1,-2.596076965E0,2.854610205E0
6.881979224E0,1.039398432E0,7.040920258E-1,-2.426538467E0,2.732065814E0
6.891978182E0,1.099009991E0,7.161216736E-1,-2.332062244E0,2.675662072E0
6.902017505E0,1.132402658E0,7.494134903E-1,-2.385598421E0,2.745002038E0
6.911976880E0,1.125064611E0,6.648607254E-1,-3.062320709E0,3.329507214E0
6.921977922E0,1.099715590E0,-1.098819733E0,-3.099498034E0,3.467516005E0
6.931979745E0,1.058350563E0,-1.772059917E0,-3.148446321E0,3.764706696E0
6.941981568E0,1.035538077E0,-1.842891693E0,-3.186221600E0,3.823688924E0
6.951982089E0,1.049338222E0,-1.899080753E0,-3.219011068E0,3.881964795E0
6.961978703E0,1.114354610E0,-1.917959213E0,-3.247798920E0,3.933007954E0
6.971979485E0,1.778979540E0,-1.894161701E0,-3.280660868E0,4.185134703E0
6.981979693E0,1.896840572E0,-1.813759804E0,-3.290485144E0,4.208921627E0
6.991997870E0,2.854401588E0,-1.721359730E0,-3.266111851E0,4.666709158E0
7.002007037E0,2.958450079E0,-1.623988628E0,-3.217255592E0,4.662670853E0
7.011994745E0,3.749382019E0,-1.527419090E0,-3.145375013E0,5.126817588E0
7.021988130E0,3.769375801E0,-1.436479092E0,-3.022181988E0,5.040362098E0
7.031979485E0,3.733470917E0,-1.342435360E0,-2.856213808E0,4.888649619E0
7.041978964E0,3.656914234E0,-1.257464409E0,-1.993239641E0,4.350545106E0
7.051988078E0,3.484681368E0,-1.166143894E0,-1.791650295E0,4.088142194E0
7.061982610E0,2.706761360E0,-1.111196518E0,-8.956751823E-1,3.059991633E0
7.071977662E0,2.477704048E0,-1.059890270E0,-7.670354247E-1,2.801915073E0
7.081977401E0,1.320789576E0,-9.323925972E-1,-5.481550694E-1,1.707136503E0
7.091983651E0,1.130680442E0,-8.115215302E-1,-4.525728822E-1,1.463498435E0
7.102017766E0,4.621366262E-1,8.698091507E-1,-3.758299351E-1,1.054223107E0
7.111977922E0,3.972404003E-1,9.023523331E-1,-3.854554296E-1,1.058591308E0
7.121977922E0,3.782896996E-1,9.346046448E-1,-4.356929064E-1,1.098370269E0
7.131978964E0,4.244768620E-1,9.653577805E-1,-5.265431404E-1,1.178704343E0
7.141977922E0,1.267865658E0,9.879379272E-1,-1.180766582E0,1.994420817E0
7.151983130E0,1.394605637E0,9.103527069E-1,-1.282633305E0,2.102097792E0
7.161977662E0,2.470144033E0,9.275350571E-1,-1.411763668E0,2.992492186E0
7.171994953E0,2.580971241E0,2.040865898E0,-2.098910809E0,3.902816002E0
7.181979745E0,3.355115652E0,2.718021393E0,-2.130938053E0,4.815115608E0
7.191985266E0,3.424324274E0,2.735801697E0,-2.135259628E0,4.875442681E0
7.202013651E0,3.502957106E0,2.757534027E0,-2.116783381E0,4.935126571E0
7.211979485E0,4.179282665E0,2.754386902E0,-2.058248043E0,5.411971527E0
7.221979745E0,4.168041229E0,2.721463203E0,-1.984778404E0,5.358943457E0
7.231977662E0,4.141041756E0,2.671603203E0,-1.916611910E0,5.287635739E0
7.241978443E0,4.041590691E0,2.639999390E0,-1.840475321E0,5.166372179E0
7.251992505E0,3.891061783E0,2.658444405E0,-1.744401813E0,5.025000113E0
7.261988860E0,2.955471754E0,3.403517723E0,-1.642291307E0,4.797485479E0
7.271988339E0,1.668573141E0,3.521604538E0,-1.608096838E0,4.215662497E0
7.281985995E0,7.489922047E-1,4.292667389E0,-1.567065954E0,4.630731944E0
7.291989380E0,-2.812924385E-1,4.410396576E0,-1.515365362E0,4.671943447E0
7.302017766E0,-1.324806213E0,5.116064072E0,-1.462013841E0,5.483311733E0
7.311986516E0,-2.714425087E0,5.181749344E0,-1.435936213E0,6.023333182E0
7.321986516E0,-2.699912310E0,5.225877762E0,-1.450659037E0,6.058360876E0
7.331987818E0,-2.677423000E0,5.246810913E0,-1.444384456E0,6.064970333E0
7.341987818E0,-2.807728529E0,5.244631767E0,-1.387578726E0,6.108590393E0
7.352026412E0,-2.712687492E0,5.256944656E0,-1.269765615E0,6.050326047E0
7.361984745E0,-2.583981037E0,5.273817062E0,-4.429057837E-1,5.889505068E0
7.371995682E0,-2.429798841E0,5.267863274E0,-3.502089381E-1,5.811794231E0
7.381976932E0,-2.243883610E0,5.230821609E0,9.176957607E-1,5.765299114E0
7.391987297E0,-2.264878511E0,5.142358780E0,7.503886819E-1,5.668916269E0
7.402034172E0,-5.413541794E-1,4.989499092E0,7.814231515E-1,5.079250701E0
7.411989120E0,2.518234253E-1,3.900917053E0,8.082183003E-1,3.991714633E0
7.421993287E0,5.202474594E-1,3.065266609E0,8.056628704E-1,3.211792251E0
7.431989380E0,1.567200422E0,2.184270859E0,-5.417426825E-1,2.742378800E0
7.441995110E0,1.871567249E0,5.620698929E-1,-1.646891117E0,2.555569777E0
7.451987818E0,2.747159004E0,5.690002441E-1,-1.755925655E0,3.309670494E0
7.461984432E0,2.828897476E0,5.803012848E-1,-1.820100307E0,3.413528327E0
7.471985995E0,2.889503002E0,-7.336502075E-1,-1.839293361E0,3.502923107E0
7.481987297E0,2.875079155E0,-8.306798935E-1,-1.835398674E0,3.510669099E0
7.491986776E0,2.822098732E0,-1.641109943E0,-1.803148746E0,3.729454183E0
7.502027922E0,2.713744402E0,-1.767801285E0,-1.730838776E0,3.672238136E0
7.511978703E0,2.545545101E0,-2.771481514E0,-1.627125144E0,4.099810469E0
7.521977922E0,1.697342515E0,-2.915370464E0,-1.529185295E0,3.703885018E0
7.532007453E0,1.520955563E0,-4.009307384E0,-1.434689879E0,4.521745966E0
7.541981360E0,6.059180498E-1,-4.110552311E0,-1.334028721E0,4.363875527E0
7.551964224E0,4.054870605E-1,-4.855150223E0,-1.222133994E0,5.022998601E0
7.561980162E0,-5.593924522E-1,-4.889092922E0,-1.102423906E0,5.042964206E0
7.571977974E0,-7.519199848E-1,-4.910213470E0,-9.996688366E-1,5.067042310E0
7.581982610E0,-2.273911238E0,-4.918094158E0,-9.070953727E-1,5.493736841E0
7.591981047E0,-2.273045063E0,-4.926400661E0,-7.981847525E-1,5.483908846E0
7.602004485E0,-2.276352882E0,-4.948271751E0,-6.667815447E-1,5.487419557E0
7.611978703E0,-2.256248236E0,-5.013119698E0,9.387089610E-1,5.577024271E0
7.621980526E0,-2.367730618E0,-5.832417965E0,8.547947407E-1,6.352473663E0
7.631977141E0,-2.315111160E0,-6.535079956E0,9.297623038E-1,6.995103120E0
7.641982349E0,-2.217985868E0,-6.590941429E0,2.629837513E0,7.434784165E0
7.651978964E0,-2.119446993E0,-6.570485115E0,2.821914911E0,7.458319782E0
7.661978964E0,-2.019998312E0,-5.611651897E0,3.734037876E0,7.036623413E0
7.671977922E0,-2.119867325E0,-3.383059978E0,3.856483936E0,5.550801802E0
7.681981047E0,5.287519693E-1,-3.177528381E-1,5.178307056E0,5.214921810E0
7.691980005E0,2.368583679E0,2.985236168E0,6.146366596E0,7.231849415E0
7.702002922E0,4.254480839E0,5.907457352E0,7.098772049E0,1.016814753E1
7.712010682E0,5.691288948E0,8.052278519E0,7.810772896E0,1.257927392E1
7.721979537E0,6.589669228E0,9.198224068E0,7.784636974E0,1.373432340E1
7.731978912E0,6.729100227E0,9.221561432E0,7.717409134E0,1.377956417E1
7.741977714E0,6.704992294E0,8.423575401E0,8.154861450E0,1.350612119E1
7.751983912E0,5.953815460E0,6.077198982E0,7.860002518E0,1.158274171E1
7.761974016E0,4.580057144E0,3.121940613E0,6.878593922E0,8.833939720E0
7.771982089E0,2.974377155E0,6.679868698E-1,5.558188915E0,6.339289387E0
7.781982610E0,1.591485262E0,-1.597523689E0,3.844368458E0,4.456913295E0
7.791978964E0,7.347762585E-1,-2.310894012E0,1.964505672E0,3.120802753E0
7.802001880E0,4.722306728E-1,-2.668142319E-1,-1.298673153E0,1.407388930E0
7.811976099E0,-3.178030252E-1,2.119253159E0,-3.108830690E0,3.775852351E0
7.821980266E0,-4.778929949E-1,4.640044212E0,-4.535577774E0,6.506140004E0
7.831976620E0,-5.518985987E-1,6.430580139E0,-5.705884933E0,8.614759188E0
7.841985735E0,-5.080690384E-1,7.291267395E0,-6.594693184E0,9.844322860E0
7.851978182E0,-4.168739319E-1,7.243047714E0,-6.734213352E0,9.898745049E0
7.861978443E0,-3.262178898E-1,6.324605942E0,-6.755581856E0,9.259856621E0
7.871976672E0,-2.349902391E-1,4.879952431E0,-6.647241116E0,8.249543659E0
7.881980005E0,-9.840726852E-2,2.891136169E0,-6.423191547E0,7.044554066E0
7.892016880E0,6.243336201E-2,7.480478287E-1,-5.598074436E0,5.648177659E0
7.902023026E0,9.731193781E-1,-1.883749008E0,-5.318437576E0,5.725491237E0
7.911966099E0,1.055114746E0,-3.438737869E0,-5.039652348E0,6.191629918E0
7.921984485E0,1.038417935E0,-3.616512299E0,-4.778420925E0,6.082004567E0
7.931979485E0,2.876169682E-1,-3.637362480E0,-4.533314228E0,5.819284082E0
7.941980266E0,1.785563231E-1,-3.477539062E0,-3.716481686E0,5.092877027E0
7.951979224E0,-1.442641616E0,-2.000533104E0,-3.491365194E0,4.274690451E0
7.961980787E0,-1.577247739E0,-9.115924835E-1,-2.633663893E0,3.202326777E0
7.971980526E0,-1.512505651E0,5.662841797E-1,-2.383022547E0,2.878740623E0
7.981984328E0,-1.408351064E0,5.989837646E-1,-1.494062901E0,2.138798312E0
7.991977141E0,2.414355278E-1,6.132564545E-1,-1.365427017E0,1.516168042E0
8.002002662E0,3.866086006E-1,5.285758972E-1,-1.267057538E0,1.426286610E0
8.011977401E0,1.244465351E0,5.444135666E-1,-1.236001015E0,1.836512633E0
8.021978182E0,1.329563260E0,5.606174469E-1,-1.261450768E0,1.916582485E0
8.031977922E0,1.386340499E0,5.766086578E-1,-1.869330406E0,2.397668386E0
8.041986255E0,1.388232470E0,-1.249457359E0,-1.928128600E0,2.684401792E0
8.051977141E0,1.352057457E0,-1.323956013E0,-2.001209974E0,2.754225890E0
8.061978964E0,1.280548334E0,-1.398183823E0,-2.048449755E0,2.791212718E0
8.072041047E0,6.380189657E-1,-1.468546867E0,-2.103052616E0,2.643204193E0
8.081982401E0,5.805655718E-1,-1.529218674E0,-2.153630257E0,2.704383371E0
8.091966985E0,5.436660051E-1,-1.591204166E0,-2.220420361E0,2.785277365E0
8.102002453E0,5.630279779E-1,-1.653396606E0,-2.776638031E0,3.280310900E0
8.111977922E0,6.322700977E-1,-1.709020138E0,-2.730507851E0,3.282710531E0
8.121983391E0,1.487809539E0,-1.750753403E0,-2.651981831E0,3.508806397E0
8.131976099E0,1.609955430E0,-1.755774021E0,-2.536963940E0,3.480069673E0
8.141975318E0,2.646823406E0,-1.718944550E0,-2.408463240E0,3.970030187E0
8.151978703E0,2.747817516E0,-1.630484581E0,-2.274754047E0,3.922178865E0
8.161979224E0,3.546031952E0,-6.603231430E-1,-1.532497883E0,3.919045677E0
8.171977922E0,3.503509045E0,-5.591316223E-1,-1.419212937E0,3.821173793E0
8.181977401E0,3.407547474E0,-4.288234711E-1,-1.299117088E0,3.671917015E0
8.191977401E0,3.221939087E0,6.593437195E-1,-1.209065557E0,3.503921395E0
8.202004485E0,2.355884552E0,6.988868713E-1,-1.149007559E0,2.712720636E0
8.211979224E0,2.175812244E0,7.386827469E-1,-1.129993320E0,2.560604621E0
8.221979485E0,2.000148296E0,7.737407684E-1,-1.163505435E0,2.439879686E0
8.231976620E0,1.846502542E0,2.258216858E0,-1.216609716E0,3.160578146E0
8.241983130E0,1.732422113E0,2.388276100E0,-1.266063929E0,3.210617850E0
8.252075891E0,1.688478231E0,3.189189911E0,-1.332613826E0,3.846784454E0
8.261987089E0,1.700254202E0,3.281533241E0,-1.969729900E0,4.187978109E0
8.271965214E0,1.748996496E0,3.356546402E0,-2.012577057E0,4.286707233E0
8.281975110E0,1.825247288E0,3.372292519E0,-2.063224554E0,4.354397783E0
8.291978182E0,2.503901482E0,3.326610565E0,-2.100113869E0,4.663296982E0
8.302007610E0,2.521537066E0,3.285908699E0,-2.081020355E0,4.635298358E0
8.311977922E0,2.553874254E0,3.271512985E0,-2.051147461E0,4.629500710E0
8.321977922E0,2.562134743E0,3.287405014E0,-2.027638435E0,4.634963192E0
8.331978964E0,2.539668560E0,3.362078667E0,-2.011523724E0,4.669016711E0
8.341977141E0,1.682640791E0,4.282345772E0,-1.975714922E0,5.007316127E0
8.351983130E0,8.428885937E-1,4.391724586E0,-1.853104591E0,4.840630398E0
8.361978443E0,-1.929984093E-1,5.178992271E0,-1.053520918E0,5.288583521E0
8.371978182E0,-1.344557643E0,5.260643959E0,-9.367754459E-1,5.509968998E0
8.381976620E0,-2.531995058E0,5.321038246E0,-2.546343803E-1,5.898244286E0
8.391978703E0,-3.490421534E0,5.352663040E0,-1.642026901E-1,6.392261464E0
8.401998755E0,-4.246263027E0,5.356440544E0,-5.012261868E-2,6.835548060E0
8.411977922E0,-4.337240219E0,5.361373901E0,1.421016812E0,7.040970928E0
8.421979224E0,-4.338668823E0,5.346469879E0,1.437398434E0,7.033839747E0
8.432113339E0,-4.191911697E0,5.293647766E0,1.253196716E0,6.867702116E0
8.441966516E0,-3.935194969E0,5.180456161E0,1.250810504E0,6.624757535E0
8.451974797E0,-2.026372433E0,4.477798462E0,1.248551250E0,5.071069367E0
8.461978755E0,-1.855992794E0,4.304579735E0,1.244261980E0,4.849979775E0
8.471976568E0,-1.693564773E0,3.277606964E0,1.199986100E0,3.879540655E0
8.481981047E0,-1.735214233E0,3.091974258E0,9.590023160E-1,3.673004042E0
8.491980005E0,-1.052188873E-2,2.007048607E0,9.183443785E-1,2.207195328E0
8.502007610E0,2.014231682E-1,1.858509064E0,8.793501258E-1,2.065885737E0
8.511988860E0,1.022743344E0,3.662672043E-1,8.460063934E-1,1.376910466E0
8.521987037E0,2.075957775E0,2.885208130E-1,6.547101736E-1,2.195789233E0
8.531988339E0,2.254456043E0,2.938804626E-1,-1.120770812E0,2.534771191E0
8.541991464E0,2.997572660E0,3.062419891E-1,-1.257226467E0,3.264941715E0
8.551988339E0,3.054700375E0,3.206567764E-1,-1.386607170E0,3.369969524E0
8.561987037E0,3.062048435E0,3.383989334E-1,-1.508609176E0,3.430241406E0
8.571987297E0,3.010228395E0,-8.277025223E-1,-1.642114878E0,3.527478948E0
8.581987297E0,2.876800299E0,-1.891749382E0,-2.350018978E0,4.168607067E0
8.591988078E0,2.692673683E0,-2.039844513E0,-2.420961142E0,4.156020940E0
8.602032610E0,1.639198303E0,-3.128456116E0,-2.418343067E0,4.280489684E0
8.612102766E0,1.444614887E0,-3.251892090E0,-2.376357317E0,4.278877006E0
8.621971203E0,4.795184135E-1,-4.237716675E0,-2.280305862E0,4.836111594E0
8.631964120E0,2.948980331E-1,-4.332074642E0,-2.140641689E0,4.841093099E0
8.641978235E0,-6.266011000E-1,-5.026810169E0,-1.349612951E0,5.242413999E0
8.651985474E0,-1.725390315E0,-5.084597111E0,-1.234220266E0,5.509391907E0
8.661992505E0,-1.750340343E0,-5.155564785E0,-1.084010124E0,5.551451839E0
8.671989901E0,-1.949868441E0,-5.749670506E0,5.773783326E-1,6.098693598E0
8.681990162E0,-1.945569396E0,-5.792283058E0,6.561658978E-1,6.145432205E0
8.691991203E0,-1.917054057E0,-5.899377823E0,7.361007929E-1,6.246567004E0
8.702029485E0,-1.825433612E0,-6.903446198E0,8.582623601E-1,7.192106197E0
8.711988078E0,-1.940434694E0,-6.968282700E0,2.658470869E0,7.706472471E0
8.721990682E0,-1.853969932E0,-6.984166145E0,3.771988630E0,8.151299251E0
8.731992245E0,-1.771674991E0,-6.907799721E0,5.159266949E0,8.801963684E0
8.741988339E0,-4.173195362E-1,-5.961462975E0,6.719528198E0,8.992511084E0
8.751995630E0,7.283217907E-1,-4.289233208E0,8.129045486E0,9.220051771E0
8.761976880E0,2.200931072E0,-1.927297592E0,9.030563354E0,9.492610183E0
8.771977922E0,3.837460756E0,5.781116486E-1,9.031807899E0,9.830252899E0
8.781976880E0,5.243070602E0,3.330397606E0,8.962861061E0,1.090477950E1
8.792095057E0,6.161144257E0,5.309591293E0,8.792733192E0,1.197762978E1
8.802004641E0,6.246232986E0,6.569113731E0,8.453866005E0,1.239502046E1
8.811978391E0,6.225233078E0,6.695267677E0,7.425761700E0,1.177803349E1
8.821976255E0,6.082398891E0,6.686359406E0,6.135143757E0,1.092442068E1
8.831977662E0,5.197279453E0,5.740449905E0,4.871653080E0,9.148632825E0
8.841978182E0,4.000183582E0,4.070654869E0,4.433344364E0,7.226772586E0
8.851982870E0,2.586542130E0,2.302305222E0,3.256294250E0,4.753342168E0
8.861982089E0,1.402275205E0,6.745882034E-1,2.303052902E0,2.779477948E0
8.871980005E0,5.917661190E-1,7.486209869E-1,1.009718895E0,1.389299380E0
8.881981568E0,-2.001332045E-1,8.369903564E-1,-2.196077824E0,2.358678436E0
8.891978964E0,-3.514215946E-1,2.181538582E0,-4.463653564E0,4.980643620E0
8.901983651E0,-2.261386395E0,4.086616516E0,-6.137802124E0,7.712776276E0
8.911983391E0,-2.208095312E0,5.477603912E0,-7.385585308E0,9.456569138E0
8.921977401E0,-2.119472980E0,6.155861855E0,-8.216571808E0,1.048326539E1
8.931976620E0,-2.012139797E0,6.123159409E0,-8.298052788E0,1.050711510E1
8.941978182E0,-1.910601735E0,5.952569962E0,-8.279834747E0,1.037492899E1
8.951983912E0,-1.995118260E0,4.587531090E0,-8.113342285E0,9.531645262E0
8.961976880E0,-1.885445595E0,2.926934242E0,-7.775269508E0,8.519193922E0
8.972105005E0,-1.195868254E-1,6.083593369E-1,-6.265192986E0,6.295795838E0
8.982378287E0,6.976896524E-1,-1.667157173E0,-5.926672935E0,6.196098448E0
8.991983026E0,9.019086361E-1,-3.260310173E0,-5.646800995E0,6.582508875E0
9.001989172E0,1.050042987E0,-4.068494797E0,-5.414478302E0,6.853598724E0
9.011978964E0,1.153488755E0,-4.078659534E0,-5.170967579E0,6.686172718E0
9.021998755E0,1.207567334E0,-3.333267689E0,-4.889400005E0,6.039463947E0
9.031980787E0,1.120714068E0,-2.216562271E0,-3.940721512E0,4.658157829E0
9.041982870E0,4.533480406E-1,-9.517936707E-1,-3.691807747E0,3.839385378E0
9.051986516E0,3.909324408E-1,3.688049316E-1,-3.414530039E0,3.456567754E0
9.061981047E0,2.353641987E-1,4.065151215E-1,-2.417130709E0,2.462350851E0
9.071978703E0,1.247446537E-1,4.263839722E-1,-2.226554155E0,2.270442232E0
9.081979745E0,-1.215801001E0,4.478006363E-1,-2.131037712E0,2.493996635E0
9.091982610E0,-1.386133432E0,3.704853058E-1,-2.093531847E0,2.538011199E0
9.101984432E0,-1.322922945E0,3.893127441E-1,-2.080821991E0,2.496299199E0
9.111977141E0,-1.258845568E0,-1.204746246E0,-2.076259613E0,2.710527562E0
9.121976880E0,-1.193841934E0,-1.335477829E0,-2.042786598E0,2.716935163E0
9.131976620E0,-1.127073050E0,-1.999581337E0,-2.003503323E0,3.046743302E0
9.141976880E0,-1.257807851E0,-2.018430710E0,-1.965051651E0,3.085056095E0
9.151990578E0,3.237575293E-1,-2.029722214E0,-1.924786091E0,2.815917736E0
9.161979328E0,1.265002131E0,-2.033756733E0,-1.890063167E0,3.051022061E0
9.171972401E0,2.313098192E0,-2.026589870E0,-1.861056328E0,3.594582090E0
9.181974068E0,3.303609848E0,-2.027461052E0,-1.842748165E0,4.291871054E0
9.191978964E0,4.150965691E0,-2.041625023E0,-1.834379196E0,4.976313488E0
9.201985735E0,4.335948944E0,-2.066841125E0,-1.823029995E0,5.137676892E0
9.211979224E0,5.144798279E0,-2.097866058E0,-1.793146491E0,5.838267351E0
9.221980005E0,5.078763485E0,-2.106903076E0,-1.743363023E0,5.768205417E0
9.231977662E0,4.937221527E0,-2.102942467E0,-1.669872999E0,5.620231246E0
9.241981047E0,4.073963642E0,-2.002404690E0,-1.499985337E0,4.780874430E0
9.251982610E0,3.797616482E0,-1.865614891E0,-1.353534579E0,4.442349122E0
9.261977662E0,2.661291122E0,-1.007371902E0,-6.345736980E-1,2.915467778E0
9.271977141E0,2.362008095E0,-8.449096680E-1,-5.493104458E-1,2.568014126E0
9.281977662E0,1.039413571E0,5.967626572E-1,-4.655386209E-1,1.285780871E0
9.291978443E0,7.615268230E-1,6.452531815E-1,-3.978828192E-1,1.074516407E0
9.301984432E0,-3.311097622E-1,6.942768097E-1,-3.790420294E-1,8.575119959E-1
9.311977141E0,-5.035375357E-1,7.429227829E-1,-4.066795111E-1,9.853286436E-1
9.321975839E0,-6.197725534E-1,2.503844261E0,-4.922273159E-1,2.625955413E0
9.331975526E0,-6.321258545E-1,2.607607841E0,-1.138549209E0,2.914703424E0
9.341997974E0,-5.117232800E-1,3.243927956E0,-1.211545467E0,3.500395937E0
9.351986672E0,8.490772247E-1,3.282598495E0,-1.288600683E0,3.627240926E0
9.361976412E0,1.942927837E0,3.295507431E0,-1.390828967E0,4.070594923E0
9.371988651E0,3.055563688E0,3.266362190E0,-1.981563330E0,4.892053213E0
9.381982089E0,4.000423431E0,3.193675995E0,-1.968836427E0,5.484457208E0
9.391978703E0,4.169023514E0,3.133612633E0,-1.907781243E0,5.553369649E0
9.401986516E0,4.963999748E0,3.134751320E0,-1.801369786E0,6.141082351E0
9.411980787E0,4.945399284E0,3.202957153E0,-1.700095415E0,6.132392113E0
9.421978182E0,3.904030323E0,4.181637764E0,-1.546193719E0,5.926066332E0
9.431982870E0,2.779923916E0,4.285600662E0,-8.592857122E-1,5.180031076E0
9.441981307E0,1.420306683E0,4.995968819E0,-7.771762609E-1,5.251759558E0
9.451986776E0,2.523040771E-2,5.104659081E0,-6.852371693E-1,5.150507827E0
9.461982089E0,-1.325115323E0,5.223929405E0,-6.095807552E-1,5.423740199E0
9.471983391E0,-2.746195793E0,5.851721764E0,-5.531140566E-1,6.487694050E0
9.481976880E0,-2.741847992E0,5.856542587E0,-4.840168953E-1,6.484681476E0
9.491976360E0,-3.769927025E0,5.856127739E0,-4.119240046E-1,6.976837626E0
9.501983912E0,-4.356472969E0,5.837122917E0,2.702326775E-1,7.288613474E0
9.511982401E0,-4.271880150E0,5.796910286E0,3.157448769E-1,7.207830721E0
9.521984797E0,-4.085106850E0,5.713343620E0,3.623477221E-1,7.032900480E0
9.532033287E0,-2.493500233E0,5.610772133E0,1.345760584E0,6.285648645E0
9.541979537E0,-2.297304630E0,5.474699974E0,1.357087731E0,6.090290262E0
9.551976776E0,-2.109966278E0,4.713205338E0,1.365379095E0,5.341397038E0
9.561980787E0,-1.931722760E0,4.522327423E0,1.351920724E0,5.100067430E0
9.571978182E0,-3.032355309E-1,3.354331017E0,1.138117313E0,3.555108912E0
9.581984432E0,-8.796477318E-2,2.553890228E0,1.094455957E0,2.779914916E0
9.591977662E0,6.421436071E-1,2.364803314E0,5.241680145E-2,2.450997888E0
9.601985474E0,1.636927843E0,2.980413437E-1,-8.689246178E-1,1.877069897E0
9.611979485E0,1.840198398E0,1.961488724E-1,-9.690883160E-1,2.089003755E0
9.621982870E0,2.649260044E0,2.032384872E-1,-1.054194212E0,2.858532858E0
9.631980526E0,2.748232126E0,-1.507915497E0,-1.124576926E0,3.330354670E0
9.641980005E0,2.817586422E0,-2.321214676E0,-1.173298597E0,3.834509149E0
9.651984693E0,2.859014034E0,-3.114762306E0,-1.181892633E0,4.390054176E0
9.661978443E0,2.839494228E0,-3.972151279E0,-1.169614077E0,5.020827656E0
9.671980005E0,2.764113426E0,-4.859298229E0,-1.119350433E0,5.701407520E0
9.681978182E0,2.616039276E0,-5.621051311E0,-1.103541613E0,6.297434671E0
9.691991412E0,1.868524551E0,-5.747517586E0,-1.091748834E0,6.141437773E0
9.701988391E0,1.666408420E0,-6.615592003E0,-1.072204590E0,6.905982714E0
9.712020266E0,6.258116961E-1,-6.652834892E0,-1.024632454E0,6.760305026E0
9.721977141E0,3.928300142E-1,-6.679358482E0,-9.560781717E-1,6.758863116E0
9.731980526E0,-7.426664829E-1,-6.681264877E0,-8.385457993E-1,6.774512006E0
9.741978182E0,-9.655580521E-1,-6.655882835E0,9.234833121E-1,6.788659669E0
9.751989901E0,-2.069576740E0,-6.606218338E0,1.000991106E0,6.994801770E0
9.761988339E0,-2.300177336E0,-6.561189651E0,8.818386793E-1,7.008399594E0
9.771988860E0,-2.304026127E0,-6.527070999E0,9.680220485E-1,6.989152946E0
9.781988599E0,-2.263648510E0,-6.505681992E0,3.543449402E0,7.746227238E0
9.791987297E0,-2.227484465E0,-6.437292099E0,4.393069267E0,8.105521217E0
9.801988339E0,-2.385151625E0,-5.640569687E0,5.354740143E0,8.134999488E0
9.811992505E0,-2.304544210E0,-4.282894135E0,6.565905571E0,8.170998847E0
9.821986776E0,5.735397339E-2,-2.235222340E0,7.820340157E0,8.133709397E0
9.831986776E0,1.850617647E0,6.607923508E-1,8.699436188E0,8.918611001E0
9.841994849E0,3.566955090E0,2.527476311E0,8.708300591E0,9.744013767E0
9.851986776E0,4.872142792E0,4.474146843E0,9.163832664E0,1.130184031E1
9.861987818E0,5.690381050E0,5.798884392E0,8.916814804E0,1.206304617E1
9.872011255E0,5.829421043E0,6.557979584E0,8.561267853E0,1.225906004E1
9.881973547E0,5.828419685E0,6.539928436E0,7.558582783E0,1.157036359E1
9.892087037E0,5.627976418E0,5.511487961E0,6.481910706E0,1.020126387E1
9.901985214E0,3.900202274E0,3.676017761E0,5.117421150E0,7.410309278E0
9.911985995E0,2.243954897E0,5.565805435E-1,3.858047485E0,4.497737863E0
9.921975370E0,6.089389324E-1,-4.251699448E-1,2.587020397E0,2.691514563E0
9.931988599E0,-6.790978909E-1,-1.677332401E0,1.085312247E0,2.110099667E0
9.941991985E0,-2.269609690E0,-1.696213722E0,-6.573294401E-1,2.908668274E0
9.951989641E0,-2.462910891E0,-8.796606064E-1,-2.182318687E0,3.406207230E0
9.961991203E0,-3.943460703E0,4.357530594E0,-6.047130585E0,8.432481456E0
9.971987818E0,-4.040719986E0,6.760051727E0,-7.003130913E0,1.053895440E1
9.982001047E0,-3.992640972E0,8.325691223E0,-7.941148758E0,1.217867644E1
9.991990422E0,-3.793336630E0,8.955046654E0,-8.054573059E0,1.262768429E1
1.000198990E1,-2.070803642E0,8.865787506E0,-8.025846481E0,1.213691178E1
1.001197688E1,-1.883456826E0,7.818883896E0,-7.826216698E0,1.122194381E1
1.002197844E1,-1.705603600E0,5.766654968E0,-6.364485741E0,8.756144808E0
1.003197870E1,6.062591076E-2,2.704876900E0,-5.432430267E0,6.068882364E0
1.004197922E1,1.497787356E0,-6.877031326E-1,-5.216250420E0,5.470426949E0
1.005201360E1,2.506997347E0,-3.219114304E0,-4.959792137E0,6.422403805E0
1.006197511E1,2.725668907E0,-4.629278660E0,-4.644779205E0,7.101652327E0
1.007199303E1,2.868236542E0,-4.698305607E0,-3.435800552E0,6.488881404E0
1.008197537E1,2.929025173E0,-4.534542084E0,-3.144801855E0,6.247482620E0
1.009197506E1,2.854871988E0,-2.753488541E0,-2.274314404E0,4.572143832E0
1.010198860E1,2.172845125E0,-1.361154556E0,-2.088048935E0,3.306651784E0
1.011197948E1,2.090380669E0,2.849998474E-1,-1.921137571E0,2.853363948E0
1.012198001E1,2.004585981E0,3.073053360E-1,-1.829380631E0,2.731196628E0
1.013198105E1,1.861817002E0,3.304033279E-1,-1.818341851E0,2.623336806E0
1.014198339E1,8.076301813E-1,2.743425369E-1,-2.767938852E0,2.896379780E0
1.015198261E1,-1.251927137E0,2.985458374E-1,-2.815783739E0,3.095979528E0
1.016197818E1,-1.245157480E0,-1.677092552E0,-2.862530947E0,3.543605509E0
1.017197740E1,-1.237472892E0,-2.545930862E0,-2.845903873E0,4.014009463E0
1.018198183E1,-1.426874876E0,-2.639032364E0,-2.797773361E0,4.102194475E0
1.019197688E1,-1.411763787E0,-2.675097942E0,-2.741113186E0,4.082024925E0
1.020198313E1,-1.366615057E0,-2.630967617E0,-2.692207336E0,4.004698198E0
1.021197896E1,-1.316661000E0,-2.517545700E0,-2.644911528E0,3.881647785E0
1.022197922E1,-1.190713644E-1,-1.786432266E0,-2.620840311E0,3.174007273E0
1.023199928E1,1.039308667E0,-1.686869621E0,-2.605894804E0,3.273588147E0
1.024197490E1,2.268496513E0,-1.584088326E0,-2.578449249E0,3.782038179E0
1.025200568E1,3.433242798E0,-1.507953167E0,-2.541395664E0,4.529875361E0
1.026198344E1,4.407174110E0,-1.459945202E0,-2.461908579E0,5.255056373E0
1.027197667E1,4.612017632E0,-1.436493397E0,-2.331379414E0,5.363725374E0
1.028198001E1,5.534717560E0,-1.434978008E0,-2.155479908E0,6.110511761E0
1.029198157E1,5.514168739E0,-1.442343712E0,-1.369875669E0,5.861993826E0
1.030199016E1,5.358930588E0,-1.421918392E0,-1.227948308E0,5.678718694E0
1.031197688E1,5.098957539E0,-1.365675926E0,-1.079733729E0,5.387973983E0
1.032198313E1,3.248410463E0,-1.148385048E0,-3.342446089E-1,3.461600528E0
1.033197610E1,2.382001638E0,4.848871231E-1,-2.651598454E-1,2.445272392E0
1.034198027E1,2.101918221E0,5.316133499E-1,-2.382563353E-1,2.181155437E0
1.035198521E1,1.191621304E0,5.787620544E-1,-2.441542149E-1,1.347047931E0
1.036197688E1,1.059512615E0,6.260347366E-1,-2.942122221E-1,1.265324980E0
1.037197896E1,9.781517982E-1,2.066512108E0,-3.738552332E-1,2.316683182E0
1.038197896E1,9.616928101E-1,2.197546005E0,-9.936234951E-1,2.596410822E0
1.039197844E1,1.790213346E0,2.930684090E0,-1.050888777E0,3.591398096E0
1.040198235E1,2.460917234E0,3.005053520E0,-1.130093694E0,4.045191225E0
1.041198105E1,3.227138042E0,3.084388733E0,-1.228968620E0,4.630144455E0
1.042198105E1,3.903731346E0,3.143539429E0,-1.834666133E0,5.337317527E0
1.043200527E1,4.004644394E0,3.145162582E0,-1.847817659E0,5.416978355E0
1.044198579E1,4.077059269E0,3.120836258E0,-1.845920920E0,5.456139228E0
1.045199657E1,4.093580246E0,3.113380432E0,-1.787423611E0,5.444760795E0
1.046197636E1,4.024580479E0,3.146645546E0,-1.726166129E0,5.392427628E0
1.047199303E1,3.857462406E0,3.221828461E0,-1.681009769E0,5.299621561E0
1.048198443E1,2.844923973E0,3.312317848E0,-1.657757998E0,4.670460739E0
1.049198053E1,1.956532717E0,3.407946587E0,-1.617277145E0,4.249435912E0
1.050198678E1,-3.318393230E-1,4.102028847E0,-1.497240782E0,4.379325057E0
1.051198131E1,-1.485387564E0,4.145993233E0,-1.400514126E0,4.621371649E0
1.052197975E1,-2.867963791E0,4.178924561E0,-1.319845796E0,5.237424912E0
1.053198079E1,-2.851465225E0,4.197150230E0,-1.253419995E0,5.226661044E0
1.054197740E1,-2.827982664E0,4.240290642E0,-1.160128355E0,5.227183608E0
1.055198339E1,-4.079611301E0,4.313076973E0,-4.239923954E-1,5.951943455E0
1.056198000E1,-4.040620804E0,5.007661819E0,-3.202694654E-1,6.442504630E0
1.057197714E1,-3.907993317E0,5.093221664E0,3.364574909E-1,6.428570784E0
1.058197949E1,-3.697633028E0,5.728039742E0,4.067062140E-1,6.829958948E0
1.059198391E1,-2.414134502E0,5.711414337E0,1.496963859E0,6.378808660E0
1.060200282E1,-2.234591961E0,5.654582024E0,1.534856558E0,6.270843942E0
1.061198990E1,-2.260452032E0,5.539868355E0,1.348383784E0,6.133345222E0
1.062199219E1,-2.085221291E0,4.717337608E0,1.355559945E0,5.332819583E0
1.063198469E1,-2.645890713E-1,3.869162560E0,1.342862487E0,4.104108423E0
1.064197818E1,-3.114736080E-2,2.899536133E0,1.330254674E0,3.190275449E0
1.065198417E1,9.126627445E-1,2.009293556E0,-4.766786098E-1,2.257750291E0
1.066198000E1,1.160996437E0,1.815005302E0,-6.559406519E-1,2.252202281E0
1.067197922E1,2.312346697E0,1.568813324E-1,-1.484275579E0,2.752205115E0
1.068198313E1,2.473314285E0,1.646804810E-1,-1.554592252E0,2.925946049E0
1.069198313E1,3.184882164E0,1.950712204E-1,-1.558104157E0,3.550945754E0
1.070198365E1,3.173642635E0,-1.700564384E0,-1.563466311E0,3.925347591E0
1.071198209E1,3.108674526E0,-1.847804070E0,-1.536423922E0,3.929228379E0
1.072197662E1,2.962650776E0,-2.990338326E0,-1.474796057E0,4.460319084E0
1.073198053E1,2.089853048E0,-3.769294262E0,-1.383551478E0,4.526508554E0
1.074197922E1,1.901923180E0,-4.479755402E0,-1.310054064E0,5.040016060E0
1.075198495E1,9.538649321E-1,-5.155157566E0,-1.241884828E0,5.387744033E0
1.076198027E1,7.879489660E-1,-5.271262169E0,-1.159543991E0,5.454503707E0
1.077197896E1,-3.517377377E-2,-6.163308620E0,-1.055364728E0,6.253111630E0
1.078199282E1,-1.982984543E-1,-6.227856636E0,-9.343154430E-1,6.300671861E0
1.079198027E1,-1.874980330E0,-6.306843758E0,-8.037328720E-1,6.628560624E0
1.080198876E1,-2.095576763E0,-6.990800858E0,-6.767750978E-1,7.329444940E0
1.081197824E1,-2.117487192E0,-7.005749702E0,7.556617260E-2,7.319152352E0
1.082198443E1,-2.115852594E0,-7.062042236E0,2.312173843E-1,7.375820919E0
1.083198235E1,-2.110918283E0,-7.640099049E0,1.494087934E0,8.065940009E0
1.084199146E1,-2.088959694E0,-7.668590069E0,1.585074186E0,8.104534929E0
1.085198547E1,-2.263681412E0,-7.685328484E0,2.622948647E0,8.430206821E0
1.086198261E1,-2.189967871E0,-7.660824776E0,3.505075455E0,8.704582096E0
1.087197537E1,-2.075071573E0,-5.816876411E0,6.057939529E0,8.651046443E0
1.088197818E1,-6.051349640E-1,-3.630291939E0,7.697781563E0,8.532353068E0
1.089197844E1,1.037206888E0,-9.348754883E-1,9.143315315E0,9.249324584E0
1.090198521E1,2.850014925E0,1.828465462E0,1.006051350E1,1.061507432E1
1.091198209E1,4.433180809E0,4.189647675E0,1.006373405E1,1.176796426E1
1.092197922E1,5.489719391E0,5.874587059E0,9.948882103E0,1.279171791E1
1.093197792E1,5.648625374E0,6.803454399E0,9.687274933E0,1.311629734E1
1.094198157E1,5.702016354E0,6.791631699E0,9.266775131E0,1.282623768E1
1.095198495E1,5.593802452E0,6.586191177E0,8.026911736E0,1.179406003E1
1.096201089E1,4.550307274E0,4.653139114E0,6.684181690E0,9.329270324E0
1.097198605E1,3.354242325E0,2.969883919E0,5.083277225E0,6.775755265E0
1.098198292E1,1.959117651E0,1.486266136E0,3.317631960E0,4.129625990E0
1.099197771E1,6.850252151E-1,4.594850540E-1,1.544282079E0,1.750769316E0
1.100198990E1,-3.277561665E-1,5.284624100E-1,-1.783050299E-1,6.469074950E-1
1.101198990E1,-1.069712400E0,2.595868111E0,-1.674084783E0,3.268849297E0
1.102198964E1,-2.382725477E0,4.939050674E0,-3.172527790E0,6.335340152E0
1.103199771E1,-2.373384237E0,6.764556885E0,-4.349183083E0,8.384961304E0
1.104199068E1,-2.478455067E0,7.602604866E0,-5.561290741E0,9.740138345E0
1.105198860E1,-2.302965879E0,6.752578735E0,-6.574891090E0,9.702070102E0
1.106198600E1,-2.146571636E0,5.353919983E0,-6.565529823E0,8.739474288E0
1.107199094E1,-1.991198897E0,3.314287186E0,-6.468752861E0,7.536188438E0
1.108198678E1,-2.008067131E0,3.875179291E-1,-6.230349541E0,6.557420159E0
1.109198730E1,-1.833994865E0,-2.670832634E0,-6.105435848E0,6.911818214E0
1.110198912E1,-1.998015642E-1,-5.075831413E0,-5.988974094E0,7.853139239E0
1.111198808E1,-1.196241379E-2,-6.309160233E0,-5.812987328E0,8.578838360E0
1.112198782E1,1.562753916E-1,-6.334410667E0,-5.566525936E0,8.434179954E0
1.113198782E1,3.019539118E-1,-5.367120266E0,-5.218491077E0,7.491982731E0
1.114210428E1,4.009246826E-1,-3.666868210E0,-3.861245632E0,5.340026302E0
1.115197313E1,4.799580574E-1,-1.819966793E0,-2.970665932E0,3.516744936E0
1.116200339E1,5.385537148E-1,2.650442123E-1,-2.673397779E0,2.739953325E0
1.117197615E1,6.186481714E-1,2.811098099E-1,-1.747932673E0,1.875371140E0
1.118199120E1,6.833931208E-1,1.928284645E0,-1.532425404E0,2.556097699E0
1.119198730E1,6.959083080E-1,2.020216942E0,-1.350458860E0,2.527707261E0
1.120198860E1,6.535866261E-1,1.987857819E0,-1.270716548E0,2.448157415E0
1.121198886E1,5.631967783E-1,2.505607605E-1,-1.308131695E0,1.446091227E0
1.122199172E1,-6.062161922E-2,2.719478607E-1,-1.978406668E0,1.997929819E0
1.123199042E1,-1.130398989E0,-1.967571259E0,-2.070535183E0,3.071848706E0
1.124198886E1,-1.078245759E0,-2.044299603E0,-2.057821035E0,3.094576255E0
1.125198000E1,-1.026738524E0,-2.080757618E0,-2.032752991E0,3.084773733E0
1.126197662E1,-9.757499099E-1,-2.067358017E0,-2.006201982E0,3.041529788E0
1.127197714E1,-1.124920726E0,-2.020275593E0,-1.993742704E0,3.053190148E0
1.128198027E1,9.790405035E-1,-1.936319351E0,-1.997138977E0,2.948968808E0
1.129197922E1,1.859289885E0,-1.835803986E0,-2.021836758E0,3.303779506E0
1.130197948E1,2.809508085E0,-1.750876427E0,-2.033549786E0,3.885129171E0
1.131197948E1,3.658637285E0,-1.704611778E0,-2.026039124E0,4.516211092E0
1.132201126E1,3.826890707E0,-1.721567631E0,-2.003252983E0,4.649936570E0
1.133197521E1,4.709043026E0,-1.769179344E0,-1.957129717E0,5.397725308E0
1.134200084E1,4.713073730E0,-1.820215702E0,-1.870934248E0,5.387638086E0
1.135198865E1,4.646127701E0,-1.844416142E0,-1.754527807E0,5.297805333E0
1.136198339E1,4.496989250E0,-1.814379215E0,-1.601310968E0,5.106768163E0
1.137198131E1,4.272151947E0,-1.711942196E0,-7.514420748E-1,4.663335023E0
1.138198027E1,3.354404926E0,-9.817056656E-1,-5.882562399E-1,3.544266331E0
1.139198000E1,3.099208593E0,-7.943935394E-1,1.949071884E-1,3.205330531E0
1.140198313E1,2.160422087E0,5.027656555E-1,3.200678825E-1,2.241124795E0
1.141198339E1,1.923999786E0,1.982133865E0,4.185779095E-1,2.793892858E0
1.142197636E1,1.819003582E0,2.141324997E0,4.208847284E-1,2.840984113E0
1.143198391E1,1.782256842E0,2.941921234E0,3.962115049E-1,3.462415855E0
1.144198287E1,1.815670252E0,2.990325928E0,3.027666807E-1,3.511463410E0
1.145197688E1,2.817019939E0,3.018136978E0,-3.870838881E-1,4.146635515E0
1.146197792E1,3.475273609E0,3.037802696E0,-5.469233990E-1,4.648106828E0
1.147198235E1,4.099886894E0,3.030280113E0,-1.411736369E0,5.290053845E0
1.148197688E1,4.163333893E0,2.993478775E0,-1.491299748E0,5.340247112E0
1.149197974E1,4.208548546E0,2.943337440E0,-1.529066563E0,5.358466264E0
1.150197688E1,4.210596085E0,2.938112259E0,-1.544745922E0,5.361703367E0
1.151199626E1,4.139661789E0,2.969936371E0,-1.576168895E0,5.333069488E0
1.152198574E1,3.962829590E0,3.026327133E0,-1.593354821E0,5.234639802E0
1.153197511E1,2.831576824E0,3.071533203E0,-1.584524512E0,4.467981811E0
1.154197667E1,1.754272938E0,3.124617577E0,-1.514835596E0,3.890428694E0
1.155197974E1,5.083680153E-1,3.220239639E0,-1.413078666E0,3.553191902E0
1.156198183E1,-7.600882053E-1,4.056320190E0,-1.312762260E0,4.330682662E0
1.157198079E1,-2.805686712E0,4.774404526E0,-1.213824153E0,5.669231480E0
1.158198313E1,-2.796252012E0,5.563661575E0,-1.111494780E0,6.325249093E0
1.159197870E1,-3.984432459E0,6.384406090E0,-3.912441730E-1,7.535875207E0
1.160197688E1,-4.195318222E0,7.245370865E0,-1.922326088E-1,8.374547590E0
1.161197948E1,-4.153296471E0,7.854351044E0,4.470105171E-1,8.896095789E0
1.162197688E1,-3.978547096E0,7.803992271E0,1.472172737E0,8.882478536E0
1.163198000E1,-2.421756029E0,7.635102272E0,1.505287766E0,8.150188969E0
1.164198105E1,-2.219319582E0,6.471559525E0,1.510446072E0,7.006276431E0
1.165197948E1,-6.853306293E-1,5.302354813E0,1.312874317E0,5.505295960E0
1.166197974E1,4.900248051E-1,3.874622345E0,1.313049912E0,4.120306141E0
1.167197740E1,1.509063721E0,2.495366096E0,1.294655323E0,3.190651607E0
1.168197662E1,1.769538403E0,1.415631294E0,1.249938369E0,2.587976825E0
1.169207808E1,2.739377975E0,1.656150818E-1,1.208460093E0,2.998665677E0
1.170198448E1,2.924589634E0,5.912685394E-2,-7.083522081E-1,3.009731444E0
1.171200141E1,3.066196918E0,6.185340881E-2,-8.529545665E-1,3.183224918E0
1.172198761E1,3.125894547E0,-1.231238365E0,-9.899040461E-1,3.502438386E0
1.173197792E1,3.079798698E0,-1.373523712E0,-1.128824830E0,3.556117673E0
1.174197896E1,2.951056957E0,-2.377017021E0,-1.839937329E0,4.212400320E0
1.175197818E1,2.248392105E0,-2.532956600E0,-1.899085283E0,3.882996409E0
1.176197975E1,2.109729767E0,-3.856823921E0,-1.943840742E0,4.806721053E0
1.177197740E1,1.978798866E0,-4.746523380E0,-1.921728611E0,5.489824224E0
1.178197896E1,1.748071790E0,-6.275497913E0,-1.866986036E0,6.776670709E0
1.179197948E1,9.490697384E-1,-6.352544308E0,-1.823091030E0,6.676766692E0
1.180198053E1,8.240504265E-1,-6.397652626E0,-1.745956540E0,6.682617935E0
1.181198000E1,6.591707468E-1,-6.388109207E0,-1.639794588E0,6.628074502E0
1.182198000E1,-2.244617939E-1,-6.328669071E0,-1.499807358E0,6.507830470E0
1.183197870E1,-4.352016449E-1,-6.215996742E0,-7.402665615E-1,6.275030721E0
1.184198886E1,-2.233532906E0,-6.066076756E0,-5.419390202E-1,6.486883254E0
1.185197818E1,-2.266858101E0,-5.942222118E0,1.198783040E0,6.471918582E0
1.186197792E1,-2.275116444E0,-5.887156487E0,1.313446522E0,6.446697456E0
1.187197657E1,-3.431161404E0,-5.902479172E0,1.426626444E0,6.974768237E0
1.188200079E1,-4.183280945E0,-5.974890232E0,3.350167751E0,8.026380050E0
1.189202761E1,-4.214482307E0,-6.682557583E0,4.365613937E0,9.026462320E0
1.190198344E1,-4.161096573E0,-6.687955379E0,5.397964954E0,9.548900329E0
1.191197745E1,-2.322844028E0,-6.567301273E0,6.398695946E0,9.458771601E0
1.192197844E1,-2.233032465E0,-4.870271683E0,7.451163292E0,9.177462321E0
1.193197740E1,4.902076721E-2,-2.686671734E0,8.466806412E0,8.882984794E0
1.194197949E1,2.247079134E0,5.097084045E-1,9.112329483E0,9.399133785E0
1.195197818E1,4.383181095E0,2.358039856E0,9.031899452E0,1.031250872E1
1.196198001E1,7.700196266E0,5.726742744E0,8.856183052E0,1.305835301E1
1.197197922E1,7.764633179E0,5.835725784E0,8.495155334E0,1.290398729E1
1.198198563E1,7.660839081E0,5.776562691E0,8.027683258E0,1.251002919E1
1.199198000E1,7.608106136E0,4.496912003E0,6.749662399E0,1.112040642E1
1.200197844E1,5.132237911E0,2.506489754E0,5.656588554E0,8.038616233E0
1.201197818E1,3.489385843E0,4.981060028E-1,4.513710976E0,5.726911028E0
1.202197844E1,1.888695955E0,-1.154522896E0,3.263020992E0,3.943019341E0
1.203197740E1,6.101622581E-1,-2.046574116E0,1.795467854E0,2.790066022E0
1.204197948E1,-3.444302082E-1,-1.941633224E0,1.729023457E-2,1.972021982E0
1.205198756E1,-5.759661198E-1,-3.016452789E-1,-1.890576601E0,1.999251542E0
1.206198282E1,-1.876372814E0,2.649915695E0,-3.925261497E0,5.094163911E0
1.207200693E1,-2.899182558E0,5.853105545E0,-4.185819626E0,7.757911444E0
1.208197620E1,-3.049220800E0,8.163096428E0,-5.565903187E0,1.033988245E1
1.209198131E1,-2.954477072E0,9.348817825E0,-6.513633728E0,1.177101329E1
1.210198053E1,-2.829292297E0,9.348196030E0,-6.657128811E0,1.181994196E1
1.211197792E1,-2.686072826E0,9.134225845E0,-7.252982616E0,1.196891080E1
1.212198339E1,-2.537739515E0,7.157948494E0,-7.036190510E0,1.035298630E1
1.213197766E1,-2.527465343E0,4.515068054E0,-5.576394558E0,7.607239766E0
1.214198000E1,-2.327082634E0,4.315509796E-1,-5.377421379E0,5.875220040E0
1.215197766E1,3.695034981E-2,-5.042571068E0,-6.101068497E0,7.915296906E0
1.216197532E1,9.242703915E-1,-6.122244835E0,-5.964704990E0,8.597317209E0
1.217197922E1,1.023208499E0,-6.109917641E0,-5.715820789E0,8.429036511E0
1.218197818E1,1.036355495E0,-4.747256279E0,-5.340746403E0,7.220391058E0
1.219198079E1,2.523853779E-1,-2.910412788E0,-3.872817993E0,4.851074127E0
1.220197922E1,2.008326054E-1,-1.065447807E0,-2.984686852E0,3.175510725E0
1.221197844E1,1.819218397E-1,2.897377014E-1,-2.659783840E0,2.681696025E0
1.222197766E1,2.304618359E-1,1.537521362E0,-1.555092692E0,2.198953815E0
1.223197922E1,2.738347054E-1,1.692354202E0,-1.331251025E0,2.170547738E0
1.224205558E1,2.786256075E-1,1.764964104E0,-1.123076916E0,2.110457835E0
1.225198422E1,2.591816187E-1,1.682184219E0,-1.025706768E0,1.987207396E0
1.226198553E1,2.331143618E-1,2.739601135E-1,-1.082199335E0,1.140417402E0
1.227198579E1,2.041703463E-1,-8.280658722E-1,-1.946380377E0,2.125035339E0
1.228199094E1,1.459757090E-1,-2.023483276E0,-1.950282812E0,2.814142236E0
1.229198808E1,5.831122398E-2,-2.791917801E0,-1.961214542E0,3.412413763E0
1.230198860E1,-1.482807159E0,-2.869233131E0,-1.958747745E0,3.777288520E0
1.231198704E1,-1.426756501E0,-2.901110649E0,-1.966691732E0,3.784171439E0
1.232198990E1,-4.314953089E-1,-2.868656635E0,-1.986666203E0,3.515995121E0
1.233198730E1,1.194616675E0,-2.681338787E0,-2.095781803E0,3.606797480E0
1.234198730E1,2.029776096E0,-1.945627213E0,-2.110713005E0,3.515759611E0
1.235199042E1,2.836188078E0,-1.885441780E0,-2.098968267E0,4.000565123E0
1.236198886E1,3.509920597E0,-1.831004620E0,-2.035718441E0,4.451546932E0
1.237198990E1,3.632161140E0,-1.786495686E0,-1.932868361E0,4.485548070E0
1.238198782E1,4.303838730E0,-1.749557972E0,-1.789002776E0,4.978404548E0
1.239199146E1,4.290173531E0,-1.695963860E0,-1.610347986E0,4.886215608E0
1.240198443E1,4.213296413E0,-1.617063522E0,-7.902783155E-1,4.581626449E0
1.241198834E1,4.050368786E0,-1.500611305E0,-6.259528399E-1,4.364531882E0
1.242198235E1,3.819846869E0,-7.878684998E-1,1.259027719E-1,3.902283739E0
1.243199058E1,2.892075539E0,-6.254224777E-1,2.416315079E-1,2.968777523E0
1.244201855E1,2.694892406E0,5.431270599E-1,3.084338903E-1,2.766326725E0
1.245197693E1,2.488607645E0,5.943632126E-1,3.078019619E-1,2.577048251E0
1.246198600E1,2.297927380E0,1.580019951E0,2.242178917E-1,2.797714594E0
1.247197693E1,2.142544508E0,1.725503922E0,-3.911490440E-1,2.778643253E0
1.248198990E1,2.050455332E0,2.592187881E0,-4.154766798E-1,3.331129831E0
1.249199954E1,2.037062645E0,2.717135429E0,-4.593167305E-1,3.426867523E0
1.250197636E1,2.077207804E0,3.410264969E0,-5.168286562E-1,4.026389360E0
1.251197844E1,2.755871773E0,3.424911499E0,-1.273772836E0,4.576826984E0
1.252197975E1,2.774407387E0,3.391649246E0,-1.268980503E0,4.561900095E0
1.253197740E1,2.778637648E0,3.387412071E0,-1.216395259E0,4.546977583E0
1.254198001E1,2.727951527E0,3.426549911E0,-1.141280532E0,4.526089380E0
1.255199146E1,2.611857176E0,3.505826950E0,-1.117757201E0,4.512427470E0
1.256197818E1,1.696689606E0,3.609090805E0,-1.169961810E0,4.156092238E0
1.257197766E1,1.509277821E0,4.239564896E0,-1.236387849E0,4.666956713E0
1.258197818E1,1.519303322E-1,4.270589828E0,-1.239171505E0,4.449333245E0
1.259197662E1,-8.987004757E-1,4.306797981E0,-1.171035051E0,4.552745819E0
1.260200839E1,-2.924949408E0,4.386560440E0,-1.041590571E0,5.374211798E0
1.261197980E1,-2.892546415E0,4.469531059E0,-1.925958395E-1,5.327346977E0
1.262215959E1,-2.858112335E0,5.122375488E0,-8.945727348E-2,5.866475890E0
1.263197771E1,-3.905103445E0,5.186120033E0,7.417796850E-1,6.534210818E0
1.264197511E1,-4.484971046E0,5.852136612E0,1.837703943E0,7.598659355E0
1.265198834E1,-4.377486229E0,5.932479858E0,1.678669810E0,7.561391095E0
1.266197870E1,-4.176650524E0,6.537563324E0,1.718808174E0,7.945970385E0
1.267197766E1,-2.443953276E0,6.522112846E0,1.727041006E0,7.175899542E0
1.268198131E1,-2.250527859E0,6.442304611E0,1.709004998E0,7.034832083E0
1.269198079E1,-2.060026884E0,6.274681091E0,1.657776833E0,6.809079056E0
1.270198600E1,1.952013969E-1,3.977343559E0,-2.145816088E-1,3.987908053E0
1.271197792E1,4.622932673E-1,2.672409058E0,-3.449115753E-1,2.733943897E0
1.272197610E1,1.328367829E0,1.474762917E0,-4.898843765E-1,2.044376055E0
1.273198000E1,1.526360989E0,1.460752487E-1,-6.187417507E-1,1.653468234E0
1.274197974E1,1.750097990E0,3.926372528E-2,-6.676900387E-1,1.873551334E0
1.275198391E1,2.622337341E0,4.160976410E-2,-6.623616219E-1,2.705015235E0
1.276197740E1,2.718635559E0,4.947853088E-2,-6.567637920E-1,2.797278339E0
1.277197870E1,2.808086157E0,6.565570831E-2,-6.323852539E-1,2.879161275E0
1.278197818E1,2.836356163E0,8.701038361E-2,-6.512392759E-1,2.911460061E0
1.279203860E1,2.834029198E0,-1.341430664E0,-6.825869083E-1,3.208906762E0
1.280199386E1,2.801898956E0,-1.439163208E0,-6.992957592E-1,3.226583806E0
1.281196891E1,2.715295792E0,-2.391959190E0,-7.076967955E-1,3.687158087E0
1.282197922E1,2.596774101E0,-3.148010731E0,-7.724571228E-1,4.153299568E0
1.283197949E1,2.443122149E0,-3.926578522E0,-8.698080778E-1,4.705680696E0
1.284198000E1,1.615732193E0,-4.715494633E0,-1.552947283E0,5.220931470E0
1.285198417E1,1.438367009E0,-5.371404648E0,-1.546416044E0,5.771680009E0
1.286197818E1,4.573371410E-1,-5.492270470E0,-1.492417336E0,5.709772471E0
1.287198313E1,2.303420305E-1,-6.341074944E0,-1.391913772E0,6.496130605E0
1.288197844E1,-2.120856285E0,-7.042389870E0,-4.678375721E-1,7.369678314E0
1.289197896E1,-2.155056000E0,-7.097076893E0,-2.935194969E-1,7.422864708E0
1.290198313E1,-2.171056747E0,-7.766432762E0,1.298446536E0,8.168043135E0
1.291197740E1,-3.342961788E0,-7.817900658E0,1.381092429E0,8.614080363E0
1.292197922E1,-3.439788103E0,-7.902982712E0,2.719924688E0,9.038100920E0
1.293197844E1,-3.536164284E0,-9.419589996E0,3.685090065E0,1.071508387E1
1.294198001E1,-3.554575205E0,-9.348822594E0,4.635445118E0,1.102373985E1
1.295198339E1,-3.475900412E0,-9.284868240E0,5.600669861E0,1.138675392E1
1.296197688E1,-3.295708179E0,-6.740795135E0,6.494552612E0,9.923669941E0
1.297197547E1,-2.071263790E0,-4.645161629E0,7.515357971E0,9.074594519E0
1.298247495E1,-4.943999052E-1,-2.000981331E0,8.489139557E0,8.735779757E0
1.299200021E1,1.254749537E0,4.730987549E-1,9.210277557E0,9.307385858E0
1.300198917E1,3.062860012E0,3.280775070E0,9.154707909E0,1.019574781E1
1.301197745E1,4.721342087E0,5.255217552E0,8.992264748E0,1.143543650E1
1.302197688E1,5.953248978E0,6.513666153E0,8.718036652E0,1.240456300E1
1.303197792E1,7.750139236E0,6.602169991E0,8.287603378E0,1.312774453E1
1.304198079E1,7.736515045E0,6.511313438E0,7.784963608E0,1.276152523E1
1.305198808E1,7.684043407E0,5.147578239E0,6.232293129E0,1.115273789E1
1.306197844E1,5.151659966E0,1.504774094E0,3.063413620E0,6.179680289E0
1.307197870E1,3.517022371E0,3.907432556E-1,1.139799476E0,3.717696800E0
1.308198000E1,1.767298460E0,4.720163345E-1,-1.377597332E0,2.289960191E0
1.309197714E1,2.610762119E-1,5.543451309E-1,-2.713928938E0,2.782241829E0
1.310198365E1,-1.273979783E0,2.451479912E0,-3.946995974E0,4.817837218E0
1.311197740E1,-2.680259943E0,4.881229401E0,-4.852738857E0,7.386424591E0
1.312197922E1,-3.848292828E0,6.683739662E0,-5.636903763E0,9.552822493E0
1.313197714E1,-4.038695335E0,7.638281822E0,-5.801664352E0,1.040738769E1
1.314197870E1,-4.132091522E0,7.689705849E0,-6.543943405E0,1.091003903E1
1.315198928E1,-4.091677666E0,7.579993248E0,-6.401090145E0,1.073182551E1
1.316198704E1,-3.920903206E0,6.342184067E0,-6.173427582E0,9.680288673E0
1.317199250E1,-2.704544783E0,4.068244934E0,-4.957914829E0,6.960323181E0
1.318197745E1,-2.508636713E0,3.809356689E-1,-4.769987583E0,5.402883645E0
1.319198183E1,-1.305509806E0,-2.504487038E0,-4.641115665E0,5.432933443E0
1.320198443E1,-1.070380807E0,-4.894214630E0,-4.542924404E0,6.762929399E0
1.321198235E1,-8.823344707E-1,-6.156737328E0,-4.416184425E0,7.628015044E0
1.322197844E1,-7.509868145E-1,-6.195070267E0,-4.215219498E0,7.530667448E0
1.323197740E1,-6.403589249E-1,-5.355034828E0,-3.958173752E0,6.689812928E0
1.324198235E1,-5.296907425E-1,-2.082707882E0,-3.024459839E0,3.710202383E0
1.325198235E1,-3.985655308E-1,2.646617889E-1,-2.853972197E0,2.893796407E0
1.326197818E1,4.809668064E-1,1.792287827E-1,-2.666454554E0,2.715406399E0
1.327197714E1,6.411752701E-1,2.010603905E0,-2.441807985E0,3.227392140E0
1.328197636E1,1.447713375E0,2.110333443E0,-1.699686766E0,3.072184297E0
1.329197766E1,1.520803809E0,2.075745583E0,-1.596055746E0,3.028028714E0
1.330198157E1,1.531493545E0,1.298763275E0,-1.575301170E0,2.552221052E0
1.331197896E1,1.471543670E0,1.547994614E-1,-1.586152792E0,2.169166735E0
1.332197584E1,6.220922470E-1,-1.008285522E0,-1.576029420E0,1.971676239E0
1.333199563E1,4.702130556E-1,-1.933924675E0,-1.568432331E0,2.533997818E0
1.334197954E1,-1.464158893E0,-2.071444988E0,-1.591331959E0,2.994492111E0
1.335199792E1,-1.411073565E0,-2.752987385E0,-2.219509602E0,3.807399509E0
1.336198292E1,-1.557895303E0,-2.749333382E0,-2.217951059E0,3.860722564E0
1.337197433E1,-1.504956007E0,-2.715421677E0,-2.227103233E0,3.820784772E0
1.338197740E1,-1.451987147E0,-2.660261631E0,-2.242516518E0,3.770164314E0
1.339197844E1,6.065889597E-1,-2.584501743E0,-2.253543615E0,3.482249022E0
1.340198417E1,1.604369640E0,-2.505423546E0,-2.264913082E0,3.739114916E0
1.341197870E1,2.601303577E0,-2.415328979E0,-2.219529152E0,4.186514545E0
1.342198027E1,3.422583580E0,-2.343554974E0,-2.110601425E0,4.654134361E0
1.343197688E1,4.423894882E0,-2.260340691E0,-1.829344392E0,5.294004805E0
1.344197975E1,4.428478241E0,-2.207336903E0,-9.184181690E-1,5.032618371E0
1.345198860E1,4.340944290E0,-2.137917519E0,-7.820032835E-1,4.901634195E0
1.346197740E1,4.131821156E0,-2.042716503E0,-6.275269985E-1,4.651712255E0
1.347197922E1,3.087646008E0,-1.915014267E0,7.521915436E-2,3.634074219E0
1.348197896E1,2.825016975E0,-1.254319191E0,1.997444630E-1,3.097407851E0
1.349197558E1,1.783316851E0,-1.098885536E0,3.192353249E-1,2.118886407E0
1.350198678E1,1.586358070E0,5.190095901E-1,3.629890680E-1,1.708117076E0
1.351198886E1,1.405060768E0,5.660848618E-1,3.378365040E-1,1.552024915E0
1.352199662E1,1.267496109E0,1.754074097E0,2.659434080E-1,2.180377999E0
1.353197954E1,1.157605648E0,2.504150391E0,1.605039835E-1,2.763436546E0
1.354198626E1,1.091340303E0,2.667568207E0,-5.012681484E-1,2.925442454E0
1.355197745E1,1.087355137E0,3.624764442E0,-5.598648787E-1,3.825533576E0
1.356198652E1,1.182294607E0,3.701128006E0,-6.556875706E-1,3.940316643E0
1.357199016E1,1.970104933E0,3.712679863E0,-1.314199805E0,4.403683270E0
1.358199068E1,2.058576345E0,3.647042274E0,-1.388354421E0,4.412049628E0
1.359199068E1,2.141957760E0,3.534781456E0,-1.431457400E0,4.373983685E0
1.360199172E1,2.203297138E0,3.460356712E0,-1.429117799E0,4.344072345E0
1.361198990E1,2.216407776E0,3.544370651E0,-1.515890718E0,4.446678694E0
1.362198756E1,2.136540890E0,4.175483704E0,-1.617723465E0,4.961501823E0
1.363198834E1,1.456852913E0,4.282117844E0,-1.683358908E0,4.826246041E0
1.364199537E1,7.290003300E-1,5.113074303E0,-1.693089962E0,5.435211489E0
1.365198860E1,-2.223591805E-1,5.225534439E0,-1.636131644E0,5.480198950E0
1.366198756E1,-1.186071992E0,5.978554726E0,-1.535740256E0,6.285569307E0
1.367198756E1,-2.537007093E0,6.017085075E0,-1.421607137E0,6.683014638E0
1.368198808E1,-2.484834433E0,6.047047615E0,-6.906569004E-1,6.574054607E0
1.369198574E1,-2.631438255E0,6.075800896E0,-5.564914942E-1,6.644509508E0
1.370209954E1,-3.797917128E0,6.104748726E0,3.250684738E-1,7.197068919E0
1.371196750E1,-3.775318146E0,6.136194229E0,4.344979525E-1,7.217665494E0
1.372197448E1,-3.683962822E0,6.131461143E0,5.362594128E-1,7.173142407E0
1.373198084E1,-3.498351097E0,6.078741074E0,6.208572388E-1,7.040952858E0
1.374198938E1,-2.137313128E0,5.953746796E0,6.538995504E-1,6.359464831E0
1.375197870E1,-1.950153828E0,5.782687187E0,6.810373068E-1,6.140552326E0
1.376198079E1,-1.771509171E0,4.611003876E0,6.750104427E-1,4.985503042E0
1.377197792E1,2.562881708E-1,3.623851776E0,6.099790335E-1,3.683756200E0
1.378197896E1,1.246362686E0,2.526328087E0,4.766203165E-1,2.857082511E0
1.379197818E1,2.239977360E0,6.233215332E-2,-5.335549116E-1,2.303489682E0
1.380198521E1,3.329962254E0,5.811977386E-2,-6.835809946E-1,3.399898454E0
1.381197792E1,3.492528439E0,5.639362335E-2,-8.431946039E-1,3.593314942E0
1.382197740E1,3.556249619E0,-1.196284294E0,-1.595741630E0,4.077302884E0
1.383197688E1,3.526888371E0,-1.888922691E0,-1.667329192E0,4.334392362E0
1.384198782E1,3.407618046E0,-2.601970673E0,-1.717685699E0,4.618718035E0
1.385198287E1,2.707465649E0,-3.284834862E0,-1.732601404E0,4.595913177E0
1.386197714E1,2.551225424E0,-4.062893867E0,-1.706101894E0,5.091821031E0
1.387198652E1,1.840656757E0,-4.890694141E0,-1.663918734E0,5.484116340E0
1.388197730E1,1.679303050E0,-5.565742493E0,-1.582783222E0,6.025176425E0
1.389199672E1,9.327802658E-1,-5.666579247E0,-1.439174771E0,5.920424259E0
1.390199449E1,7.641404867E-1,-6.388360977E0,-6.847864389E-1,6.470239495E0
1.391197797E1,-4.721939564E-2,-6.396939278E0,-5.631020069E-1,6.421849084E0
1.392197667E1,-2.435103655E-1,-6.382826328E0,1.411944628E-1,6.389030060E0
1.393198417E1,-1.925093412E0,-6.338761330E0,3.417006731E-1,6.633448514E0
1.394198027E1,-1.941448689E0,-6.286066055E0,1.835353971E0,6.830254289E0
1.395198469E1,-1.961576462E0,-6.266920090E0,1.914546251E0,6.840143052E0
1.396197844E1,-1.963632107E0,-6.315973759E0,1.999338150E0,6.909756046E0
1.397197766E1,-2.101433754E0,-7.176415920E0,4.201639652E0,8.577339043E0
1.398198204E1,-2.075185537E0,-8.048776627E0,5.008202076E0,9.704189210E0
1.399197714E1,-1.999226093E0,-8.125191689E0,5.899023533E0,1.023787691E1
1.400198469E1,-1.921568513E0,-8.176633835E0,6.852648735E0,1.084013658E1
1.401200474E1,-1.843062401E0,-8.112651825E0,7.720417976E0,1.134975120E1
1.402198027E1,-5.381706953E-1,-6.973414421E0,8.370859146E0,1.090822714E1
1.403197610E1,6.920787096E-1,-4.967389107E0,8.406031609E0,9.788528739E0
1.404197870E1,2.061387300E0,-2.332533360E0,9.318994522E0,9.825155896E0
1.405198313E1,3.421110153E0,4.469690323E-1,9.221692085E0,9.845982984E0
1.406200136E1,4.402406693E0,3.009923935E0,9.040575027E0,1.049632429E1
1.407197745E1,4.561161518E0,5.018591881E0,8.706225395E0,1.103579718E1
1.408198646E1,4.580821037E0,6.328114510E0,8.228752136E0,1.134642306E1
1.409197563E1,4.460482121E0,6.460975647E0,6.968669415E0,1.049773597E1
1.410198235E1,3.638608932E0,6.436172485E0,6.589914322E0,9.904078049E0
1.411200214E1,2.473562002E0,5.402911186E0,6.221172810E0,8.603077902E0
1.412197896E1,1.193996191E0,3.727283478E0,5.792287827E0,6.990627103E0
1.413197740E1,-8.062195778E-2,1.925649643E0,4.217511654E0,4.637028251E0
1.414197688E1,-1.017256618E0,3.840780258E-1,2.870735168E0,3.069763405E0
1.415198547E1,-2.064415216E0,4.578504562E-1,-5.325684547E-1,2.180611470E0
1.416197766E1,-2.232608795E0,4.123497009E-1,-1.805660009E0,2.900858903E0
1.417198001E1,-2.199579954E0,3.741847992E0,-2.958289385E0,5.252718768E0
1.418197844E1,-3.126018524E0,5.678311348E0,-4.655017853E0,7.980250797E0
1.419197844E1,-1.973919630E0,6.802171707E0,-6.426306725E0,9.563645579E0
1.420198443E1,-1.816146374E0,6.882665634E0,-7.570507526E0,1.039144158E1
1.421199928E1,-1.829778790E0,6.875720024E0,-7.671564102E0,1.046310241E1
1.422197688E1,-1.656142712E0,6.696630478E0,-7.637079239E0,1.029138707E1
1.423197662E1,1.001878977E-1,4.751395226E0,-7.369533539E0,8.769026102E0
1.424199094E1,1.209743857E0,1.882997513E0,-7.215480804E0,7.554622629E0
1.425199532E1,2.247314453E0,-1.316790581E0,-7.108971596E0,7.571118599E0
1.426200615E1,2.459159136E0,-3.873978615E0,-6.855276585E0,8.249241845E0
1.427197589E1,2.621768951E0,-5.455649376E0,-6.450408936E0,8.845651925E0
1.428197797E1,2.741771936E0,-5.612601757E0,-5.102966309E0,8.065908317E0
1.429198209E1,2.780054092E0,-5.576369286E0,-3.875567913E0,7.337889466E0
1.430198339E1,2.766904831E0,-4.598627090E0,-2.749270678E0,6.030059927E0
1.431200553E1,2.682293892E0,-3.132423401E0,-1.841431022E0,4.516375216E0
1.432197922E1,2.538601398E0,-1.430574417E0,-1.524469256E0,3.288623836E0
1.433197870E1,2.370453835E0,1.309394836E-1,3.417073488E-1,2.398532977E0
1.434198287E1,1.592452884E0,2.160589218E0,5.299614668E-1,2.735856559E0
1.435198261E1,1.410896063E0,2.225996017E0,4.449118376E-1,2.672757474E0
1.436197948E1,4.542723894E-1,2.141276360E0,5.330948830E-1,2.252913226E0
1.437197636E1,2.567501068E-1,1.614675522E-1,-1.303057909E0,1.337890990E0
1.438197792E1,-1.395332694E0,1.904611588E-1,-1.406860590E0,1.990599282E0
1.439198027E1,-1.392807484E0,-1.338880539E0,-2.276312828E0,2.985651332E0
1.440198443E1,-1.564780354E0,-2.166038990E0,-2.309022427E0,3.531550231E0
1.441200527E1,-1.533642411E0,-2.294736385E0,-2.334598541E0,3.614999927E0
1.442197870E1,-1.498005271E0,-2.998181343E0,-2.363117218E0,4.100906503E0
1.443200943E1,-1.430129766E0,-3.009265900E0,-2.413295269E0,4.113993979E0
1.444198370E1,-1.357951403E0,-2.983972549E0,-2.973509789E0,4.426046164E0
1.445199370E1,-2.165317535E-1,-2.918792248E0,-2.981835127E0,4.178226288E0
1.446197641E1,7.560900450E-1,-2.821250916E0,-2.934240341E0,4.140156430E0
1.447197922E1,1.836208344E0,-2.713354111E0,-2.822306633E0,4.324276395E0
1.448198053E1,2.833662987E0,-2.636208534E0,-2.669011593E0,4.701368337E0
1.449198000E1,3.610057831E0,-2.575747013E0,-2.489145279E0,5.085551537E0
1.450198547E1,3.740592718E0,-2.515804291E0,-1.701358676E0,4.818290823E0
1.451200084E1,4.372727871E0,-2.441841602E0,-1.521067262E0,5.234212936E0
1.452197740E1,4.321360111E0,-2.270719051E0,-5.195853710E-1,4.909204333E0
1.453197896E1,4.129848003E0,-1.639123440E0,4.366825819E-1,4.464645771E0
1.454197844E1,3.250695705E0,-1.546602249E0,5.598633289E-1,3.643137114E0
1.455198808E1,3.001526833E0,-1.382794380E0,6.350628138E-1,3.365202580E0
1.456197766E1,2.102171421E0,4.694175720E-1,6.437125206E-1,2.248075477E0
1.457197714E1,1.931735635E0,5.151414871E-1,5.628647804E-1,2.076966556E0
1.458197922E1,1.782715797E0,5.599966049E-1,-1.614137888E-1,1.875560242E0
1.459197870E1,1.669119358E0,2.310742378E0,-2.226244211E-1,2.859204680E0
1.460198287E1,1.596269131E0,3.118647575E0,-2.754570246E-1,3.514244501E0
1.461213287E1,1.576545000E0,3.802431107E0,-3.365494013E-1,4.130041399E0
1.462196683E1,1.638396978E0,3.928177834E0,-4.210970402E-1,4.276943823E0
1.463197719E1,2.382088184E0,4.013278961E0,-4.859205484E-1,4.692213861E0
1.464198344E1,2.392058611E0,4.013932228E0,-5.234512091E-1,4.701871702E0
1.465198652E1,2.404210091E0,3.932393074E0,-5.341318846E-1,4.639961026E0
1.466198131E1,2.403285742E0,3.822490692E0,-5.331144333E-1,4.546584262E0
1.467198131E1,2.369785309E0,3.727554321E0,-5.555449724E-1,4.451873071E0
1.468197792E1,2.286807775E0,3.669259071E0,-6.479297876E-1,4.371814834E0
1.469197922E1,2.159816265E0,3.662037849E0,-1.292555571E0,4.443650235E0
1.470198574E1,1.100557804E0,3.774685860E0,-1.436043978E0,4.185893349E0
1.471200475E1,-5.534291267E-2,4.455012321E0,-1.443229795E0,4.683279819E0
1.472197714E1,-9.127212763E-1,4.549194336E0,-1.415139675E0,4.850860700E0
1.473198105E1,-2.708019495E0,4.644612312E0,-1.390719771E0,5.553367861E0
1.474197766E1,-2.662918568E0,5.308959961E0,-1.373473525E0,6.096115213E0
1.475198626E1,-2.613499403E0,5.346121788E0,-1.278593898E0,6.086558934E0
1.476198782E1,-3.661506653E0,5.418230057E0,-5.483072996E-1,6.562353908E0
1.477198730E1,-4.223529339E0,6.105409622E0,-4.013503790E-1,7.434736637E0
1.478198834E1,-4.126148701E0,6.141774178E0,4.244687557E-1,7.411252720E0
1.479198157E1,-3.962755680E0,6.144524574E0,5.031621456E-1,7.328832579E0
1.480198881E1,-3.663241625E0,6.081150055E0,5.948112011E-1,7.124150866E0
1.481204141E1,-1.970857382E0,5.969691277E0,1.791165948E0,6.536801069E0
1.482197459E1,-1.788098097E0,5.245306969E0,1.804514885E0,5.828105521E0
1.483197943E1,-3.761881590E-1,4.433722496E0,1.613964558E0,4.733317473E0
1.484199146E1,5.362135172E-1,3.322849274E0,1.598845482E0,3.726279526E0
1.485198730E1,8.076531887E-1,2.184736252E0,1.582310200E0,2.815862520E0
1.486198886E1,1.915557504E0,1.231733322E0,3.063865900E-1,2.297912154E0
1.487197615E1,2.156189442E0,6.764698029E-2,9.515631199E-2,2.159347991E0
1.488198678E1,3.234506845E0,-6.929397583E-3,-1.119698644E0,3.422836193E0
1.489198834E1,3.875755072E0,3.572463989E-3,-1.269763827E0,4.078454403E0
1.490198782E1,3.898451328E0,-1.412678719E0,-2.002764225E0,4.604850536E0
1.491198574E1,3.845668077E0,-1.534628868E0,-2.057838917E0,4.623737637E0
1.492198834E1,3.731618404E0,-2.426379204E0,-2.103671551E0,4.923182502E0
1.493198834E1,3.527791500E0,-2.561069965E0,-2.121434212E0,4.848182685E0
1.494198704E1,2.471880436E0,-3.656589985E0,-2.090723515E0,4.883847666E0
1.495198678E1,2.248316288E0,-4.320651054E0,-2.057975292E0,5.287552739E0
1.496198730E1,1.070471168E0,-4.459518909E0,-2.021970510E0,5.012143471E0
1.497202324E1,3.072144985E-1,-5.405263424E0,-1.939395785E0,5.750870320E0
1.498257459E1,6.837594509E-2,-5.479920864E0,-1.829569578E0,5.777675379E0
1.499199949E1,-1.861877203E0,-6.146349907E0,-1.686349034E0,6.639877782E0
1.500197563E1,-1.895146608E0,-6.177061558E0,-9.367198944E-1,6.528791183E0
1.501198912E1,-1.919566870E0,-6.227746487E0,-7.610735893E-1,6.561158151E0
1.502198084E1,-2.143418789E0,-6.834266663E0,1.788108349E-1,7.164734345E0
1.503197662E1,-3.669610023E0,-6.868521690E0,4.180308580E-1,7.798549720E0
1.504199745E1,-3.772097349E0,-6.934868813E0,1.896238923E0,8.118919011E0
1.505197610E1,-4.383736134E0,-7.675879002E0,1.995718718E0,9.061961936E0
1.506197896E1,-4.446867943E0,-7.718269825E0,4.747385025E0,1.009375986E1
1.507197766E1,-4.341232300E0,-7.666082859E0,5.907969475E0,1.060750808E1
1.508197818E1,-3.427150249E0,-6.964475155E0,7.280410767E0,1.064207000E1
1.509198495E1,-1.768709898E0,-5.488296509E0,8.551178932E0,1.031369936E1
1.510197688E1,1.957418919E-1,-3.228436470E0,9.733811378E0,1.025710490E1
1.511197610E1,2.699427128E0,-6.912021637E-1,1.051305962E1,1.087607879E1
1.512197714E1,5.129027843E0,1.707005501E0,1.048989964E1,1.180079611E1
1.513197662E1,6.973258018E0,3.618865013E0,1.131298733E1,1.377338715E1
1.514198313E1,8.436044693E0,4.931595802E0,1.106680298E1,1.476352314E1
1.515198079E1,8.485970497E0,5.562623024E0,1.074792099E1,1.478080768E1
1.516199667E1,8.375350952E0,5.524239540E0,9.176025391E0,1.359643954E1
1.517199011E1,8.278600693E0,4.742284775E0,7.710669994E0,1.226698521E1
1.518198657E1,5.915655136E0,3.471946716E0,6.538290977E0,9.476214360E0
1.519198001E1,4.093426228E0,2.116649628E0,5.091564178E0,6.867340803E0
1.520197766E1,2.239197254E0,3.220024109E-1,3.211778402E0,3.928512492E0
1.521197948E1,7.878727913E-1,2.974386215E-1,1.168355584E0,1.440231940E0
1.522197844E1,-3.149851561E-1,2.542386055E0,-1.469563603E0,2.953397990E0
1.523197714E1,-2.290847063E0,4.678586006E0,-1.636564255E0,5.460356201E0
1.524198834E1,-2.321380854E0,6.660087585E0,-3.493083477E0,7.870654858E0
1.525197896E1,-2.468054295E0,7.750706673E0,-5.413466930E0,9.770894029E0
1.526197402E1,-3.378229141E0,7.598574638E0,-6.117693424E0,1.032361087E1
1.527198001E1,-3.320334673E0,5.999149323E0,-6.153806686E0,9.213237849E0
1.528198053E1,-3.194672108E0,4.124280930E0,-6.100491524E0,8.026930914E0
1.529198495E1,-1.921033502E0,1.451662064E0,-5.964135170E0,6.431842721E0
1.530197818E1,-1.932717204E0,-1.672443390E0,-6.498356342E0,6.982914709E0
1.531197896E1,-4.828991890E-1,-4.230360508E0,-7.256533146E0,8.413466286E0
1.532197636E1,5.408332348E-1,-5.599748611E0,-7.208064556E0,9.143625088E0
1.533197818E1,1.383398056E0,-5.659917831E0,-7.039605618E0,9.138080066E0
1.534205949E1,1.636623383E0,-4.891711235E0,-6.679117203E0,8.439074683E0
1.535198292E1,2.493138313E0,-3.382119179E0,-5.015367031E0,6.542810959E0
1.536196485E1,2.621643066E0,-1.748119831E0,-3.558911800E0,4.753397576E0
1.537197641E1,2.682626724E0,1.051120758E-1,-2.301659346E0,3.536265040E0
1.538198287E1,2.697388649E0,1.248989105E-1,-1.283700347E0,2.989881577E0
1.539198443E1,2.630657911E0,1.820021629E0,3.163131773E-1,3.214481887E0
1.540198157E1,2.476686478E0,1.896328926E0,2.994504571E-1,3.133641632E0
1.541197818E1,1.312682152E0,1.855817795E0,4.422563016E-1,2.315768718E0
1.542198131E1,3.729614019E-1,1.195774078E-1,5.441518426E-1,6.704477546E-1
1.543197766E1,-1.227149844E0,-1.599138260E0,-1.157483101E0,2.324415420E0
1.544198417E1,-1.410310984E0,-2.673790932E0,-1.928502917E0,3.585701956E0
1.545197688E1,-1.392386079E0,-3.340517521E0,-1.907111526E0,4.090827627E0
1.546197714E1,-1.373166561E0,-3.416301727E0,-1.887264132E0,4.137447257E0
1.547197688E1,-1.338209987E0,-3.433888912E0,-1.885706425E0,4.139841513E0
1.548197896E1,-1.270794988E0,-3.383816719E0,-1.871202230E0,4.070200643E0
1.549198287E1,-1.347935319E0,-3.273102760E0,-1.889028668E0,4.012301162E0
1.550197714E1,-1.927096844E-1,-2.438672066E0,-1.917455077E0,3.108197619E0
1.551197870E1,1.023628116E0,-2.337697983E0,-1.922049999E0,3.194827472E0
1.552197860E1,2.263392925E0,-2.228597164E0,-1.903717518E0,3.703205806E0
1.553197975E1,3.375902176E0,-2.141827106E0,-1.871064901E0,4.414184264E0
1.554199579E1,4.207722664E0,-2.074366570E0,-1.819722891E0,5.031830490E0
1.555197011E1,4.402577400E0,-2.028589725E0,-1.737384319E0,5.149404656E0
1.556197928E1,5.266163349E0,-1.988448143E0,-1.648060441E0,5.865364921E0
1.557197766E1,5.279659748E0,-1.947258472E0,-1.539113879E0,5.833994699E0
1.558197844E1,5.211688519E0,-1.869789124E0,-1.398779035E0,5.710901100E0
1.559198495E1,5.013419151E0,-1.214632034E0,-6.954642534E-1,5.205129498E0
1.560197766E1,4.761529922E0,-1.070390701E0,-5.701256990E-1,4.913547269E0
1.561197922E1,3.781009674E0,3.788576126E-1,-4.308936596E-1,3.824295568E0
1.562197688E1,2.957858086E0,4.293441772E-1,-3.981758356E-1,3.015261991E0
1.563197792E1,2.754156113E0,1.425846100E0,-3.845205307E-1,3.125103043E0
1.564198521E1,2.564920425E0,2.427416801E0,-4.160799980E-1,3.555881281E0
1.565197818E1,2.400110960E0,2.560230255E0,-4.643132687E-1,3.539900901E0
1.566197792E1,2.296835423E0,3.253111839E0,-5.433571339E-1,4.019132565E0
1.567197792E1,2.248629332E0,3.338423729E0,-1.149711728E0,4.186077391E0
1.568197766E1,2.232974052E0,3.413190842E0,-1.204058886E0,4.252740603E0
1.569198183E1,2.278849602E0,3.425086021E0,-1.250894070E0,4.299896014E0
1.570200344E1,2.332276344E0,3.362504005E0,-1.282841682E0,4.288546247E0
1.571197574E1,2.348687172E0,3.287171364E0,-1.291740894E0,4.241511705E0
1.572207641E1,2.315042496E0,3.247396469E0,-1.273373604E0,4.186464609E0
1.573198162E1,2.211162567E0,3.251375198E0,-1.264328718E0,4.130279371E0
1.574198084E1,1.420469046E0,3.296075821E0,-1.259120822E0,3.803581650E0
1.575197636E1,7.311694622E-1,3.378594398E0,-1.265882015E0,3.681299522E0
1.576197922E1,-2.431774139E-2,4.105627060E0,-1.239499331E0,4.288720497E0
1.577197610E1,-9.105896950E-1,4.254185677E0,-1.180857778E0,4.507959012E0
1.578197766E1,-2.577789545E0,5.395341873E0,-1.084432125E0,6.077063921E0
1.579198235E1,-3.669750929E0,6.131652832E0,-9.259887934E-1,7.205670932E0
1.580198313E1,-3.808082581E0,6.140336990E0,-8.438611031E-1,7.274430071E0
1.581197740E1,-4.601698875E0,6.127865791E0,-7.448233366E-1,7.699424232E0
1.582198027E1,-4.549371719E0,6.088669777E0,-6.656718254E-2,7.600862706E0
1.583197740E1,-4.408865929E0,6.001906395E0,-1.970326900E-2,7.447238909E0
1.584198730E1,-4.146771431E0,5.848123550E0,3.253304958E-2,7.169192476E0
1.585197714E1,-3.114992142E0,4.973886490E0,9.100425243E-2,5.869497818E0
1.586197740E1,-1.622556806E0,4.816607475E0,1.692519188E-1,5.085375539E0
1.587197740E1,-1.612310648E0,3.969535828E0,1.716462731E0,4.615517806E0
1.588198600E1,-2.305338383E-1,3.772309303E0,1.715269923E0,4.150375193E0
1.589200167E1,7.348524332E-1,2.500304222E0,1.712922215E0,3.118594526E0
1.590199365E1,1.613288283E0,1.657945633E0,1.710092664E0,2.876786354E0
1.591198110E1,1.891182303E0,5.603694916E-2,1.705816388E0,2.547453669E0
1.592198183E1,2.962806225E0,-3.817939758E-2,5.350546837E-1,3.010973581E0
1.593198001E1,3.140882015E0,-3.040122986E-2,-3.224539757E-1,3.157537115E0
1.594198678E1,3.820597410E0,-1.159613609E0,-4.525275230E-1,4.018264483E0
1.595198235E1,3.847895145E0,-1.831536293E0,-1.176725388E0,4.421029844E0
1.596197844E1,3.824213028E0,-1.979868889E0,-1.259622931E0,4.486773454E0
1.597198235E1,3.706344604E0,-3.006614685E0,-1.340757132E0,4.957252452E0
1.598197834E1,2.721161842E0,-4.142300606E0,-1.471443295E0,5.169963390E0
1.599198678E1,2.528132915E0,-4.254463196E0,-1.524662256E0,5.178465807E0
1.600198782E1,1.574350595E0,-5.116484642E0,-1.562495947E0,5.576592909E0
1.601199120E1,1.368903995E0,-5.195464134E0,-1.535630822E0,5.587925173E0
1.602198574E1,4.131821394E-1,-5.833068848E0,-1.460145593E0,6.027224636E0
1.603198808E1,2.337073088E-1,-5.873245716E0,-1.332273245E0,6.026988165E0
1.604199146E1,-1.465614796E0,-5.927271843E0,-5.846023560E-1,6.133705091E0
1.605198834E1,-1.501828194E0,-5.973111629E0,-4.051187038E-1,6.172331134E0
1.606198964E1,-1.733234406E0,-6.017679214E0,5.795789957E-1,6.289075961E0
1.607203256E1,-1.741525888E0,-6.655714512E0,1.735581160E0,7.095328748E0
1.608198553E1,-1.746039033E0,-6.684239388E0,1.831945658E0,7.147288534E0
1.609196834E1,-1.725077510E0,-6.741390705E0,2.940825224E0,7.554514812E0
1.610197355E1,-1.702078104E0,-6.810734272E0,3.885922909E0,8.023937191E0
1.611197563E1,-1.821599245E0,-7.402617455E0,4.864227772E0,9.043101282E0
1.612197896E1,-1.742774963E0,-7.368868828E0,5.905145645E0,9.602512039E0
1.613199277E1,-1.663978338E0,-7.242692471E0,7.051164627E0,1.024423451E1
1.614198808E1,-1.585332751E0,-5.695142269E0,8.110187531E0,1.003608824E1
1.615198756E1,2.301664352E-1,-3.675440311E0,9.030988693E0,9.752978768E0
1.616198678E1,3.405946255E0,1.438086510E0,9.802943230E0,1.047693937E1
1.617198626E1,4.736134529E0,3.606514931E0,9.665992737E0,1.135206306E1
1.618198886E1,5.651125431E0,5.113790512E0,9.403931618E0,1.210454468E1
1.619198834E1,5.779086113E0,5.959275246E0,8.985696793E0,1.223329656E1
1.620198886E1,5.791969299E0,5.966931343E0,7.719034195E0,1.134613004E1
1.621198521E1,5.666874886E0,5.792981148E0,6.692234993E0,1.050990536E1
1.622198886E1,4.569808483E0,3.865365028E0,5.666223049E0,8.241982772E0
1.623198730E1,3.080419064E0,2.050967216E0,4.602706432E0,5.905959247E0
1.624197948E1,1.506258726E0,3.050956726E-1,3.418453455E0,3.748029181E0
1.625197412E1,2.094359398E-1,-9.732418060E-1,1.971747994E0,2.208812618E0
1.626198219E1,-8.457859755E-1,-1.002244949E0,3.664615154E-1,1.361669158E0
1.627197198E1,-2.124735832E0,4.047822952E-1,-1.525578737E0,2.646836139E0
1.628198709E1,-2.148230791E0,1.953842163E0,-3.183761597E0,4.309145232E0
1.629198443E1,-2.163025618E0,4.432115555E0,-4.320342541E0,6.556499659E0
1.630198000E1,-2.322046041E0,6.326945305E0,-5.549355984E0,8.730262685E0
1.631198157E1,-2.231642008E0,7.312598228E0,-6.707524300E0,1.017080140E1
1.632198417E1,-2.105502367E0,7.352534294E0,-7.432445049E0,1.066462096E1
1.633197922E1,-1.916923642E0,7.233419418E0,-7.342418194E0,1.048370439E1
1.634197896E1,-4.393777847E-1,4.011140823E0,-5.933495998E0,7.175561184E0
1.635197818E1,3.706818819E-1,2.092323303E-1,-5.694363594E0,5.710250429E0
1.636198183E1,1.184918284E0,-2.161036491E0,-5.478364468E0,6.007211275E0
1.637198027E1,1.400755048E0,-4.538796425E0,-5.236398220E0,7.069841159E0
1.638197662E1,1.578505516E0,-5.849360466E0,-4.980055809E0,7.842681518E0
1.639197896E1,1.717504978E0,-5.929583073E0,-4.683139801E0,7.748650022E0
1.640197714E1,1.758265257E0,-5.774532318E0,-3.687726498E0,7.073616255E0
1.641197636E1,1.733904243E0,-4.042517185E0,-3.423435211E0,5.573892514E0
1.642197948E1,1.645202994E0,-2.353097916E0,-3.169868231E0,4.276894585E0
1.643200344E1,1.555557370E0,1.776494980E-1,-2.363008738E0,2.834630200E0
1.644197896E1,1.492337108E0,1.048545837E-1,-2.167184353E0,2.633391833E0
1.645199709E1,1.447413445E0,1.472476006E0,-1.954684973E0,2.843234885E0
1.646197563E1,1.368823171E0,1.590523720E0,-1.771593809E0,2.746267868E0
1.647197474E1,1.242061257E0,1.616883278E0,-1.657218099E0,2.627432117E0
1.648198391E1,5.347360373E-1,1.460384369E0,-1.613294125E0,2.240844275E0
1.649197792E1,4.469645023E-1,1.377811432E-1,-1.636570096E0,1.702093590E0
1.650198027E1,3.314554691E-1,-1.236661911E0,-1.656258106E0,2.093414991E0
1.651198261E1,-4.724329710E-1,-2.188981056E0,-1.668623090E0,2.792692964E0
1.652197870E1,-1.410691977E0,-3.006332874E0,-2.327349186E0,4.055199556E0
1.653197688E1,-1.573301911E0,-3.004495144E0,-2.314862490E0,4.106197550E0
1.654197896E1,-1.511731267E0,-2.975454330E0,-2.313035965E0,4.060639761E0
1.655198131E1,3.355484009E-1,-2.905065060E0,-2.321594715E0,3.733871684E0
1.656197688E1,1.214914083E0,-2.811149120E0,-2.319945335E0,3.841968501E0
1.657197818E1,2.157838821E0,-2.720667362E0,-2.301675320E0,4.166054315E0
1.658197714E1,3.134443998E0,-2.644250393E0,-2.267115593E0,4.685788347E0
1.659197766E1,3.909455776E0,-2.586593151E0,-2.172425032E0,5.166598408E0
1.660197766E1,4.026153088E0,-2.548328400E0,-2.036801338E0,5.181934582E0
1.661197714E1,4.652151585E0,-2.521804810E0,-1.854216099E0,5.607150007E0
1.662199688E1,4.619474411E0,-2.485812187E0,-1.043896198E0,5.348693797E0
1.663197615E1,4.510830879E0,-2.415704250E0,-8.932733536E-1,5.194339181E0
1.664197355E1,4.292007446E0,-2.304342270E0,-7.353678942E-1,4.926671001E0
1.665197615E1,3.331417084E0,-1.614559650E0,-2.630925179E-2,3.702139223E0
