"Time (s)","Linear Acceleration x (m/s^2)","Linear Acceleration y (m/s^2)","Linear Acceleration z (m/s^2)","Absolute acceleration (m/s^2)"
9.896042500E-2,0.000000000E0,0.000000000E0,0.000000000E0,0.000000000E0
1.089591230E-1,1.667690277E-2,-5.974149704E-2,1.725101471E-2,6.437983429E-2
1.189651120E-1,3.057432175E-2,-4.642701149E-1,6.433296204E-2,4.697023086E-1
1.289596440E-1,3.472423553E-2,-3.669261932E-1,1.186542511E-1,3.871943118E-1
1.389625080E-1,1.523804665E-2,-2.874678373E-1,1.292362213E-1,3.155502440E-1
1.489921960E-1,1.267671585E-3,-2.258446217E-1,5.720567703E-2,2.329804490E-1
1.589601650E-1,-1.340627670E-2,-1.223690510E-1,-8.471536636E-2,1.494342872E-1
1.689708940E-1,-5.901741982E-2,6.948682070E-1,-7.756180763E-1,1.043028418E0
1.789494870E-1,-1.119360924E-1,1.306079388E0,-6.999201775E-1,1.486021975E0
1.889570920E-1,-1.622655392E-1,1.824226618E0,-6.480455399E-1,1.942703240E0
1.989643310E-1,-2.063503265E-1,1.789360762E0,-6.319046021E-1,1.908846725E0
2.089599040E-1,-2.410652637E-1,2.390511990E0,-6.304750443E-1,2.483980438E0
2.189687580E-1,-2.501471043E-1,2.251194954E0,-6.271162033E-1,2.350261055E0
2.289614670E-1,-2.657065392E-1,2.129624605E0,-6.083869934E-1,2.230702951E0
2.389617270E-1,-3.048648834E-1,2.008414745E0,-5.770149231E-1,2.111780909E0
2.489578210E-1,-3.541932106E-1,1.901139498E0,-5.352282524E-1,2.006552641E0
2.589614670E-1,-4.257489443E-1,1.796105146E0,-5.079517365E-1,1.914489704E0
2.689739670E-1,-1.064374328E0,1.697656393E0,-4.973263741E-1,2.064524996E0
2.789604250E-1,-1.067107916E0,1.595534325E0,-5.051851273E-1,1.984857954E0
2.889604250E-1,-1.097928882E0,1.504551411E0,-5.191092491E-1,1.933545238E0
2.989575600E-1,-2.160343885E0,1.418403864E0,-5.007271767E-1,2.632429093E0
3.089575600E-1,-2.023964643E0,1.359944582E0,-4.460611343E-1,2.478881336E0
3.189640710E-1,-1.897705317E0,1.315474510E0,-3.658432961E-1,2.337862266E0
3.289659980E-1,-1.780300975E0,1.259408236E0,-2.972784042E-1,2.200898706E0
3.389845920E-1,-1.670688868E0,1.203222275E0,-2.527790070E-1,2.074329376E0
3.489643830E-1,-1.760277867E0,1.137701511E0,-2.191963196E-1,2.107365636E0
3.589666750E-1,-1.656563759E0,1.045632362E0,-2.515835762E-1,1.975055650E0
3.689651650E-1,-1.558829427E0,9.266915321E-1,-3.206663132E-1,1.841611594E0
3.789593830E-1,-2.122035027E-1,7.995648384E-1,-9.538602829E-1,1.262609875E0
3.889614670E-1,-1.003572941E-1,5.687808990E-2,-1.619239330E0,1.623343067E0
3.989604250E-1,-7.299482822E-2,1.372480392E-2,-1.602427483E0,1.604147890E0
4.089596440E-1,-4.956412315E-2,-3.244495392E-2,-1.535890579E0,1.537032579E0
4.189669350E-1,-5.809271336E-2,-9.536981583E-2,-1.389261723E0,1.393742551E0
4.289583420E-1,-1.271336079E-1,-1.485877037E-1,-4.979157448E-1,5.349405096E-1
4.389612060E-1,-2.332123518E-1,-2.029895782E-1,-3.681550026E-1,4.807607262E-1
4.489596440E-1,-1.529356956E0,-2.439827919E-1,4.701051712E-1,1.618474336E0
4.589596440E-1,-1.450163364E0,-2.687077522E-1,5.655775070E-1,1.579574486E0
4.689645920E-1,-1.374005318E0,-2.890892029E-1,1.224512100E0,1.863033296E0
4.789586020E-1,-1.300655127E0,-3.009569645E-1,1.261554718E0,1.836790451E0
4.889604250E-1,-1.425029516E0,-3.055484295E-1,1.299592972E0,1.952693232E0
4.989593830E-1,-2.405678749E0,-3.087201118E-1,1.300158024E0,2.751910107E0
5.090583420E-1,-2.371297836E0,-3.202702999E-1,1.331050396E0,2.738123746E0
5.189717790E-1,-2.293134451E0,-3.677444458E-1,1.397465229E0,2.710463181E0
5.291301650E-1,-2.182553291E0,-4.314904213E-1,1.965386391E0,2.968579882E0
5.389588100E-1,-1.180724502E0,-4.946684837E-1,1.922821045E0,2.309988751E0
5.489601650E-1,-1.116453648E0,-5.284559727E-1,1.862844467E0,2.235156364E0
5.589588620E-1,-1.054027557E0,-5.178070068E-1,1.730485439E0,2.091334034E0
5.689658940E-1,-9.933330417E-1,-4.498853683E-1,8.477253914E-1,1.381211684E0
5.789632900E-1,-9.342663884E-1,-3.714506626E-1,7.250084877E-1,1.239542894E0
5.889630290E-1,-1.072810173E0,-2.937664986E-1,-2.985811234E-2,1.112704781E0
5.989599040E-1,-9.740779400E-1,4.452819824E-1,-7.994194031E-1,1.336478679E0
6.089591230E-1,-9.167801738E-1,5.369920731E-1,-8.086900711E-1,1.335225076E0
6.189687580E-1,-8.608387709E-1,6.099033356E-1,-7.909755707E-1,1.318585538E0
6.289716230E-1,-1.002609491E0,6.280117035E-1,-7.212138176E-1,1.385559043E0
6.389703210E-1,5.236133337E-1,5.797181129E-1,-6.020245552E-1,9.862441781E-1
6.489700600E-1,6.104966402E-1,5.419182777E-1,-1.148700714E-3,8.163227836E-1
6.589698000E-1,6.840965152E-1,5.325107574E-1,3.278112411E-2,8.675427084E-1
6.689692790E-1,7.558181882E-1,5.330886841E-1,8.121109009E-2,9.284610492E-1
6.789684980E-1,8.065298200E-1,5.374493599E-1,1.179203987E-1,9.763438868E-1
6.889732900E-1,8.439236283E-1,5.402460098E-1,1.444864273E-1,1.012397733E0
6.989743830E-1,8.746415377E-1,5.465331078E-1,1.526246071E-1,1.042588379E0
7.089576650E-1,8.850964308E-1,5.703186989E-1,1.497111320E-1,1.063518939E0
7.189724560E-1,8.829298019E-1,5.946664810E-1,1.324539185E-1,1.072724242E0
7.289690190E-1,8.505836725E-1,6.243081093E-1,1.173596382E-1,1.061615036E0
7.389661540E-1,7.826255560E-1,6.536507607E-1,8.965539932E-2,1.023621106E0
7.489692790E-1,6.889140606E-1,6.875414848E-1,5.112218857E-2,9.746431934E-1
7.589695400E-1,5.779782534E-1,7.108159065E-1,2.264642715E-2,9.164229237E-1
7.689713620E-1,-1.143889070E0,7.692651749E-1,-5.100631714E-2,1.379439291E0
7.789679770E-1,-1.088557243E0,7.936367989E-1,-1.041150093E-1,1.351168448E0
7.889692790E-1,-1.034193516E0,8.231225014E-1,-1.594653130E-1,1.331358729E0
7.989711020E-1,-9.807584882E-1,8.569979668E-1,-2.311973572E-1,1.322794370E0
8.089677170E-1,-9.282150865E-1,8.801116943E-1,-2.976183891E-1,1.313299869E0
8.189476650E-1,-1.073896408E0,8.939180374E-1,-3.448457718E-1,1.439187812E0
8.289666750E-1,9.339112043E-2,9.142103195E-1,-3.851256371E-1,9.964056232E-1
8.389734460E-1,9.602226019E-1,9.497804642E-1,-4.048290253E-1,1.409963445E0
8.489716230E-1,1.034488440E0,9.936757088E-1,-4.261126518E-1,1.496372192E0
8.590065190E-1,1.131099701E0,1.044724941E0,-4.729652405E-1,1.610755368E0
8.689582900E-1,1.807295442E0,1.097062588E0,-5.467071533E-1,2.183747203E0
8.789602170E-1,1.814235806E0,1.150465965E0,-1.156449795E0,2.439754009E0
8.889483420E-1,1.798351884E0,1.219282150E0,-1.212657452E0,2.488223574E0
8.989555290E-1,1.738543391E0,1.791213036E0,-1.288688660E0,2.809216212E0
9.089664150E-1,1.660244465E0,1.778883457E0,-1.352697849E0,2.783995242E0
9.189619870E-1,1.575770855E0,1.751303673E0,-1.411101341E0,2.746147363E0
9.289445400E-1,1.490929365E0,1.734838963E0,-1.435508728E0,2.700596583E0
9.389617270E-1,1.381639838E0,1.723182201E0,-1.377146721E0,2.602848177E0
9.489552170E-1,7.048768997E-1,1.693607807E0,-3.854212761E-1,1.874488839E0
9.589645920E-1,6.844272614E-1,1.649389267E0,-2.432532310E-1,1.802247975E0
9.689599040E-1,6.804285049E-1,1.599346638E0,6.432423592E-1,1.853281779E0
9.789599040E-1,6.712698936E-1,1.563752174E0,7.339081764E-1,1.853252639E0
9.889606850E-1,6.625165939E-1,1.521309376E0,1.369390965E0,2.151404673E0
9.989599040E-1,6.395691633E-1,1.463294983E0,1.413358212E0,2.132571770E0
1.008963810E0,6.237833500E-1,1.387023449E0,1.425451279E0,2.084430633E0
1.018959644E0,5.996577740E-1,1.299896717E0,1.424510479E0,2.019542281E0
1.028960946E0,5.877660513E-1,1.218045712E0,1.388020515E0,1.937964199E0
1.038959540E0,6.010591984E-1,1.145722389E0,1.325650215E0,1.852376972E0
1.048975842E0,6.895868778E-1,1.057457924E0,1.255512238E0,1.780465754E0
1.058961675E0,7.557736635E-1,9.749174118E-1,1.173875809E0,1.702833581E0
1.068956415E0,7.588218451E-1,9.411544800E-1,3.666706085E-1,1.263340684E0
1.078959383E0,7.411727905E-1,9.254107475E-1,2.319750786E-1,1.208111996E0
1.088961727E0,7.299072742E-1,8.961553574E-1,-5.231719017E-1,1.268687468E0
1.098961987E0,7.096155882E-1,8.795242310E-1,-5.874238014E-1,1.273649826E0
1.108968498E0,6.475104094E-1,8.690023422E-1,-6.473269463E-1,1.262326018E0
1.118957040E0,5.492295027E-1,8.637938499E-1,-6.791062355E-1,1.228404714E0
1.128957300E0,-1.266627192E0,9.244494438E-1,-6.699352264E-1,1.705216827E0
1.138960425E0,-1.215475917E0,9.100217819E-1,-5.903720856E-1,1.629128769E0
1.148964331E0,-1.363084316E0,8.673815727E-1,-4.672799110E-1,1.681874003E0
1.158972404E0,-1.311270952E0,8.294982910E-1,2.532267570E-1,1.572139534E0
1.168960165E0,-1.260020852E0,7.909212112E-1,2.790923119E-1,1.513638474E0
1.178958342E0,-1.209318995E0,7.420606613E-1,2.963767052E-1,1.449463904E0
1.188957821E0,-1.159150958E0,6.940598488E-1,2.916135788E-1,1.382168042E0
1.198958602E0,-1.307779074E0,6.371278763E-1,2.580051422E-1,1.477425020E0
1.208964331E0,-1.256943226E0,5.773711205E-1,1.848139763E-1,1.395499871E0
1.219002092E0,-1.206630230E0,5.200881958E-1,9.680891037E-2,1.317505297E0
1.228963133E0,-1.156826615E0,4.844675064E-1,-3.967761993E-3,1.254181935E0
1.238957665E0,-1.107519627E0,4.579491615E-1,-6.386232376E-1,1.357997348E0
1.248957873E0,-1.257044315E0,4.539537430E-1,-6.560797691E-1,1.488850253E0
1.258965894E0,-1.207068443E0,4.841089249E-1,-6.754622459E-1,1.465477712E0
1.268959904E0,-1.157580137E0,5.390124321E-1,-6.916370392E-1,1.452201078E0
1.278961727E0,-1.108567476E0,6.250844002E-1,-7.293505669E-1,1.466834894E0
1.288961727E0,-1.060018897E0,1.278784752E0,-7.808651924E-1,1.835396674E0
1.298961727E0,-1.210336328E0,1.338424683E0,-8.297185898E-1,1.986133831E0
1.308964331E0,-1.121505499E0,2.048546314E0,-9.744105339E-1,2.530571571E0
1.318959383E0,-1.073121786E0,2.081551552E0,-1.054552078E0,2.568370557E0
1.328960685E0,-8.792710304E-2,2.122921944E0,-1.688994884E0,2.714264629E0
1.338960685E0,5.344028473E-1,2.171534061E0,-1.716336727E0,2.819035002E0
1.348960425E0,5.688898563E-1,2.211802006E0,-1.748279095E0,2.876140395E0
1.358965112E0,6.178091764E-1,2.249672890E0,-1.784201145E0,2.937020602E0
1.368954956E0,6.451405287E-1,2.285444736E0,-1.833299637E0,3.000075250E0
1.378959123E0,6.537034512E-1,2.309638500E0,-1.879204273E0,3.048469600E0
1.388975790E0,6.557016373E-1,2.318900585E0,-1.907698631E0,3.073525440E0
1.398958290E0,6.179090738E-1,2.334680557E0,-1.925929070E0,3.088971950E0
1.408961258E0,5.650677681E-1,2.351252079E0,-1.915758133E0,3.085095970E0
1.418945946E0,4.845874310E-1,2.383123875E0,-1.885805130E0,3.077395875E0
1.428956310E0,3.850340843E-1,2.413663864E0,-1.833830833E0,3.055643962E0
1.438960946E0,-1.226350069E0,2.457649231E0,-1.757905006E0,3.261012764E0
1.448960425E0,-1.177995443E0,2.498681545E0,-1.670982361E0,3.228508135E0
1.458965633E0,-1.130037427E0,2.542001247E0,-1.584325314E0,3.201381206E0
1.468960165E0,-1.082467794E0,2.577544689E0,-1.502847672E0,3.173960345E0
1.478958862E0,-1.194231749E0,2.638647556E0,-7.276577950E-1,2.986324876E0
1.488962769E0,-1.146379709E0,2.662278652E0,-6.007270813E-1,2.960200514E0
1.498961987E0,-1.098904252E0,2.641693115E0,-5.240402222E-1,2.908737050E0
1.508962508E0,-1.051797509E0,2.602199078E0,-5.349388123E-1,2.857250002E0
1.518958081E0,-1.005052090E0,2.595045567E0,-6.317052841E-1,2.853671803E0
1.528958862E0,-1.157336593E0,2.640388489E0,-1.421298981E0,3.214213769E0
1.538957300E0,-1.109985590E0,2.731342793E0,-1.551604271E0,3.331632824E0
1.548959123E0,-1.062992215E0,3.481015205E0,-2.473718166E0,4.400761397E0
1.558964852E0,-1.016349435E0,3.515748024E0,-3.182212830E0,4.849734924E0
1.568963550E0,1.003765106E0,4.536930561E0,-4.167382717E0,6.241663401E0
1.578971987E0,1.154891849E0,4.428360462E0,-4.300507545E0,6.280009292E0
1.588973237E0,1.974371791E0,4.420026302E0,-5.013848305E0,6.969465640E0
1.598968967E0,1.991519570E0,4.411925316E0,-4.951392174E0,6.924414751E0
1.608965112E0,1.941557527E0,4.404051304E0,-4.825117111E0,6.815208629E0
1.618961206E0,1.828410506E0,4.396401405E0,-4.062210083E0,6.258832244E0
1.628960425E0,1.002481937E0,4.289591312E0,-3.957568169E0,5.921816400E0
1.638962769E0,8.732081652E-1,3.251990795E0,-3.814895153E0,5.088355497E0
1.648959123E0,7.686889172E-2,2.528791904E0,-2.809131622E0,3.780465288E0
1.658971362E0,-1.045237303E0,2.365779400E0,-1.776803017E0,3.137907288E0
1.668961206E0,-1.197976947E0,2.255459785E0,-1.649022102E0,3.039987089E0
1.678961206E0,-1.151042819E0,1.558448315E0,-8.196659088E-1,2.103690311E0
1.688959904E0,-1.104429483E0,1.496903419E0,-6.928572655E-1,1.985078215E0
1.698959383E0,-1.058131099E0,1.413048267E0,9.647989273E-2,1.767952261E0
1.708965373E0,-2.583067417E0,1.363495827E0,1.727294922E-1,2.925951747E0
1.718959123E0,-2.659631729E0,1.348699093E0,2.145500183E-1,2.989759503E0
1.728958342E0,-2.734137535E0,1.354397297E0,2.312712669E-1,3.059965114E0
1.738960165E0,-2.792181015E0,1.382803917E0,2.115144730E-1,3.123004942E0
1.748991675E0,-2.821241856E0,1.435830116E0,1.210145950E-1,3.167910709E0
1.758978498E0,-2.781178474E0,1.490735054E0,-6.106295586E-1,3.214049341E0
1.768958654E0,-2.661499023E0,1.532609463E0,-7.451367378E-1,3.160331877E0
1.778956727E0,-1.021674037E0,1.577759743E0,-1.704014301E0,2.537086593E0
1.788959435E0,-9.761590362E-1,1.601345539E0,-1.816748619E0,2.611085894E0
1.798958342E0,-9.309290648E-1,1.596401215E0,-2.476696968E0,3.090170486E0
1.808964592E0,-8.859794736E-1,1.586155415E0,-2.515470505E0,3.102972847E0
1.818975165E0,-1.040200591E0,1.576187134E0,-2.532904148E0,3.159428204E0
1.828959123E0,-9.549535513E-1,1.527783394E0,-2.463737965E0,3.052222656E0
1.838959644E0,-9.099809527E-1,1.489244461E0,-2.372457743E0,2.945245345E0
1.848958342E0,-8.652783632E-1,1.454737663E0,-1.711449623E0,2.407078754E0
1.858970060E0,-1.019766092E0,1.443284512E0,-1.598005772E0,2.382564902E0
1.868969279E0,-9.745267630E-1,1.447027206E0,-9.511218071E-1,1.987013548E0
1.878972925E0,-9.295558333E-1,1.420079708E0,-8.956012726E-1,1.919062809E0
1.888966154E0,-8.848491907E-1,1.410361290E0,-8.418273926E-1,1.865676933E0
1.898968758E0,-8.404026628E-1,1.440050125E0,-7.944898605E-1,1.846952933E0
1.908966415E0,-9.951649308E-1,1.499145985E0,-7.527856827E-1,1.950507167E0
1.919012769E0,-9.501901269E-1,1.549645424E0,-7.257733345E-1,1.957296388E0
1.929722977E0,-9.054740667E-1,1.577995300E0,-7.310905457E-1,1.960725845E0
1.938964696E0,-8.610128164E-1,1.621216297E0,-7.499070168E-1,1.982938700E0
1.948949696E0,-8.168025613E-1,1.701766491E0,-7.853469849E-1,2.044491502E0
1.958959696E0,-9.718188643E-1,2.501059532E0,-8.254776001E-1,2.807337521E0
1.968959904E0,-9.270888567E-1,2.543220520E0,-8.891949654E-1,2.849233590E0
1.978975269E0,-8.826085925E-1,2.568614960E0,-9.782929420E-1,2.886838724E0
1.988971102E0,-8.383743763E-1,2.594048977E0,-1.614903927E0,3.168576397E0
1.998970842E0,-7.943825722E-1,2.658560753E0,-1.671989441E0,3.239527379E0
2.008970060E0,-9.098559022E-1,2.813408852E0,-1.845675945E0,3.485631481E0
2.018970321E0,-8.655709028E-1,2.856113434E0,-2.541954517E0,3.920220619E0
2.028970060E0,-8.215239644E-1,2.842788696E0,-2.578114033E0,3.924668287E0
2.038973446E0,-7.777116895E-1,2.814866543E0,-2.608081818E0,3.915405457E0
2.048972925E0,-9.331596494E-1,2.769374847E0,-2.632647753E0,3.933326603E0
2.058970060E0,-8.888449073E-1,2.713500023E0,-2.662268162E0,3.903946645E0
2.068968758E0,-8.447638750E-1,2.629093170E0,-2.691398144E0,3.856083618E0
2.078969540E0,-8.009133339E-1,2.563836098E0,-2.749386787E0,3.843676028E0
2.088973185E0,-7.488571405E-1,2.484068871E0,-2.763429880E0,3.790505227E0
2.099059644E0,-8.980298042E-1,2.418514252E0,-2.788188219E0,3.798639528E0
2.108959748E0,-8.464105725E-1,2.370254040E0,-3.335896015E0,4.178841621E0
2.118983290E0,-7.954552770E-1,2.356963158E0,-3.312174797E0,4.142285156E0
2.128956571E0,-7.451409101E-1,2.339956284E0,-3.265016556E0,4.085457562E0
2.138959696E0,-6.968876123E-1,2.286666393E0,-3.222869873E0,4.012653207E0
2.148958862E0,-8.482921720E-1,2.214981079E0,-3.183612347E0,3.970028761E0
2.158961467E0,-7.986529469E-1,2.127262115E0,-3.122545242E0,3.861784487E0
2.168960946E0,-7.499735355E-1,2.040345669E0,-3.056896687E0,3.751011611E0
2.178960685E0,-7.027696371E-1,2.010716438E0,-2.958378077E0,3.645389774E0
2.188960685E0,-8.166949153E-1,2.172745228E0,-2.795367241E0,3.633440576E0
2.198960425E0,-7.708448172E-1,3.195746422E0,-2.755373478E0,4.289414870E0
2.208958342E0,-7.243949175E-1,3.158588886E0,-2.742764473E0,4.245490396E0
2.218957821E0,-6.779366136E-1,3.123561382E0,-2.754254341E0,4.219259501E0
2.228958862E0,-6.315531731E-1,3.090646744E0,-3.341965199E0,4.595616182E0
2.238958602E0,-7.860518098E-1,2.959991455E0,-3.374726057E0,4.557214371E0
2.248961987E0,-7.392263412E-1,2.929956436E0,-4.967281342E0,5.814205382E0
2.258957560E0,-6.923119426E-1,1.412596703E0,-4.843244553E0,5.092321972E0
2.268958081E0,-6.455740929E-1,1.254067421E0,-4.722415447E0,4.928555434E0
2.278969435E0,-5.987787843E-1,5.012059212E-1,-4.604787350E0,4.670525660E0
2.288961154E0,-7.520405054E-1,3.950715065E-1,-4.688523769E0,4.764861126E0
2.298982821E0,-7.038819194E-1,2.637128830E-1,-4.556891918E0,4.618469248E0
2.308955790E0,-6.549197435E-1,1.349048615E-1,-4.426320553E0,4.476542508E0
2.318963810E0,-6.073901653E-1,-2.683210373E-2,-4.254088879E0,4.297314855E0
2.328961206E0,-5.604609847E-1,-7.225246429E-1,-4.102999687E0,4.203660882E0
2.338961467E0,-7.108280659E-1,-8.397111893E-1,-4.154709816E0,4.297907058E0
2.348959383E0,-6.597864628E-1,-1.009332180E0,-5.032265663E0,5.174723889E0
2.358960946E0,1.103344679E0,-1.657926559E0,-7.778290749E0,8.029190303E0
2.368960685E0,1.147181749E0,-1.047035217E0,-8.926283836E0,9.060400203E0
2.378960165E0,1.148307323E0,-4.115562439E-1,-9.679338455E0,9.755899814E0
2.388960165E0,1.103806138E0,5.341782570E-1,-9.705358505E0,9.782521051E0
2.398960425E0,9.839276671E-1,2.277059555E0,-9.602630615E0,9.917843949E0
2.408959383E0,-6.053922176E-1,2.245231152E0,-9.411703110E0,9.694726303E0
2.418959123E0,-6.145158410E-1,4.548406124E0,-9.109012604E0,1.019998719E1
2.428967977E0,-8.242113590E-1,5.694242477E0,-7.740787983E0,9.644870157E0
2.438956779E0,-2.433163166E0,6.368020058E0,-6.243585587E0,9.244150768E0
2.448957456E0,-2.597411871E0,6.314354420E0,-4.929901600E0,8.421493333E0
2.458976050E0,-2.711535215E0,6.194708824E0,-3.922941685E0,7.817692249E0
2.468963602E0,-2.749575138E0,5.449470520E0,-3.529901743E0,7.051035293E0
2.478956362E0,-2.662387848E0,4.391605377E0,-3.222092152E0,6.062704403E0
2.488964331E0,-2.572995901E0,3.176150322E0,-2.956890821E0,5.044942230E0
2.498959644E0,-2.468688011E0,1.528943062E0,-2.723494530E0,3.981144287E0
2.508960425E0,-2.288959026E0,1.521137238E0,-2.529519081E0,3.735191923E0
2.518960165E0,-5.539513826E-1,1.361770630E-1,-2.375335693E0,2.442872486E0
2.528959644E0,-6.416401863E-1,3.056526184E-2,-2.237494707E0,2.327878633E0
2.538964071E0,-4.951331913E-1,-4.472732544E-4,-2.171670914E0,2.227400196E0
2.548963550E0,-3.933243454E-1,7.368564606E-2,-2.175042152E0,2.211547417E0
2.558959644E0,-2.953236103E-1,1.532602310E-1,-2.218524933E0,2.243336268E0
2.568959644E0,-4.528205991E-1,2.298126221E-1,-2.251491308E0,2.308045374E0
2.578960165E0,-4.103684127E-1,2.816772461E-1,-2.815614462E0,2.859270729E0
2.588959644E0,-3.697035313E-1,2.828483582E-1,-2.794171095E0,2.832680004E0
2.598959904E0,-3.291004598E-1,2.251272202E-1,-2.760305405E0,2.788955952E0
2.608958081E0,-2.901255488E-1,7.219505310E-2,-2.720691442E0,2.737069032E0
2.618959383E0,-4.504397511E-1,-1.144997597E0,-2.646749973E0,2.918767015E0
2.629043081E0,-4.109702706E-1,-1.900555611E0,-2.512281179E0,3.176879745E0
2.638955217E0,-3.715853095E-1,-2.018808842E0,-1.724487185E0,2.680955209E0
2.648979071E0,-3.322526515E-1,-2.672006130E0,-1.617396235E0,3.141015627E0
2.658959175E0,-2.944172621E-1,-2.679088593E0,-1.563651681E0,3.115959530E0
2.668960946E0,-4.558194876E-1,-2.620367050E0,-1.517475009E0,3.062160232E0
2.678960165E0,-4.157703519E-1,-1.966578960E0,-1.478041053E0,2.494975580E0
2.688965373E0,-3.757296801E-1,-1.268643856E0,-1.411401510E0,1.934601832E0
2.698961206E0,-1.613475084E0,-5.079288483E-1,-1.376561999E0,2.180875168E0
2.708958862E0,-1.673212528E0,2.240524292E-1,-1.396598220E0,2.190964683E0
2.718959383E0,-1.757132053E0,1.459740639E0,-1.432922363E0,2.696594572E0
2.728959644E0,-1.696675777E0,1.474711418E0,-1.361109614E0,2.627946317E0
2.738961206E0,-1.625909328E0,1.489631653E0,-1.339704633E0,2.580192262E0
2.748962769E0,-1.484712362E0,1.444492340E-1,-1.379062772E0,2.031514339E0
2.758959383E0,-3.614847064E-1,-2.439498901E-3,-1.452487588E0,1.496795690E0
2.768958862E0,-2.763014436E-1,-8.660483360E-1,-2.026902914E0,2.221422434E0
2.778958602E0,-1.923714429E-1,1.464753151E0,-2.045220375E0,2.522981361E0
2.788959383E0,1.479430318E0,4.197967529E0,-2.004674911E0,4.881635683E0
2.798963810E0,2.399509907E0,6.931072235E0,-1.256523848E0,7.441522848E0
2.808978915E0,2.553578854E0,8.750105858E0,-1.077851534E0,9.178609994E0
2.819093654E0,3.322500944E0,9.720018387E0,3.062756956E-1,1.027674923E1
2.828962248E0,3.418808460E0,9.816687584E0,3.559736609E-1,1.040107320E1
2.838956310E0,3.485689878E0,1.049128151E1,4.042884111E-1,1.106257071E1
2.848960946E0,3.482802391E0,1.048158360E1,4.378244281E-1,1.105374133E1
2.858959644E0,3.369484901E0,8.481218338E0,2.586127520E-1,9.129697342E0
2.868957040E0,3.178771019E0,5.146369934E0,2.770863175E-1,6.055285750E0
2.878959644E0,2.308841705E0,2.617705345E0,-7.393928766E-1,3.567889169E0
2.888960685E0,1.344439268E0,1.251280785E0,-1.645886302E0,2.466204020E0
2.898960946E0,1.215049028E0,1.172252655E0,-1.720862746E0,2.410785976E0
2.908959383E0,1.152191281E0,1.193433762E0,-1.703814149E0,2.377984766E0
2.918962248E0,1.138879538E0,1.214590073E0,-1.626621246E0,2.327696785E0
2.928942873E0,1.164906025E0,1.236172676E0,-1.540124774E0,2.292839561E0
2.938983602E0,1.197651386E0,1.258534431E0,-1.466820598E0,2.273728309E0
2.948959383E0,1.786327839E0,1.181818962E0,-1.393017173E0,2.555026429E0
2.958957821E0,1.772126675E0,1.205278397E0,-1.311906338E0,2.512812608E0
2.968960685E0,1.773359895E0,1.228863716E0,-1.219619989E0,2.478383398E0
2.978990894E0,1.773491383E0,1.252551079E0,-1.117671728E0,2.441996311E0
2.988963706E0,1.753440380E0,1.276284218E0,-1.027028680E0,2.399633822E0
2.998967248E0,1.720718741E0,1.200383186E0,-9.707028866E-1,2.311721626E0
3.008948133E0,1.668843150E0,1.224977493E0,-9.461863041E-1,2.276153738E0
3.018958498E0,1.587385654E0,1.249749184E0,-9.449761510E-1,2.230391482E0
3.028959904E0,1.489867449E0,1.274681091E0,-9.648801088E-1,2.185294150E0
3.038988810E0,1.365500450E0,1.299433708E0,-1.018352509E0,2.142466166E0
3.048960165E0,1.227604747E0,1.224433899E0,-1.103409052E0,2.055179633E0
3.058959383E0,5.408521891E-1,1.249392509E0,-1.741328239E0,2.210368017E0
3.068958342E0,3.870329857E-1,1.294211388E0,-1.865910172E0,2.303562115E0
3.078959123E0,2.676117420E-1,1.318883896E0,-1.937504053E0,2.359023682E0
3.088958862E0,1.500003338E-1,1.243644714E0,-2.013753414E0,2.371572282E0
3.098971102E0,2.929008007E-2,1.268174171E0,-2.093798876E0,2.448084429E0
3.108972144E0,-7.718670368E-2,1.292118073E0,-2.159982920E0,2.518144776E0
3.118969279E0,-1.627470255E-1,1.312423706E0,-2.199275970E0,2.566273051E0
3.128969019E0,-2.370389700E-1,1.332407951E0,-2.247897387E0,2.623840903E0
3.139003133E0,-2.959891558E-1,1.252335548E0,-2.822325945E0,3.101850681E0
3.148967977E0,-3.458890915E-1,1.271876335E0,-2.818189383E0,3.111189495E0
3.159082560E0,-3.679003716E-1,1.291028976E0,-2.817667961E0,3.121115064E0
3.168960737E0,-3.798531294E-1,1.309806824E0,-2.820001125E0,3.132457288E0
3.178993758E0,-3.781039715E-1,1.328267097E0,-2.830002546E0,3.148995158E0
3.188960217E0,-3.640182018E-1,1.246696472E0,-2.851714611E0,3.133534357E0
3.198967196E0,-3.345590830E-1,1.264975548E0,-2.863523483E0,3.148310603E0
3.208967977E0,-2.916700840E-1,1.284849167E0,-2.853982210E0,3.143425405E0
3.218969019E0,-2.388083935E-1,1.305061340E0,-2.833615065E0,3.128831872E0
3.228973706E0,-1.916371584E-1,1.325516701E0,-2.794146299E0,3.098543669E0
3.239003915E0,-1.448638439E-1,1.246828079E0,-2.731069565E0,3.005712355E0
3.248967977E0,-2.569746971E-2,2.379492760E0,-2.602345467E0,3.526307996E0
3.258970060E0,4.564881325E-2,2.498850822E0,-2.460289955E0,3.507045182E0
3.268968498E0,1.317074299E-1,3.276828766E0,-2.325854540E0,4.020516503E0
3.278969019E0,7.458708286E-1,3.335576057E0,-2.188812256E0,4.058730099E0
3.288966675E0,7.851122618E-1,3.381783485E0,-2.049728870E0,4.031655894E0
3.298967456E0,8.568576574E-1,3.382940292E0,-1.913810492E0,3.980095560E0
3.308969540E0,9.477541447E-1,3.312920570E0,-1.280847907E0,3.676173552E0
3.318973185E0,1.556896329E0,2.664065361E0,-1.225161076E0,3.319968387E0
3.328969540E0,1.570481420E0,2.503200531E0,-1.197165489E0,3.188358511E0
3.339013706E0,1.553001285E0,1.243543625E0,-1.193604350E0,2.320108851E0
3.348965269E0,1.490721345E0,1.267000198E0,-1.200994492E0,2.295632244E0
3.358949487E0,1.368618608E0,1.290146828E0,-1.203522801E0,2.232949364E0
3.368957352E0,5.517783165E-1,2.242136002E-1,-1.229987264E0,1.366601521E0
3.378962769E0,3.840976954E-1,1.111354828E-1,-1.262555838E0,1.324359988E0
3.388961467E0,-8.271980286E-1,-5.990543365E-1,-1.339550138E0,1.684493172E0
3.398959904E0,-1.979553819E0,-6.303820610E-1,-1.419914722E0,2.516380870E0
3.408960685E0,-1.957097769E0,-6.587042809E-1,-1.490269423E0,2.546571412E0
3.418961987E0,-2.093657017E0,-7.053275108E-1,-1.580680609E0,2.716512063E0
3.428962769E0,-3.745685816E0,-6.962471008E-1,-1.604734302E0,4.134016743E0
3.438983081E0,-3.816725016E0,-6.679506302E-1,-1.606264472E0,4.194476540E0
3.448962508E0,-3.835912228E0,-6.237192154E-1,-1.594853044E0,4.200809982E0
3.458960685E0,-3.781487226E0,-5.768046379E-1,-1.552058458E0,4.128103038E0
3.468959383E0,-3.716320276E0,-5.354924202E-1,-1.517954946E0,4.049935277E0
3.478957821E0,-3.627120018E0,-4.844198227E-1,-1.496831417E0,3.953627003E0
3.488961206E0,-3.496116877E0,-4.202604294E-1,-1.487593532E0,3.822615147E0
3.498959383E0,-3.281031847E0,-3.592214584E-1,-1.495526791E0,3.623646012E0
3.508992196E0,-1.454000115E0,-2.810049057E-1,-1.521920085E0,2.123516150E0
3.518961467E0,-1.507740974E0,1.243610382E0,-1.564912677E0,2.503757439E0
3.528972717E0,-1.363431931E0,1.252372742E0,-2.169370174E0,2.851938125E0
3.538965894E0,-1.221250296E0,1.262294769E0,-2.181905031E0,2.800990884E0
3.548963550E0,-1.081675172E0,1.273518562E0,-2.203793049E0,2.765605631E0
3.558962248E0,-9.476427436E-1,1.286350250E0,-2.228892326E0,2.742386686E0
3.568960685E0,-1.071553230E0,1.206553459E0,-2.263043880E0,2.779454115E0
3.578960946E0,-9.911390543E-1,1.222634315E0,-2.318119526E0,2.801940298E0
3.588962508E0,8.707159758E-2,1.239752769E0,-2.371233463E0,2.677184441E0
3.598962769E0,1.495361924E-1,1.283080101E0,-2.967549801E0,3.236511616E0
3.608958862E0,1.671283245E-1,1.207139969E0,-2.980407953E0,3.219930178E0
3.618961467E0,-8.658720851E-1,1.231681824E0,-3.010249138E0,3.365765062E0
3.628958602E0,-7.975259423E-1,1.256731987E0,-3.049513578E0,3.393369414E0
3.638986987E0,-7.284651399E-1,1.282057762E0,-3.082374334E0,3.416923339E0
3.648958342E0,-6.607029438E-1,1.307917595E0,-3.099581718E0,3.428495828E0
3.658959123E0,-7.948794961E-1,1.239646912E0,-3.071651936E0,3.406406243E0
3.668958342E0,-7.304320931E-1,1.271553993E0,-3.010958672E0,3.349067441E0
3.678959644E0,-6.658460498E-1,1.303640366E0,-2.896887779E0,3.245733811E0
3.689080842E0,-6.021389365E-1,1.336073875E0,-2.731144190E0,3.099485971E0
3.698960269E0,-5.393519402E-1,1.368960381E0,-1.845233917E0,2.360051111E0
3.708973498E0,-6.771925092E-1,1.301678658E0,-1.634439707E0,2.196440342E0
3.718957404E0,-6.147925258E-1,2.384757996E0,-4.412298203E-1,2.501944104E0
3.728959123E0,1.059770226E0,3.180678368E0,-2.342300415E-1,3.360757582E0
3.738980998E0,1.187576532E0,3.932890892E0,7.201218605E-1,4.170916480E0
3.748957821E0,1.895687580E0,4.079165459E0,8.105678558E-1,4.570584480E0
3.758960165E0,1.957184315E0,4.763170242E0,8.539879322E-1,5.219928791E0
3.768960946E0,1.992029905E0,4.692040443E0,8.261599541E-1,5.163910043E0
3.778960165E0,1.919113874E0,3.180150032E0,7.099864483E-1,3.781591338E0
3.788958862E0,1.803207874E0,1.321401596E0,5.468978882E-1,2.301468687E0
3.798960685E0,1.626933336E0,1.218432426E0,3.980174065E-1,2.071209191E0
3.808972665E0,7.062280774E-1,1.217365265E0,2.964062691E-1,1.438260394E0
3.818947717E0,5.670528412E-1,1.218031883E0,2.657732964E-1,1.369593384E0
3.828960425E0,4.168227315E-1,-4.811964035E-1,3.022313118E-1,7.047233032E-1
3.838987248E0,-7.859688401E-1,-4.859046936E-1,9.858012199E-1,1.351167804E0
3.848958862E0,-9.901863933E-1,-4.414463043E-1,1.037344217E0,1.500475577E0
3.858960425E0,-9.979184270E-1,-3.530454636E-1,2.407931089E0,2.630325915E0
3.868996310E0,-1.000430584E0,1.169178963E0,2.405601501E0,2.855653933E0
3.878957040E0,-9.729124904E-1,1.178544044E0,2.405518055E0,2.849919629E0
3.889065998E0,-9.424372315E-1,1.188079834E0,2.406777620E0,2.844696845E0
3.898957612E0,-1.108542562E0,1.092833519E0,2.190268278E0,2.687085194E0
3.908963810E0,-1.036458135E0,1.093351364E0,2.173431873E0,2.644516738E0
3.918962769E0,-9.661754370E-1,1.084214211E0,2.114685059E0,2.565328113E0
3.928947508E0,-8.954277635E-1,1.076573372E0,2.057404757E0,2.488717629E0
3.938981258E0,-8.256011009E-1,1.070758820E0,2.002688408E0,2.416382107E0
3.948959644E0,-9.550526142E-1,9.668884277E-1,1.751454830E0,2.216888078E0
3.958962769E0,-8.457558751E-1,9.846391678E-1,1.742855072E0,2.173099421E0
3.968959904E0,6.250567436E-1,9.836683273E-1,1.695466638E0,2.057402836E0
3.978960685E0,7.718402147E-1,9.841690063E-1,1.650770426E0,2.071079175E0
3.988958342E0,1.664079428E0,8.862638474E-1,1.409192085E0,2.353815261E0
3.998958081E0,1.798937798E0,8.897256851E-1,1.370176792E0,2.430056262E0
4.008959644E0,2.515778780E0,8.943462372E-1,1.333716393E0,2.984593352E0
4.018960425E0,2.587599754E0,9.001722336E-1,1.299786687E0,3.032396407E0
4.028958081E0,2.598057270E0,9.108695984E-1,1.267614126E0,3.030912499E0
4.039006258E0,2.580002308E0,8.228502274E-1,1.036820531E0,2.899739854E0
4.048960321E0,2.475836992E0,8.387231827E-1,1.009550571E0,2.802216577E0
4.058948602E0,2.325788498E0,8.559331894E-1,9.845380783E-1,2.666688769E0
4.068946206E0,1.616333246E0,8.742876053E-1,9.617865682E-1,2.074113156E0
4.078957352E0,1.443352103E0,8.932733536E-1,9.397709370E-1,1.940198957E0
4.088963550E0,6.473666430E-1,8.132190704E-1,7.205035090E-1,1.264726901E0
4.098959383E0,4.983339310E-1,8.339128494E-1,7.049468160E-1,1.200290532E0
4.108958081E0,3.336971998E-1,8.551292419E-1,6.914759874E-1,1.149234042E0
4.118959123E0,-1.261002421E0,8.767528534E-1,6.799631119E-1,1.679634635E0
4.128961987E0,-1.428140879E0,8.188247681E-1,5.092899203E-1,1.723205325E0
4.138988550E0,-1.429481506E0,8.406047821E-1,5.006117821E-1,1.732237262E0
4.148960165E0,-1.403469443E0,8.586635590E-1,4.958274364E-1,1.718392980E0
4.158958602E0,-1.373579025E0,8.763818741E-1,4.927438200E-1,1.702222371E0
4.168960946E0,-1.339334965E0,8.936424255E-1,4.913083315E-1,1.683389084E0
4.178962248E0,-1.451780438E0,8.030643463E-1,2.915145755E-1,1.684505724E0
4.188961727E0,-1.366050124E0,8.132219315E-1,2.946025133E-1,1.616852959E0
4.198960425E0,-1.281638384E0,8.239393234E-1,2.992981374E-1,1.552756366E0
4.208958342E0,-1.198982358E0,8.352260590E-1,3.052524328E-1,1.492762644E0
4.218961519E0,-1.118003607E0,8.470335007E-1,3.124115467E-1,1.437010366E0
4.228979227E0,-1.238064051E0,7.595205307E-1,1.197194010E-1,1.457397257E0
4.238995112E0,-1.158759832E0,7.723684311E-1,1.298576295E-1,1.398620873E0
4.248945842E0,-1.081315517E0,7.856636047E-1,1.411550045E-1,1.344036935E0
4.258956258E0,-1.005618811E0,7.993564606E-1,1.535565257E-1,1.293761783E0
4.268961987E0,-9.331348538E-1,8.135700226E-1,1.655374169E-1,1.249015402E0
4.278960165E0,-1.061376095E0,7.283134460E-1,-2.098778635E-2,1.287400551E0
4.288959123E0,-9.896842837E-1,7.431993484E-1,-4.966456443E-3,1.237677227E0
4.298959383E0,-9.191442132E-1,7.583160400E-1,1.188825443E-2,1.191641990E0
4.308961206E0,-8.101099133E-1,7.936201096E-1,6.952475011E-2,1.136197448E0
4.318959383E0,-9.434937835E-1,7.095432281E-1,-1.129598990E-1,1.185914015E0
4.328959644E0,-8.786877990E-1,7.257003784E-1,-9.439960122E-2,1.143522878E0
4.339000269E0,-8.134805560E-1,7.418622971E-1,-7.352755964E-2,1.103411340E0
4.348970842E0,-7.492914796E-1,7.581548691E-1,-5.196848512E-2,1.067210031E0
4.358969800E0,-6.869292855E-1,7.746353149E-1,-2.949686348E-2,1.035761449E0
4.368970842E0,-8.264160156E-1,6.916007996E-1,-2.074049711E-1,1.097402350E0
4.378970060E0,-7.652016282E-1,7.084999084E-1,-1.831697524E-1,1.058799703E0
4.388969800E0,9.176044464E-1,7.255039215E-1,-1.582467109E-1,1.180421908E0
4.399087717E0,9.838543534E-1,7.425918579E-1,-1.326099038E-1,1.239757010E0
4.408960998E0,1.055813909E0,7.598524094E-1,-1.063496023E-1,1.305154754E0
4.418985321E0,1.119610786E0,6.773853302E-1,-2.790790200E-1,1.338007585E0
4.428957560E0,1.150268078E0,6.950407028E-1,-2.513318360E-1,1.367247571E0
4.438982352E0,1.158177137E0,7.127017975E-1,-2.231206596E-1,1.378078721E0
4.448969800E0,1.084377766E0,7.345685959E-1,-1.947877109E-1,1.324163288E0
4.458969540E0,9.695469141E-1,7.566509247E-1,-1.658879071E-1,1.240991796E0
4.468971362E0,8.296503425E-1,6.791057587E-1,-3.356108069E-1,1.123449570E0
4.478973967E0,-8.790875673E-1,7.015848160E-1,-3.048585653E-1,1.165313241E0
4.488970321E0,-8.390206695E-1,7.439870834E-1,-2.338400781E-1,1.145492753E0
4.498969800E0,-8.380346894E-1,7.664136887E-1,-2.021786720E-1,1.153502622E0
4.508969800E0,-1.034818769E0,6.890258789E-1,-3.697351217E-1,1.297039169E0
4.518968498E0,-1.031026840E0,7.116575241E-1,-3.365844190E-1,1.297213108E0
4.528971362E0,-1.023664713E0,7.339792252E-1,-3.032055497E-1,1.295588111E0
4.539003133E0,-9.596059918E-1,7.498817444E-1,-2.684912980E-1,1.247098179E0
4.548969800E0,-8.954697251E-1,7.657661438E-1,-2.334202677E-1,1.201144803E0
4.558974227E0,-1.032019496E0,6.820697784E-1,-3.990386128E-1,1.299813539E0
4.568979696E0,-9.693270922E-1,6.983919144E-1,-3.630596399E-1,1.248662717E0
4.578983290E0,-9.063462615E-1,7.146692276E-1,-3.267888725E-1,1.199586019E0
4.588974696E0,-8.442321420E-1,7.310228348E-1,-2.904263139E-1,1.153893296E0
4.598960060E0,-7.838482857E-1,1.989945412E0,-2.535020709E-1,2.153732615E0
4.608958133E0,-9.247004986E-1,2.075444221E0,-4.154616594E-1,2.309793956E0
4.618968498E0,-8.660515547E-1,2.724309921E0,-3.774820566E-1,2.883470573E0
4.628960946E0,-8.085343242E-1,2.812596321E0,-3.392116725E-1,2.946097483E0
4.638990373E0,-7.514366508E-1,2.918031693E0,-3.010373712E-1,3.028232075E0
4.648961467E0,-6.930035949E-1,3.569803238E0,-2.632555962E-1,3.645963885E0
4.658961727E0,-7.951089144E-1,3.567559242E0,-3.849110305E-1,3.675300482E0
4.668968237E0,3.598631024E-1,3.534236908E0,-1.563333154E0,3.881281042E0
4.678959383E0,4.328120947E-1,3.479445457E0,-1.672769666E0,3.884845603E0
4.688963290E0,5.125316978E-1,3.381507874E0,-2.446940899E0,4.205330427E0
4.698964852E0,6.021149158E-1,2.615554810E0,-2.545929909E0,3.699382169E0
4.708959383E0,6.991713047E-1,2.493526459E0,-3.197318077E0,4.114530058E0
4.718964331E0,7.943928242E-1,1.697835922E0,-3.236807346E0,3.740404868E0
4.728959383E0,8.524839282E-1,1.605631828E0,-3.236246586E0,3.711882862E0
4.738981779E0,1.487942696E0,6.398525238E-1,-3.150787115E0,3.542717059E0
4.748978394E0,1.503076673E0,5.595407486E-1,-3.019561768E0,3.419075694E0
4.758957404E0,1.560250759E0,5.791816711E-1,-2.306573153E0,2.844312491E0
4.768961519E0,2.179246902E0,5.996360779E-1,-2.140891552E0,3.113213312E0
4.778956415E0,2.216097355E0,6.208124161E-1,-1.985518694E0,3.039536153E0
4.788967769E0,2.284804583E0,6.427946091E-1,-1.852961659E0,3.011143271E0
4.798960946E0,2.960448265E0,5.677566528E-1,-1.750901341E0,3.486008757E0
4.808963550E0,2.942585945E0,5.936279297E-1,-1.659104824E0,3.429844746E0
4.818950321E0,2.888512135E0,2.262222290E0,-1.573104382E0,3.991968116E0
4.828960946E0,2.761543274E0,2.334773064E0,-1.513663650E0,3.920263276E0
4.838983342E0,1.749499202E0,2.454623222E0,-1.495391488E0,3.364835557E0
4.848957040E0,1.512097478E0,2.486302376E0,-1.478419304E0,3.264025417E0
4.858958602E0,2.145903111E-1,2.500618935E0,-1.463972211E0,2.905573729E0
4.868967196E0,-1.470219612E0,2.473885536E0,-1.442227244E0,3.218955542E0
4.878959123E0,-1.490741611E0,2.417007446E0,-1.444864988E0,3.186199990E0
4.888959644E0,-1.707265496E0,2.333763123E0,-1.478734970E0,3.247747358E0
4.898958602E0,-1.720694900E0,6.536397934E-1,-1.525154591E0,2.390425159E0
4.908958081E0,-3.434029102E0,6.830081940E-1,-2.100759506E0,4.083166243E0
4.918965894E0,-3.547360897E0,7.110767365E-1,-2.111472130E0,4.188999166E0
4.929924592E0,-3.608367205E0,7.311744690E-1,-2.116314650E0,4.246612495E0
4.939003967E0,-3.593680382E0,6.417360306E-1,-2.101910353E0,4.212409162E0
4.948970685E0,-3.559325457E0,6.528682709E-1,-2.085356474E0,4.176571119E0
4.958956050E0,-3.492263079E0,-1.391153336E0,-2.036208868E0,4.275202401E0
4.968964383E0,-3.394301414E0,-1.543511391E0,-1.962312698E0,4.213594740E0
4.978959123E0,-3.204727650E0,-2.444481850E0,-1.848949790E0,4.434454436E0
4.988960425E0,-2.994473934E0,-2.546303749E0,-1.710798979E0,4.286883492E0
4.998961987E0,-1.244620919E0,-2.643725395E0,-1.041711211E0,3.102181079E0
5.008959644E0,-1.111864805E0,-2.717776299E0,-9.236704111E-1,3.078265483E0
5.018965112E0,-9.467648864E-1,-2.771211624E0,-7.328065634E-1,3.018771783E0
5.028959383E0,-1.023105383E0,-2.760954380E0,-6.546562910E-1,3.016320370E0
5.038982821E0,2.499837875E-1,-2.740038872E0,-6.175634861E-1,2.819874035E0
5.048957300E0,1.130071163E0,-2.732555389E0,-6.546294689E-1,3.028606863E0
5.058963550E0,1.249700189E0,-2.739724636E0,-1.294113636E0,3.277586268E0
5.068969540E0,1.364010692E0,-2.769058704E0,-1.957730532E0,3.655259240E0
5.078957821E0,1.443874121E0,-2.807868958E0,-2.839801788E0,4.246572118E0
5.088959644E0,1.474345326E0,-2.830643654E0,-3.791705132E0,4.956134123E0
5.098956779E0,1.388876200E0,-2.801613808E0,-4.777172089E0,5.709587567E0
5.108991310E0,1.169762611E0,-2.668466568E0,-5.621815681E0,6.331972043E0
5.118961415E0,-8.811144829E-1,-1.477508068E0,-6.297404289E0,6.528146261E0
5.129060060E0,-1.100445628E0,-3.272895813E-1,-6.376342773E0,6.478876925E0
5.138989904E0,-2.152966022E0,7.841997147E-1,-8.156019211E0,8.471769665E0
5.148958342E0,-3.000819683E0,2.193309784E0,-8.007045746E0,8.827701182E0
5.158961467E0,-3.213130713E0,3.237711906E0,-7.822917938E0,9.055663004E0
5.168967717E0,-4.289320946E0,3.438981056E0,-6.590374470E0,8.582418105E0
5.178960685E0,-4.422628880E0,4.169381142E0,-5.509002686E0,8.203200345E0
5.188964592E0,-4.460115433E0,4.130932808E0,-4.656688690E0,7.657805501E0
5.198960946E0,-4.461870670E0,2.043432236E0,-3.000354767E0,5.752046063E0
5.208959123E0,-4.294619560E0,1.058780670E0,-1.981791496E0,4.846882628E0
5.218965894E0,-4.080001354E0,1.005580902E0,-9.633867741E-1,4.311115642E0
5.228961206E0,-3.139182806E0,7.229804993E-3,1.140260696E-2,3.139211840E0
5.238986206E0,-2.234437943E0,2.014160156E-2,8.602318764E-1,2.394392926E0
5.248959123E0,-3.604823649E-1,1.140557289E0,1.070701122E0,1.605372031E0
5.258959904E0,-1.977636367E-1,1.170055389E0,1.198862553E0,1.686834755E0
5.268964852E0,1.768475771E0,3.210297585E0,1.180940390E0,3.850732052E0
5.278961727E0,2.924079418E0,4.418600082E0,1.064069986E0,5.404304957E0
5.288959019E0,3.150083780E0,5.238733292E0,8.988974094E-1,6.178622086E0
5.298952196E0,4.026411057E0,5.275307655E0,1.186892986E-1,6.637389849E0
5.308977873E0,4.015656948E0,5.225684166E0,3.293943405E-2,6.590475001E0
5.318966467E0,3.958368301E0,5.042450905E0,-4.667639732E-2,6.410707404E0
5.328961467E0,3.754996061E0,3.446908951E0,-1.128909588E-1,5.098423394E0
5.338986987E0,2.646706581E0,1.930011749E0,-8.781814575E-2,3.276844993E0
5.348962769E0,1.816622615E0,9.267644882E-1,9.330604076E-1,2.242679617E0
5.358961727E0,1.598110914E0,-8.605365753E-1,1.767592907E0,2.533548179E0
5.368968237E0,1.330416918E0,-1.791569710E0,2.719751835E0,3.518064986E0
5.378958342E0,1.183032990E0,-1.873920441E0,2.694833755E0,3.489021903E0
5.388960165E0,1.037514329E0,-1.881268501E0,2.672768831E0,3.429183632E0
5.398960685E0,8.970896006E-1,-1.801942348E0,2.658473492E0,3.334553536E0
5.408959123E0,7.703389525E-1,-1.039829254E0,2.427891493E0,2.751240462E0
5.418965112E0,6.295575500E-1,-2.915487289E-1,2.384425879E0,2.483310319E0
5.428959644E0,-9.480938911E-1,8.261489868E-1,2.342580080E0,2.658775208E0
5.438982040E0,-9.528204203E-1,8.297090530E-1,2.300993443E0,2.625043750E0
5.448959644E0,-9.545729756E-1,8.342313766E-1,2.261014462E0,2.592168581E0
5.458977248E0,-1.152710080E0,2.125738144E0,2.021705389E0,3.151951120E0
5.468964748E0,-1.147871852E0,2.138533592E0,1.984018564E0,3.134846946E0
5.478967769E0,-1.137554765E0,2.112589836E0,1.942769766E0,3.087299957E0
5.488947560E0,-1.119303703E0,2.037082672E0,1.894457698E0,2.998585760E0
5.498958133E0,-1.046613216E0,1.928999901E0,1.849031925E0,2.869731504E0
5.508962248E0,-1.174578547E0,6.364097595E-1,3.403657675E-1,1.378586596E0
5.518964071E0,-1.102197528E0,6.379280090E-1,2.087191343E-1,1.290486425E0
5.528958081E0,-1.031332970E0,6.410713196E-1,5.956745148E-2,1.215799495E0
5.538986467E0,7.643263340E-1,6.453580856E-1,-9.642183781E-2,1.004977101E0
5.548959904E0,9.387177825E-1,5.708560944E-1,-7.793526649E-1,1.347018312E0
5.558960165E0,9.864110351E-1,5.775489807E-1,-7.946435213E-1,1.392130698E0
5.568970581E0,9.892157912E-1,5.920791626E-1,-7.265043259E-1,1.362686373E0
5.578980737E0,9.246641994E-1,6.071510315E-1,-6.310926676E-1,1.273543957E0
5.588972404E0,2.422651052E-1,6.290140152E-1,2.700555325E-2,6.745964071E-1
5.598967977E0,8.504641056E-2,5.511293411E-1,9.098887444E-2,5.650269178E-1
5.608972404E0,-1.079331517E0,5.732316971E-1,1.806437969E-1,1.235387908E0
5.618968758E0,-1.074166179E0,5.952997208E-1,1.314568996E0,1.798973703E0
5.628969800E0,-1.067495942E0,6.173038483E-1,1.346140027E0,1.825569664E0
5.639165269E0,-1.059365869E0,6.392297745E-1,1.377801538E0,1.851812038E0
5.648963081E0,-1.249356985E0,5.603828430E-1,1.203364253E0,1.822911773E0
5.658968290E0,-1.217099428E0,5.785074234E-1,1.227293491E0,1.822704356E0
5.668964383E0,-1.180339217E0,5.956487656E-1,1.248370767E0,1.818358515E0
5.678966935E0,-1.106337070E0,6.028585434E-1,1.229987383E0,1.760763783E0
5.688959383E0,-1.033769965E0,6.107521057E-1,1.212216854E0,1.706214575E0
5.698971623E0,-1.160616517E0,5.195579529E-1,9.971608520E-1,1.615952020E0
5.708971883E0,-1.088782310E0,5.291223526E-1,9.841353297E-1,1.560108884E0
5.718972144E0,-1.016759157E0,5.392274857E-1,9.730873108E-1,1.507137810E0
5.728970060E0,-9.060682058E-1,5.699214935E-1,1.003719926E0,1.467386722E0
5.738966935E0,-1.037824392E0,4.815120697E-1,7.952619195E-1,1.393332287E0
5.748969019E0,-9.706720114E-1,4.936447144E-1,7.885337472E-1,1.344497947E0
5.758969279E0,-9.032145739E-1,5.062866211E-1,7.851766348E-1,1.299471068E0
5.768973185E0,-8.369432092E-1,5.193939209E-1,7.834540009E-1,1.258588158E0
5.778966415E0,-7.718195915E-1,5.329275131E-1,7.833075523E-1,1.222001611E0
5.788969800E0,-9.087445140E-1,4.471120834E-1,5.835406780E-1,1.168865061E0
5.798967717E0,-8.451590538E-1,4.616270065E-1,5.868510008E-1,1.127735526E0
5.808959383E0,-7.826167941E-1,4.764661789E-1,5.915619135E-1,1.090621182E0
5.819030529E0,-7.211812735E-1,4.916105270E-1,5.977168083E-1,1.057850993E0
5.828977717E0,-6.607416868E-1,5.070247650E-1,6.051880121E-1,1.029517469E0
5.838972404E0,-8.006520867E-1,4.229164124E-1,4.143122435E-1,9.957693965E-1
5.848958394E0,-7.414190173E-1,4.390172958E-1,4.245746136E-1,9.605737597E-1
5.858962248E0,-6.831346750E-1,4.553232193E-1,4.360460043E-1,9.295850344E-1
5.868958862E0,-6.260641217E-1,4.718446732E-1,4.489696920E-1,9.034198716E-1
5.878959644E0,-5.697660446E-1,4.885168076E-1,4.629068971E-1,8.817963553E-1
5.888963550E0,-7.136347890E-1,4.055633545E-1,2.782319784E-1,8.667002252E-1
5.898962769E0,-6.581659317E-1,4.227228165E-1,2.944212556E-1,8.357995268E-1
5.908959644E0,-5.635258555E-1,4.599409103E-1,3.514228165E-1,8.078397284E-1
5.918957560E0,-5.095258355E-1,1.492285728E0,3.692368865E-1,1.619527447E0
5.928941154E0,-6.556139588E-1,2.205751419E0,1.882941574E-1,2.308814344E0
5.938959904E0,-6.025228500E-1,2.317629814E0,2.082885206E-1,2.403710850E0
5.948960425E0,-5.500787497E-1,3.158333778E0,2.290591598E-1,3.214051491E0
5.958963290E0,-4.981560409E-1,3.289166451E0,2.504651546E-1,3.336091751E0
5.968959383E0,-4.467101693E-1,4.174562454E0,2.724354267E-1,4.207225062E0
5.978958862E0,-5.956767797E-1,4.227514267E0,9.217748046E-2,4.270269827E0
5.988975529E0,-5.429370403E-1,4.242911339E0,1.131393537E-1,4.279004297E0
5.998955946E0,-4.907719791E-1,4.210951805E0,1.348026842E-1,4.241596870E0
6.008949279E0,-4.385013282E-1,4.113157272E0,-1.561973691E0,4.421550404E0
6.018949227E0,-3.866706491E-1,3.402591705E0,-1.679364443E0,3.814106637E0
6.028960737E0,-5.349935293E-1,3.253500938E0,-2.445137262E0,4.104897400E0
6.038962248E0,-4.836374223E-1,2.094995499E0,-2.528590202E0,3.319138398E0
6.048961467E0,6.396930218E-1,1.332674980E0,-2.616586924E0,3.005288155E0
6.058959383E0,7.531201839E-1,3.361082077E-1,-2.688828707E0,2.812464854E0
6.068962769E0,1.502748966E0,3.547754288E-1,-2.716949701E0,3.125049718E0
6.078961727E0,1.712581635E0,2.942533493E-1,-2.538388729E0,3.076188913E0
6.088960425E0,2.535239697E0,3.144521713E-1,-1.765342474E0,3.105278496E0
6.098963550E0,2.555967808E0,3.367366791E-1,-1.582837343E0,3.025183809E0
6.108958602E0,2.571487665E0,3.597202301E-1,-8.534176350E-1,2.733179305E0
6.118961467E0,2.530108690E0,2.849750519E-1,-7.322081327E-1,2.649299816E0
6.128958342E0,2.460318565E0,1.419987679E0,-6.300901175E-1,2.909732979E0
6.138959123E0,2.350059748E0,2.121134758E0,-5.544998050E-1,3.213948275E0
6.148961467E0,2.174693108E0,2.163878441E0,-5.180138946E-1,3.111269582E0
6.158958862E0,1.440438271E0,2.167820930E0,-5.158849359E-1,2.653384116E0
6.168956050E0,1.231990099E0,2.156044960E0,-5.538464189E-1,2.544223915E0
6.178974748E0,2.027710676E-1,2.131841660E0,-6.207775474E-1,2.229625469E0
6.188961779E0,-2.599966526E-2,2.101070404E0,-7.110752463E-1,2.218287815E0
6.198957144E0,-1.141342282E0,2.064604759E0,-1.310830951E0,2.698802104E0
6.208956675E0,-1.162744761E0,1.994036674E0,-1.319205403E0,2.658657656E0
6.218964071E0,-1.380473733E0,1.908379555E0,-1.326006174E0,2.702945176E0
6.228967717E0,-1.372722626E0,1.821006775E0,-1.336375952E0,2.643167374E0
6.238964852E0,-1.358889103E0,3.633947372E-1,-1.359742045E0,1.956408383E0
6.248962248E0,-2.402512074E0,3.821172714E-1,-1.391287088E0,2.802455644E0
6.258963290E0,-2.411423206E0,3.171854019E-1,-1.419532776E0,2.816139514E0
6.268959383E0,-2.354640961E0,3.325605392E-1,-1.424852371E0,2.772207576E0
6.278959904E0,-2.284824848E0,-7.434883118E-1,-1.426211834E0,2.794150972E0
6.288958602E0,-2.193520546E0,-8.797168732E-1,-1.439297080E0,2.767130327E0
6.298962769E0,-1.028366685E0,-1.847587109E0,-1.446791887E0,2.562093466E0
6.308959383E0,-1.147736311E0,-1.968760967E0,-1.429920912E0,2.690351687E0
6.318960425E0,-1.068595171E0,-2.762426853E0,-1.391148090E0,3.272337203E0
6.328960685E0,-9.905244112E-1,-2.858328342E0,-1.338716269E0,3.308072062E0
6.338963810E0,-9.133543968E-1,-3.479248524E0,-1.259714127E0,3.811333917E0
6.349049383E0,-8.398944736E-1,-3.539550781E0,-1.167667747E0,3.820640055E0
6.358955581E0,-9.667003751E-1,-3.610396862E0,-1.093487978E0,3.894251029E0
6.369119487E0,-8.984735608E-1,-3.674746037E0,-1.034732223E0,3.921948998E0
6.378955790E0,7.720687985E-1,-3.734210491E0,-1.013252020E0,3.945516174E0
6.388963081E0,8.311315179E-1,-3.773865223E0,-1.034740925E0,4.000440864E0
6.398961206E0,8.833740950E-1,-3.801539898E0,-1.106143355E0,4.056551307E0
6.408960685E0,9.131581783E-1,-3.813278198E0,-1.915113688E0,4.363783784E0
6.418961467E0,9.162874222E-1,-3.791952133E0,-1.980564356E0,4.375056433E0
6.428963029E0,8.266251087E-1,-3.712283134E0,-2.784241199E0,4.713422769E0
6.438962508E0,6.008947492E-1,-2.494119167E0,-3.826073170E0,4.606575824E0
6.448961206E0,-9.792304635E-1,-1.633583069E0,-4.475943089E0,4.864314183E0
6.458960685E0,-9.787794352E-1,-6.481304169E-1,-5.221223354E0,5.351565709E0
6.468962248E0,-9.778423309E-1,5.548353195E-1,-5.960358620E0,6.065467231E0
6.478962508E0,-9.766364694E-1,5.930700302E-1,-6.571685791E0,6.670277730E0
6.488958862E0,-2.537680626E0,2.573920250E0,-6.556901455E0,7.487178714E0
6.498959644E0,-2.702754259E0,3.457588196E0,-6.524619102E0,7.863234141E0
6.508958081E0,-3.584256887E0,3.634632111E0,-6.433777809E0,8.212852422E0
6.518958342E0,-3.609827518E0,4.358339310E0,-6.282791138E0,8.455734192E0
6.528976154E0,-3.620764494E0,4.371408463E0,-6.075028419E0,8.314151656E0
6.538975737E0,-3.594143152E0,4.317817688E0,-5.791056633E0,8.068317762E0
6.548982352E0,-3.514182091E0,3.438400269E0,-4.891238213E0,6.935148407E0
6.558957092E0,-3.335160255E0,2.628001213E0,-4.621226311E0,6.275780184E0
6.568957092E0,-3.103032112E0,8.198060989E-1,-3.685760736E0,4.887302174E0
6.578961987E0,-2.060770035E0,8.747396469E-1,-3.436374187E0,4.101293716E0
6.588961987E0,-1.821388125E0,9.293069839E-1,-2.503992319E0,3.232807403E0
6.598960946E0,-4.453248382E-1,8.834390640E-1,-2.254785061E0,2.462282368E0
6.608962508E0,-3.266079426E-1,9.351978302E-1,-1.085753441E0,1.469737481E0
6.618958081E0,1.905349016E0,2.558761597E0,-6.242585182E-2,3.190848284E0
6.628960946E0,2.745192051E0,3.673667908E0,2.525329590E-2,4.586126145E0
6.638960946E0,2.940419912E0,4.675365448E0,7.052898407E-2,5.523593547E0
6.648961206E0,3.671835899E0,4.808053970E0,1.320760250E-1,6.051215244E0
6.658960165E0,3.674905777E0,4.855304718E0,2.135703564E-1,6.092990126E0
6.668960425E0,3.580160379E0,4.780966759E0,9.774491787E-1,6.052321735E0
6.678958342E0,3.395792723E0,3.963445663E0,1.061824083E0,5.326141204E0
6.688959904E0,2.501511574E0,2.899238586E0,2.065897465E0,4.350985735E0
6.698961727E0,2.291899681E0,8.588123322E-1,3.554565430E0,4.315703670E0
6.708958029E0,1.409304857E0,8.612709045E-1,3.535977125E0,3.902699320E0
6.718953394E0,1.257080078E0,-1.275527000E0,4.999889374E0,5.310942779E0
6.728947352E0,1.152137518E0,-2.318038464E0,5.700534344E0,6.260735978E0
6.738959540E0,1.074392319E0,-3.021326065E0,5.727619171E0,6.564171800E0
6.748960946E0,1.010069370E0,-3.124961376E0,5.697543621E0,6.576292804E0
6.758960946E0,9.376202822E-1,-3.159845352E0,5.607653618E0,6.504577891E0
6.768959904E0,8.325883746E-1,-3.056466579E0,5.500929832E0,6.347867388E0
6.778959383E0,7.394224405E-1,-1.861032486E0,5.275210381E0,5.642520006E0
6.788960685E0,5.180441141E-1,6.315822601E-1,4.131081581E0,4.211068853E0
6.798958862E0,-1.080752611E0,6.103668213E-1,3.798728943E0,3.996362777E0
6.808971623E0,-1.075024128E0,2.297948837E0,2.246497869E0,3.388657317E0
6.818951727E0,-1.068740964E0,2.389584541E0,2.121355057E0,3.369342489E0
6.828969540E0,-1.259792686E0,2.424035072E0,6.009069681E-1,2.797161566E0
6.838970842E0,-1.248231411E0,2.364679337E0,-3.459374905E-1,2.696194126E0
6.848971102E0,-1.227365375E0,2.216293335E0,-6.344881058E-1,2.611696205E0
6.858969800E0,-1.201221704E0,4.331369400E-1,-8.516844511E-1,1.534896608E0
6.868970321E0,-1.120226264E0,4.300727844E-1,-1.006543875E0,1.566205623E0
6.879005217E0,-1.238970399E0,3.358020782E-1,-1.064005613E0,1.667308799E0
6.888957925E0,-1.157643199E0,3.425283432E-1,-1.054413676E0,1.602888531E0
6.898969852E0,5.212857723E-1,3.561429977E-1,-9.437592030E-1,1.135455030E0
6.908943862E0,6.404693127E-1,3.700761795E-1,-2.692830563E-2,7.401908218E-1
6.918971362E0,7.572141886E-1,3.843126297E-1,8.405613899E-2,8.533082440E-1
6.928943446E0,8.472942710E-1,2.990617752E-1,1.102758527E0,1.422470350E0
6.938958394E0,8.928827047E-1,3.142004013E-1,1.132731080E0,1.476157551E0
6.948969019E0,9.006268382E-1,3.295965195E-1,1.163059354E0,1.507471269E0
6.958969279E0,8.106437922E-1,3.506708145E-1,1.190537095E0,1.482393994E0
6.968967977E0,1.639360189E-2,2.914314270E-1,-1.261656284E-1,3.179918122E-1
6.978970581E0,-1.055075407E0,3.122072220E-1,-1.919450760E-1,1.116915564E0
6.988970060E0,-1.040948033E0,3.330116272E-1,-2.502652407E-1,1.121205709E0
6.998969279E0,-1.025807381E0,3.537931442E-1,-2.923609018E-1,1.123799479E0
7.008970581E0,-1.009749770E0,3.745555878E-1,-2.957553864E-1,1.116851707E0
7.018966154E0,-1.192172885E0,2.955083847E-1,-2.703434229E-1,1.257651366E0
7.028969800E0,-1.173102498E0,3.163566589E-1,-2.244572639E-1,1.235569533E0
7.038958602E0,-1.128349781E0,3.348588943E-1,-1.349067688E-1,1.184695549E0
7.048959383E0,-1.049301147E0,3.493824005E-1,1.101866245E0,1.561156681E0
7.058958550E0,-9.703422189E-1,3.640241623E-1,1.136191249E0,1.537858305E0
7.068980685E0,-1.092403889E0,2.791719437E-1,9.709102511E-1,1.487934792E0
7.078960269E0,-1.016060114E0,2.945899963E-1,1.005721927E0,1.459670516E0
7.088970842E0,-9.397923946E-1,3.101062775E-1,1.040581942E0,1.436031485E0
7.098964592E0,-8.651950359E-1,3.256177902E-1,1.073181152E0,1.416441732E0
7.108962248E0,-7.941166759E-1,3.370466232E-1,1.063490629E0,1.369391850E0
7.118962248E0,1.746385694E-1,2.493276596E-1,8.560881615E-1,9.085977394E-1
7.128959383E0,2.348670363E-1,2.620124817E-1,8.489736915E-1,9.190045670E-1
7.138962508E0,2.747871280E-1,2.750873566E-1,8.420896530E-1,9.275214300E-1
7.148961467E0,2.888424397E-1,3.087015152E-1,8.767564893E-1,9.733594002E-1
7.158957300E0,2.658356428E-1,2.228574753E-1,6.719435453E-1,7.562024672E-1
7.168962248E0,-8.044397831E-1,2.402000427E-1,6.683558822E-1,1.073088538E0
7.178959904E0,-7.766296864E-1,2.579059601E-1,6.680420041E-1,1.056385002E0
7.188960425E0,-7.483322024E-1,2.757997513E-1,6.692108512E-1,1.041109865E0
7.198961987E0,-7.195408344E-1,2.938594818E-1,6.717970967E-1,1.027328451E0
7.208960946E0,-8.898280859E-1,1.503377914E0,4.746667743E-1,1.810317023E0
7.218960425E0,-8.596909642E-1,1.570146561E0,4.804474413E-1,1.853445041E0
7.228961727E0,-8.293683529E-1,1.642683983E0,4.875358045E-1,1.903668483E0
7.239082612E0,-7.628852129E-1,1.731843948E0,4.962518513E-1,1.956410798E0
7.248959019E0,-6.958895922E-1,2.410356522E0,5.060184598E-1,2.559323264E0
7.258972873E0,-8.296970725E-1,2.473578453E0,3.174039125E-1,2.628256616E0
7.268966727E0,-7.598848939E-1,2.556743622E0,3.266154826E-1,2.687199411E0
7.278958342E0,-6.912559271E-1,3.221573830E0,3.369907439E-1,3.312089289E0
7.288961987E0,-6.239416003E-1,3.266315460E0,3.485216200E-1,3.343588959E0
7.298959904E0,-5.578078032E-1,3.333622932E0,-7.921322584E-1,3.471550794E0
7.308960685E0,-6.908886433E-1,3.420477867E0,-8.836802840E-1,3.599706488E0
7.318959644E0,-6.252409816E-1,3.495192528E0,-1.003087640E0,3.689645227E0
7.328960165E0,9.564120173E-1,3.463656425E0,-1.773736358E0,4.007216047E0
7.338959904E0,1.031838298E0,3.295617104E0,-1.906181335E0,3.944529078E0
7.348962248E0,1.143124342E0,2.050622940E0,-2.665072918E0,3.551675853E0
7.358965894E0,1.838037729E0,1.880256653E0,-2.692220211E0,3.763216369E0
7.368955217E0,1.925801754E0,1.146116257E-1,-2.706610203E0,3.323791060E0
7.378962248E0,2.055599689E0,1.340055466E-1,-2.708712578E0,3.403023861E0
7.388959383E0,2.840241432E0,1.567535400E-1,-2.635630846E0,3.877898016E0
7.398960685E0,2.891252279E0,8.008003235E-2,-2.516469479E0,3.833845483E0
7.408959383E0,2.963531733E0,1.598258972E0,-2.355770111E0,4.109331441E0
7.419047977E0,3.625436306E0,2.440857887E0,-1.490609646E0,4.617736756E0
7.428956779E0,3.600936413E0,3.293054581E0,-1.361097217E0,5.065919182E0
7.439115633E0,3.564505100E0,4.012409210E0,-1.242409229E0,5.508965871E0
7.448955529E0,3.469123602E0,4.128506660E0,-1.168104410E0,5.517594922E0
7.458959123E0,3.340236187E0,4.182068825E0,-1.127514958E0,5.469750216E0
7.468968237E0,3.132587910E0,4.137128830E0,-1.116653919E0,5.308093626E0
7.478962248E0,1.994791389E0,4.008249283E0,-1.154845238E0,4.623734694E0
7.488965894E0,1.064012408E0,2.912341118E0,-1.226943016E0,3.334552797E0
7.498965373E0,1.526916027E-2,2.108988762E0,-1.292339683E0,2.473501284E0
7.508961987E0,-1.418009639E0,1.510715485E-1,-1.387136698E0,1.989402465E0
7.518959904E0,-3.057893038E0,1.823024750E-1,-1.369666815E0,3.355582097E0
7.528958602E0,-3.258415222E0,2.132587433E-1,-1.342969418E0,3.530767042E0
7.538961727E0,-3.985555649E0,1.421413422E-1,-1.327506065E0,4.203228562E0
7.548960685E0,-3.984935284E0,1.664838791E-1,-1.308605671E0,4.197603471E0
7.558959123E0,-3.892857075E0,1.866912842E-1,-1.264024019E0,4.097187640E0
7.568959644E0,-3.177210331E0,2.004375458E-1,-1.228517890E0,3.412344781E0
7.578958862E0,-2.990731716E0,2.166309357E-1,-1.201194167E0,3.230212468E0
7.588959383E0,-1.417554617E0,-1.945051193E0,-1.172279477E0,2.677111206E0
7.598978342E0,-1.281262994E0,-2.683060169E0,-1.138335824E0,3.183748605E0
7.608962456E0,-1.147572875E0,-3.403159142E0,-1.085819483E0,3.751988752E0
7.619024019E0,-1.016705990E0,-3.559198856E0,-1.017065763E0,3.838751143E0
7.628957612E0,-8.886002302E-1,-4.523823738E0,-9.490280151E-1,4.706935920E0
7.638958654E0,-9.624375701E-1,-4.622369766E0,-8.968255520E-1,4.805921806E0
7.648959644E0,-8.894814849E-1,-4.712154388E0,-8.347483873E-1,4.867482015E0
7.658961467E0,-8.225697875E-1,-5.366260529E0,-7.526602745E-1,5.480864038E0
7.668961206E0,-7.594610453E-1,-5.394038200E0,-6.640505791E-1,5.487567071E0
7.678960946E0,-6.986635327E-1,-5.434854031E0,-5.835955143E-1,5.510567375E0
7.688962769E0,4.731390476E-1,-5.581810951E0,-5.981127024E-1,5.633667798E0
7.698960685E0,5.413773060E-1,-5.651162624E0,-6.772140265E-1,5.717284953E0
7.708957248E0,6.316716671E-1,-5.679467678E0,-1.644966245E0,5.946534802E0
7.718959383E0,6.991192102E-1,-5.666105747E0,-2.425576210E0,6.202978475E0
7.728958602E0,7.098073959E-1,-5.533805847E0,-3.334312201E0,6.499574720E0
7.738960425E0,5.777422786E-1,-4.211047649E0,-4.286769867E0,6.036812432E0
7.748959383E0,-7.953653336E-1,-2.494080544E0,-5.181471348E0,5.805229461E0
7.758958081E0,-7.907353044E-1,4.314422607E-1,-6.007137299E0,6.074298583E0
7.768959123E0,-1.952661276E0,1.842927933E0,-6.618467331E0,7.142365101E0
7.778973550E0,-2.138091087E0,3.728133202E0,-6.645194530E0,7.913849949E0
7.788975269E0,-3.150106907E0,5.115872383E0,-7.592974186E0,9.682385076E0
7.798958029E0,-3.244012356E0,6.023081779E0,-7.395279884E0,1.007428880E1
7.808956623E0,-3.276298046E0,6.123896599E0,-7.178646088E0,9.988453238E0
7.818953915E0,-3.155467510E0,6.070658684E0,-6.964936256E0,9.763206908E0
7.828958862E0,-2.405236483E0,4.814442635E0,-5.444112778E0,7.655219419E0
7.838962769E0,-2.137878180E0,3.433120728E0,-4.441274643E0,6.006809594E0
7.848964071E0,-6.605689526E-1,2.310005188E0,-3.443521738E0,4.198847136E0
7.858962508E0,4.269357920E-1,7.376766205E-1,-1.381029367E0,1.622862619E0
7.868968237E0,6.646244526E-1,6.950206757E-1,-2.574353218E-1,9.955161212E-1
7.878963290E0,1.803035975E0,7.508411407E-1,7.418944836E-1,2.089284224E0
7.888962508E0,1.984472990E0,2.710409164E0,9.761376381E-1,3.498184611E0
7.898962248E0,2.683365822E0,3.737121582E0,1.759364367E0,4.925636287E0
7.908959904E0,2.717014790E0,4.574119568E0,1.754336834E0,5.602002938E0
7.918960165E0,2.685680866E0,4.641990662E0,1.697553635E0,5.625179762E0
7.928935842E0,2.595829010E0,4.613199234E0,1.648744583E0,5.544212669E0
7.938959644E0,2.416352510E0,4.483206749E0,1.597967386E0,5.337733787E0
7.948971362E0,1.435890555E0,3.550128937E0,1.557472467E0,4.134116307E0
7.958955946E0,1.241715789E0,2.559482574E0,1.523162842E0,3.226892343E0
7.968947508E0,4.049540758E-1,5.735120773E-1,2.093403339E0,2.207994893E0
7.978947508E0,2.933829427E-1,5.656309128E-1,2.141275406E0,2.234070779E0
7.988978915E0,2.015513778E-1,-1.453045845E0,3.182944059E0,3.504725106E0
7.998961727E0,-8.144288659E-1,-2.509486198E0,3.136841059E0,4.098851935E0
8.008959123E0,-8.210113049E-1,-2.667667866E0,3.094397068E0,4.167229850E0
8.018962248E0,-1.012128592E0,-2.753491402E0,4.454030991E0,5.333339596E0
8.028964331E0,-1.000991821E0,-2.740228176E0,4.373643875E0,5.257337333E0
8.038970321E0,-9.271052480E-1,-1.170982361E0,2.770018816E0,3.147018918E0
8.048969279E0,-8.968715668E-1,4.978179932E-1,2.721936464E0,2.908803788E0
8.058972925E0,-1.033240795E0,3.926877975E-1,2.476753950E0,2.712213188E0
8.068969540E0,-9.703849554E-1,1.616019249E0,2.432928324E0,3.077711066E0
8.078969540E0,-9.067717791E-1,1.681702614E0,1.246159196E0,2.281068057E0
8.088971362E0,-8.436396122E-1,1.697714806E0,1.090628266E0,2.187106164E0
8.098968758E0,-7.809353471E-1,1.641101837E0,9.219416380E-1,2.037903737E0
8.108967456E0,-9.138165116E-1,1.493256569E0,7.528442144E-1,1.905688907E0
8.118970581E0,-8.458814621E-1,2.631874084E-1,6.109025478E-1,1.076097107E0
8.129007300E0,-7.788729072E-1,2.636842728E-1,5.063143969E-1,9.656742047E-1
8.138957977E0,-7.126981616E-1,2.657871246E-1,4.285669327E-1,8.730699176E-1
8.148958654E0,-6.467879415E-1,2.765989304E-1,4.023631811E-1,8.103935704E-1
8.158968758E0,-7.812933922E-1,1.886491776E-1,3.694005013E-1,8.845702952E-1
8.168971310E0,6.062953472E-1,2.017211914E-1,3.265767097E-1,7.175916906E-1
8.178969019E0,6.619376540E-1,2.156934738E-1,2.802137136E-1,7.504697581E-1
8.188967717E0,6.910892129E-1,2.304124832E-1,2.545825243E-1,7.716906597E-1
8.198969279E0,6.984091997E-1,2.454938889E-1,2.558286190E-1,7.832566259E-1
8.208969540E0,6.654391885E-1,1.611232758E-1,2.750163078E-1,7.378373758E-1
8.218968758E0,4.920272827E-1,1.995458603E-1,3.122068644E-1,6.159403571E-1
8.228970842E0,-6.239558458E-1,2.180891037E-1,3.159378767E-1,7.325984553E-1
8.238971362E0,-6.081609130E-1,2.367277145E-1,3.325061798E-1,7.324343428E-1
8.249010165E0,-7.909463644E-1,1.556825638E-1,3.700745106E-1,8.870109105E-1
8.258961467E0,-7.730206847E-1,1.746835709E-1,4.307775497E-1,9.020225198E-1
8.268963290E0,-7.542018890E-1,1.935234070E-1,4.861483574E-1,9.179390088E-1
8.278959123E0,-7.346204519E-1,2.122783661E-1,5.175939798E-1,9.233812003E-1
8.288959123E0,-7.111217976E-1,2.307138443E-1,5.233989954E-1,9.126168951E-1
8.298960946E0,-8.462488651E-1,1.460590363E-1,4.873918295E-1,9.874316074E-1
8.308956779E0,-7.825088501E-1,1.613082886E-1,4.380000830E-1,9.111446302E-1
8.318980425E0,-7.183473706E-1,1.762075424E-1,3.808240891E-1,8.319248943E-1
8.328957717E0,-6.552388668E-1,1.910400391E-1,3.175983429E-1,7.527967697E-1
8.338954904E0,-5.930563807E-1,2.060928345E-1,2.459276915E-1,6.742926342E-1
8.348983654E0,-7.297862172E-1,1.215085983E-1,1.670323610E-1,7.584537375E-1
8.358965894E0,-6.675831079E-1,1.371431351E-1,9.172749519E-2,6.876695274E-1
8.368961987E0,-6.064054966E-1,1.529808044E-1,1.964640617E-2,6.257129806E-1
8.378962769E0,-5.461080670E-1,1.689872742E-1,-5.556344986E-3,5.716831226E-1
8.388962769E0,-4.866847396E-1,1.851520538E-1,-4.448890686E-3,5.207332440E-1
8.398961727E0,-5.878216028E-1,1.222238541E-1,1.000572443E-1,6.086742638E-1
8.408965373E0,-5.297808051E-1,1.396942139E-1,1.841683388E-1,5.780139720E-1
8.418962769E0,-4.725767672E-1,1.572484970E-1,1.454063058E0,1.536995533E0
8.428954435E0,-4.161511064E-1,1.748752594E-1,1.482589722E0,1.549785592E0
8.438960425E0,-5.600265265E-1,9.282207489E-2,1.311866879E0,1.429419588E0
8.448961467E0,-5.046841502E-1,1.108322144E-1,1.341385484E0,1.437464743E0
8.458964071E0,-4.500003457E-1,1.320158005E0,1.371075749E0,1.955803206E0
8.468959123E0,-1.710049987E0,1.398586273E0,1.397423744E0,2.614021355E0
8.478958602E0,-1.740031838E0,1.479930878E0,1.379372478E0,2.668440487E0
8.489015581E0,-1.754928589E0,1.554799080E0,1.162333369E0,2.616905308E0
8.498965685E0,-1.735401154E0,2.212650299E0,1.147209525E0,3.037026211E0
8.508982248E0,-1.682439566E0,2.270533562E0,1.132469535E0,3.044406805E0
8.518957612E0,-1.574646950E0,2.368326187E0,1.114019752E0,3.054426616E0
8.528959956E0,-2.565094233E-1,3.077334404E0,1.096204996E0,3.276804772E0
8.538962248E0,-4.018849730E-1,3.153330803E0,8.810634613E-1,3.298678449E0
8.548960165E0,-3.479898274E-1,3.238206863E0,8.695973158E-1,3.370946470E0
8.558966415E0,-2.941374481E-1,3.899236679E0,-6.790384650E-1,3.968835693E0
8.568963550E0,1.095218658E0,3.930531502E0,-8.072736859E-1,4.159359638E0
8.578964071E0,1.296681523E0,3.810638428E0,-1.012411118E0,4.150581221E0
8.588959904E0,2.018588305E0,2.813858032E0,-1.771384239E0,3.889768360E0
8.598959904E0,2.068848848E0,1.941557884E0,-1.881677866E0,3.404481483E0
8.608965894E0,2.148841381E0,1.052690506E0,-1.984971762E0,3.108985281E0
8.618958081E0,2.209791422E0,-5.850791931E-3,-2.004334927E0,2.983382453E0
8.628958862E0,3.000720739E0,-8.274078369E-2,-1.967481613E0,3.589171895E0
8.638958081E0,3.041862488E0,-5.925941467E-2,-1.901569843E0,3.587813672E0
8.648959383E0,3.077538252E0,-3.428173065E-2,-1.799896002E0,3.565395146E0
8.658963290E0,3.707830429E0,-6.841659546E-3,-1.658227444E0,4.061744890E0
8.668961050E0,3.670153618E0,1.748870850E0,-8.994266391E-1,4.163837786E0
8.678949852E0,3.636340141E0,2.700872421E0,-8.164744973E-1,4.602641857E0
8.688959123E0,3.560851097E0,3.512304306E0,-7.745909691E-1,5.061218553E0
8.698976310E0,3.438992023E0,3.656105995E0,-7.881851196E-1,5.080847662E0
8.708966675E0,3.241936684E0,4.262419701E0,-8.357170820E-1,5.420036735E0
8.718960685E0,2.324646950E0,4.210101128E0,-8.747959137E-1,4.888169682E0
8.728961467E0,1.508089185E0,3.542902946E0,-9.351643324E-1,3.962452095E0
8.738962769E0,4.964132309E-1,2.785535812E0,-1.534440756E0,3.218717802E0
8.748961987E0,-1.329341292E0,1.192449570E0,-1.585228562E0,2.387893181E0
8.758969279E0,-2.802834511E0,1.041536331E0,-1.549761295E0,3.367853812E0
8.768958862E0,-3.607593536E0,-1.020336151E-2,-1.478244185E0,3.898723009E0
8.778958602E0,-3.755296946E0,2.038574219E-2,-1.399749517E0,4.007738694E0
8.788960685E0,-3.853425026E0,4.679298401E-2,-1.344141126E0,4.081395519E0
8.798959904E0,-3.860123634E0,7.009792328E-2,-1.266819596E0,4.063286857E0
8.808965112E0,-3.717413902E0,8.544254303E-2,-1.177145004E0,3.900273953E0
8.818966571E0,-2.937615156E0,2.400398254E-3,-1.072666287E0,3.127331375E0
8.828959383E0,-1.367530584E0,1.379489899E-2,-9.764655828E-1,1.680421147E0
8.838964644E0,-1.236270070E0,-1.018871307E0,-8.747335672E-1,1.825272922E0
8.848973394E0,-1.107619643E0,-1.166932106E0,-7.531827688E-1,1.776467308E0
8.858967665E0,-9.817087054E-1,-2.326406479E0,-6.401181221E-1,2.604931918E0
8.868952769E0,-1.058023810E0,-2.483025551E0,-5.253007412E-1,2.749685644E0
8.878957092E0,-9.368946552E-1,-3.626021385E0,-4.198393822E-1,3.768563093E0
8.888960946E0,-8.632925153E-1,-3.768283844E0,-3.132925034E-1,3.878580834E0
8.898958081E0,-7.921374440E-1,-4.715030670E0,-2.302720547E-1,4.786650308E0
8.908965373E0,-7.246211767E-1,-4.803348541E0,-1.576266289E-1,4.860255056E0
8.918959644E0,-8.576931953E-1,-5.475046158E0,-1.115649939E-1,5.542942792E0
8.928937352E0,-7.546924353E-1,-6.194200516E0,-1.271585226E-1,6.241301947E0
8.938959383E0,-6.964339614E-1,-6.248565197E0,-1.837556362E-1,6.289940653E0
8.948961206E0,-6.388361454E-1,-6.298400879E0,-8.757100105E-1,6.390996266E0
8.958963550E0,8.805269003E-1,-6.328313828E0,-1.000103951E0,6.467077503E0
8.968958602E0,9.218654037E-1,-6.292737007E0,-2.170450687E0,6.720061834E0
8.978959383E0,9.475997686E-1,-6.140469551E0,-3.000796318E0,6.899861605E0
8.988959123E0,9.070060849E-1,-4.731505394E0,-3.939542055E0,6.223326678E0
8.998959644E0,7.874990702E-1,-3.071117401E0,-5.010068893E0,5.928971850E0
9.008964592E0,-7.480448484E-1,-1.060900688E0,-6.007713318E0,6.146356699E0
9.019057144E0,-6.987741590E-1,2.441196442E-1,-7.762157440E0,7.797369290E0
9.028959383E0,-1.738998175E0,2.757701874E0,-7.647637367E0,8.313566718E0
9.039117248E0,-1.874931335E0,4.154678345E0,-7.482235432E0,8.761310788E0
9.048958915E0,-2.717219353E0,5.026618004E0,-7.288293839E0,9.261176850E0
9.058959071E0,-2.748332024E0,5.127048492E0,-7.174257278E0,9.236337080E0
9.068963290E0,-2.728926182E0,5.134333611E0,-6.944741249E0,9.057474855E0
9.078961987E0,-2.622753620E0,4.316989899E0,-5.335136414E0,7.347034700E0
9.088964331E0,-1.871342063E0,3.123373032E0,-4.249922276E0,5.596357705E0
9.098960946E0,-1.647456884E0,1.997788429E0,-3.247087240E0,4.153173286E0
9.108965373E0,-3.878655136E-1,5.584363937E-1,-1.884396076E0,2.003307124E0
9.118960165E0,-2.809385955E-1,6.215019226E-1,-1.601835728E0,1.740996506E0
9.128962248E0,1.337453842E0,6.826667786E-1,-2.647242546E-1,1.524760847E0
9.138963810E0,2.099263906E0,2.815644264E0,5.664472580E-1,3.557474395E0
9.148955998E0,2.853075504E0,4.089425087E0,7.033872604E-1,5.035691712E0
9.158964852E0,2.978216887E0,5.314236641E0,7.464685440E-1,6.137434495E0
9.168959123E0,3.070675135E0,5.970133781E0,7.668609619E-1,6.757190162E0
9.178959644E0,3.134496689E0,5.969597816E0,8.579113483E-1,6.796850702E0
9.188960165E0,3.082340240E0,5.829268456E0,1.709650993E0,6.812055388E0
9.198971362E0,2.941979408E0,4.589975357E0,1.795530796E0,5.739951869E0
9.208962092E0,2.704377890E0,3.263429642E0,2.634977818E0,4.990665376E0
9.218960685E0,1.635915399E0,5.516653061E-1,2.667085886E0,3.177090009E0
9.228958394E0,1.383762360E0,5.498847961E-1,3.656593084E0,3.948144443E0
9.238961727E0,3.262519836E-1,-2.303022861E0,3.623062372E0,4.305454170E0
9.248961987E0,-8.361757398E-1,-3.569770813E0,5.337938786E0,6.475804506E0
9.258972665E0,-8.698288202E-1,-3.742529392E0,5.952148438E0,7.084574754E0
9.268970581E0,-9.002339244E-1,-3.800732613E0,5.934984684E0,7.104930169E0
9.278969019E0,-8.677965403E-1,-2.447351456E0,5.899035454E0,6.445247805E0
9.288969540E0,-1.067990899E0,-1.083680153E0,5.665730476E0,5.866469898E0
9.298970060E0,-1.038860202E0,3.390235901E-1,4.553442478E0,4.682734876E0
9.308969540E0,-9.763775468E-1,1.388092995E0,2.648379326E0,3.145477441E0
9.318971102E0,-9.127693176E-1,2.089515686E0,2.537870646E0,3.411746040E0
9.328966415E0,-8.495615125E-1,2.124691010E0,2.429307222E0,3.337304336E0
9.338969019E0,-9.862591028E-1,2.079416275E0,2.307753563E-1,2.312992937E0
9.348966154E0,-9.218301177E-1,1.934638977E0,-7.041428089E-1,2.255751722E0
9.358969540E0,-8.538067341E-1,1.100769043E-1,-9.441514015E-1,1.277702913E0
9.369005998E0,-7.864707708E-1,1.011829376E-1,-1.069428802E0,1.331334752E0
9.378958081E0,-7.190379500E-1,1.058444977E-1,-1.011877179E0,1.245838696E0
9.388952144E0,-8.535283804E-1,1.215648651E-2,-1.207805872E-1,8.621174088E-1
9.398946310E0,8.123206496E-1,1.971340179E-2,-5.623972416E-2,8.145037523E-1
9.408958133E0,9.498223662E-1,-9.752235413E-1,1.524518728E0,2.043864192E0
9.418968758E0,1.061725855E0,3.990650177E-2,1.501219392E0,1.839161217E0
9.428970842E0,1.125116467E0,5.002975464E-2,1.480078220E0,1.859844504E0
9.438972144E0,1.152401805E0,-3.847789764E-2,1.264620543E0,1.711366584E0
9.448967456E0,1.080552220E0,-2.237701416E-2,1.250429630E0,1.652775875E0
9.458970581E0,8.277925849E-1,1.459312439E-2,1.278135061E0,1.522853492E0
9.468969800E0,-7.341899276E-1,3.193473816E-2,1.266406059E0,1.464185434E0
9.478970842E0,-9.325870872E-1,-5.019950867E-2,1.055436730E0,1.409320885E0
9.488969019E0,-9.294440746E-1,-3.190994263E-2,1.046293378E0,1.399862266E0
9.498970060E0,-9.249026179E-1,-1.322078705E-2,1.039027572E0,1.391113919E0
9.508969279E0,-9.189724922E-1,5.806922913E-3,1.033490062E0,1.382984407E0
9.518960425E0,-9.116497040E-1,2.512550354E-2,1.029568315E0,1.375408081E0
9.528959383E0,-1.099324346E0,-5.552196503E-2,8.261940479E-1,1.376296956E0
9.538959904E0,-1.026605010E0,-4.185771942E-2,8.269917369E-1,1.318933375E0
9.548957092E0,-9.551433325E-1,-2.776241302E-2,8.290598392E-1,1.265073023E0
9.558969956E0,-8.833604455E-1,-1.340866089E-2,8.324474692E-1,1.213867480E0
9.568968394E0,-8.129151464E-1,1.344680786E-3,8.371620774E-1,1.166907532E0
9.578962300E0,-9.417149425E-1,-8.341979980E-2,6.437047720E-1,1.143740237E0
9.588957612E0,-8.717431426E-1,-6.785106659E-2,6.513833404E-1,1.090339456E0
9.598963029E0,-8.029915690E-1,-5.197143555E-2,6.601863503E-1,1.040837407E0
9.608961467E0,-7.354440689E-1,-3.580570221E-2,6.700983047E-1,9.955861413E-1
9.618959644E0,-6.690149903E-1,-1.938343048E-2,6.810271144E-1,9.548584739E-1
9.628960946E0,-8.032033443E-1,-1.024751663E-1,4.934708476E-1,9.482353345E-1
9.638956779E0,-6.985383034E-1,-6.540679932E-2,5.467519760E-1,8.894782369E-1
9.648960425E0,-6.349256635E-1,-4.814147949E-2,5.609766841E-1,8.486124205E-1
9.658961467E0,-5.722975731E-1,-3.070163727E-2,5.760732889E-1,8.126054005E-1
9.668959383E0,-7.102046013E-1,-1.128444672E-1,3.925952315E-1,8.193018157E-1
9.678959123E0,-6.490664482E-1,-9.484481812E-2,4.099574387E-1,7.735295051E-1
9.688959383E0,-5.888597369E-1,-7.671260834E-2,4.281330109E-1,7.320781987E-1
9.698959644E0,-5.297229290E-1,-5.844783783E-2,4.472682476E-1,6.957524104E-1
9.708963029E0,-4.714193344E-1,1.526272774E0,4.671199322E-1,1.664315415E0
9.718958862E0,-6.150608063E-1,1.562552452E0,2.865762115E-1,1.703524548E0
9.729013654E0,-5.578462481E-1,1.622995377E0,3.083952069E-1,1.743678305E0
9.738965685E0,-5.014506578E-1,1.724115372E0,3.308983743E-1,1.825793064E0
9.748976779E0,-1.516969442E0,2.551077843E0,3.539519310E-1,2.989059454E0
9.758960217E0,-1.522167444E0,2.650104523E0,3.760240078E-1,3.079194986E0
9.768961727E0,-1.491902351E0,3.292571068E0,1.968151480E-1,3.620156497E0
9.778963029E0,-1.439200163E0,3.353874207E0,-8.904321194E-1,3.756679207E0
9.788958602E0,-4.077205956E-1,3.406328201E0,-1.022900581E0,3.579892945E0
9.798959644E0,-3.508126438E-1,3.450938225E0,-1.834182024E0,3.923807824E0
9.808960165E0,-2.963302732E-1,3.420301437E0,-1.937261701E0,3.941986358E0
9.818949175E0,1.357560396E0,2.382980347E0,-2.674517393E0,3.830745208E0
9.828960165E0,2.072974920E0,2.222031593E0,-2.758341789E0,4.104034460E0
9.838959123E0,2.785351992E0,1.347523689E0,-2.751839399E0,4.140848451E0
9.848959383E0,2.950071096E0,1.288995743E0,-2.680144548E0,4.188986071E0
9.858961206E0,3.915295362E0,1.287662506E0,-2.531146526E0,4.836767024E0
9.868959123E0,3.943907261E0,1.341782570E0,-1.828087091E0,4.549361204E0
9.878961987E0,3.920596361E0,1.478601456E0,-1.683528185E0,4.515706505E0
9.888959644E0,3.844520092E0,2.560324669E0,-1.546170115E0,4.870958753E0
9.898957560E0,3.711767673E0,2.693093300E0,-1.416737556E0,4.799699583E0
9.908964644E0,3.532885790E0,3.524473190E0,-1.358051181E0,5.171798167E0
9.918951050E0,2.755738735E0,3.564341545E0,-1.366376162E0,4.708036793E0
9.929171675E0,2.493904352E0,3.537226677E0,-1.394131422E0,4.546991742E0
9.938957873E0,1.306932211E0,3.441733360E0,-1.415059328E0,3.944108674E0
9.948960165E0,4.348312616E-1,2.632843971E0,-1.440031886E0,3.032266056E0
9.958960425E0,-1.408959031E0,2.498832703E0,-1.477550745E0,3.226838489E0
9.968964852E0,-1.462039948E0,1.574055672E0,-1.497092605E0,2.618491614E0
9.978961467E0,-1.509982228E0,1.509498596E0,-1.505887270E0,2.612724404E0
9.988961987E0,-3.484400749E0,1.368695259E0,-1.392478824E0,3.994167318E0
9.998958862E0,-3.546776295E0,1.347538948E0,-1.299682975E0,4.010568431E0
1.000896043E1,-3.541946411E0,1.320633888E0,-1.217959285E0,3.971508915E0
1.001895808E1,-3.427221060E0,1.254532814E0,-1.136785507E0,3.822561715E0
1.002895990E1,-3.250421047E0,1.163038254E0,-1.025261045E0,3.601257443E0
1.003896095E1,-1.293807864E0,-8.172798157E-2,-8.998991251E-1,1.578111748E0
1.004896042E1,-1.399108529E0,-1.640987396E-1,-7.723854780E-1,1.606552956E0
1.005895808E1,-1.306865335E0,-1.459999084E-1,-1.123937368E-1,1.319789880E0
1.006895886E1,-1.216816187E0,-1.620685577E0,-5.970442295E-2,2.027517692E0
1.007896089E1,-1.128983021E0,-2.368363380E0,-2.261638641E-2,2.623787199E0
1.008897339E1,-1.043301105E0,-3.071871758E0,-9.729743004E-3,3.244220701E0
1.009896777E1,-1.159417152E0,-3.222895622E0,-1.416456699E-2,3.425128459E0
1.010898214E1,-1.082628965E0,-4.254776001E0,-2.851331234E-2,4.390446140E0
1.011895574E1,1.182961464E-2,-4.347506523E0,-6.218290329E-2,4.347967298E0
1.012896095E1,1.445174813E-1,-4.978382111E0,-8.160042763E-2,4.981147696E0
1.013896381E1,8.598763943E-1,-5.038492203E0,-8.180761337E-2,5.111994090E0
1.014896095E1,9.146118760E-1,-5.117938995E0,-6.283104420E-2,5.199400175E0
1.015896147E1,9.621630311E-1,-5.716031075E0,-5.607962608E-2,5.796715783E0
1.016896147E1,9.880385399E-1,-5.801421642E0,-1.160180569E-1,5.886100018E0
1.017895938E1,9.974565506E-1,-5.830862522E0,-1.998879910E-1,5.918938463E0
1.018896251E1,9.640963078E-1,-5.845441818E0,-1.108181596E0,6.027166680E0
1.019896173E1,8.968209028E-1,-5.810513496E0,-1.765674829E0,6.138726450E0
1.020895938E1,7.803516388E-1,-5.663693905E0,-2.626207352E0,6.291529415E0
1.021896121E1,5.893073082E-1,-4.348435879E0,-3.701214552E0,5.740659096E0
1.022895834E1,-1.191615582E0,-2.918861389E0,-4.843410969E0,5.779128768E0
1.023895886E1,-1.409567952E0,-1.176911354E0,-5.937879086E0,6.215336691E0
1.024895990E1,-1.427712440E0,1.293745041E-1,-6.866767883E0,7.014813022E0
1.025908574E1,-2.793974876E0,2.151541710E0,-7.935615063E0,8.683859382E0
1.026896063E1,-2.968478680E0,3.468329430E0,-7.790038109E0,9.029167649E0
1.027913235E1,-3.693315983E0,4.377277374E0,-7.617555141E0,9.530387531E0
1.028895735E1,-3.745651245E0,4.486567497E0,-7.513013840E0,9.518643187E0
1.029895730E1,-3.649270773E0,4.464891434E0,-7.279514313E0,9.286751925E0
1.030896095E1,-3.476585388E0,3.600962639E0,-7.023145199E0,8.624276571E0
1.031895938E1,-2.542502403E0,2.328524590E0,-5.126398087E0,6.177888197E0
1.032896042E1,-2.263706684E0,4.471044540E-1,-4.073214531E0,4.681383018E0
1.033896042E1,-1.195016623E0,4.120836258E-1,-3.172147751E0,3.414732639E0
1.034896017E1,1.578752995E-1,4.971237183E-1,-2.155057907E0,2.217280132E0
1.035895834E1,9.537319541E-1,5.616931915E-1,-8.146882057E-1,1.374343754E0
1.036896043E1,1.838902712E0,6.253776550E-1,7.686853409E-3,1.942348960E0
1.037896095E1,2.686159611E0,2.962222099E0,1.764843464E-1,4.002669103E0
1.038896147E1,2.850403547E0,4.653523445E0,2.153418064E-1,5.461359989E0
1.039895990E1,2.949178219E0,5.942057610E0,2.053716183E-1,6.636857562E0
1.040895912E1,2.940539360E0,6.100523949E0,2.752995491E-1,6.777828120E0
1.041895912E1,2.834657431E0,6.139784813E0,9.297368526E-1,6.826173959E0
1.042895860E1,2.628929377E0,6.042682648E0,1.613099337E0,6.784347627E0
1.043897480E1,1.517673492E0,5.039134979E0,1.715303659E0,5.535203773E0
1.044897886E1,7.088353634E-1,3.545027733E0,2.687364578E0,4.504619582E0
1.045899871E1,-4.591321945E-2,1.555855751E0,3.802994013E0,4.109204133E0
1.046896464E1,-1.143463612E0,-5.401248932E-1,3.776727438E0,3.982827397E0
1.047896173E1,-1.371044874E0,-2.223934174E0,5.608031273E0,6.186732741E0
1.048896720E1,-1.395007730E0,-3.389982700E0,6.168079376E0,7.175181703E0
1.049896095E1,-1.414888740E0,-3.534394741E0,6.130079269E0,7.216074291E0
1.050896798E1,-1.401281476E0,-3.604613781E0,6.001739025E0,7.139867058E0
1.051897579E1,-1.350717664E0,-3.533949375E0,5.882236481E0,6.993850328E0
1.052897032E1,-1.435920000E0,-1.193051338E0,4.928761482E0,5.270476970E0
1.053897006E1,-1.363533378E0,2.770719528E-1,4.028679371E0,4.262188360E0
1.054896954E1,-1.290075302E0,2.513198853E-1,2.665048361E0,2.971521283E0
1.055897032E1,-1.217074275E0,2.039044380E0,2.555959225E0,3.488824922E0
1.056896746E1,-1.344063997E0,2.099035263E0,1.191667318E0,2.762703035E0
1.057896824E1,-1.269985914E0,2.079957962E0,3.843472004E-1,2.467146554E0
1.058897006E1,-1.196398616E0,1.967831612E0,1.045334339E-1,2.305354233E0
1.059896980E1,-1.117636561E0,1.247158051E0,-7.311174870E-1,1.827306068E0
1.060899115E1,-1.039039612E0,1.058416367E0,-8.224387169E-1,1.695952229E0
1.061895871E1,-1.157918572E0,-6.365299225E-2,-7.972701788E-1,1.407290610E0
1.062894892E1,-1.076879859E0,-5.952262878E-2,5.826592445E-3,1.078539347E0
1.063894350E1,-9.967379570E-1,-4.702186584E-2,1.158790588E-1,1.004552421E0
1.064896126E1,1.116297841E-1,-3.404426575E-2,1.649361610E0,1.653485392E0
1.065896824E1,8.280533552E-1,-2.048397064E-2,1.664661407E0,1.859351918E0
1.066896485E1,8.681701422E-1,-1.062765121E-1,1.481332064E0,1.720278691E0
1.067897318E1,8.648362756E-1,-9.155845642E-2,1.498919845E0,1.732941267E0
1.068897032E1,8.270432949E-1,-7.541465759E-2,1.522963524E0,1.734677456E0
1.069896980E1,-7.841518521E-1,-4.189205170E-2,1.547209501E0,1.735081068E0
1.070896954E1,-9.560004473E-1,-1.278324127E-1,1.332324743E0,1.644800049E0
1.071896928E1,-9.274600744E-1,-1.132535934E-1,1.319585204E0,1.616883940E0
1.072897032E1,-8.985518813E-1,-9.821796417E-2,1.308769822E0,1.590572444E0
1.073897371E1,-8.692505956E-1,-8.298969269E-2,1.298086166E0,1.564452486E0
1.074895860E1,-8.395522237E-1,-6.738471985E-2,1.289053321E0,1.539820477E0
1.075895938E1,-1.008937120E0,-1.513757706E-1,1.080529571E0,1.486072976E0
1.076896147E1,-9.396260977E-1,-1.383171082E-1,1.076074600E0,1.435257946E0
1.077895886E1,-8.714265227E-1,-1.247835159E-1,1.073049068E0,1.387944312E0
1.078898610E1,-8.027595282E-1,-1.109371185E-1,1.071466446E0,1.343417377E0
1.079897954E1,-7.352150679E-1,-9.666538239E-2,1.071274877E0,1.302887276E0
1.080896595E1,-8.682417870E-1,-1.819028854E-1,8.713735938E-1,1.243472718E0
1.081895704E1,-8.007837534E-1,-1.667356491E-1,8.744183779E-1,1.197356629E0
1.082895709E1,-7.344046235E-1,-1.512317657E-1,8.786491752E-1,1.155095481E0
1.083896798E1,-6.690867543E-1,-1.354112625E-1,8.840969205E-1,1.116978361E0
1.084895860E1,-6.063486934E-1,-1.193246841E-1,8.890932798E-1,1.082766816E0
1.085895938E1,-7.440617681E-1,-2.027120590E-1,6.958388686E-1,1.038706804E0
1.086896459E1,-6.811417937E-1,-1.858263016E-1,7.054349780E-1,9.980601514E-1
1.087896016E1,-5.792636275E-1,-1.487703323E-1,7.559844255E-1,9.639457524E-1
1.088896459E1,-5.198981762E-1,-1.314115524E-1,7.675908208E-1,9.363539811E-1
1.089895912E1,-6.608199477E-1,-2.137451172E-1,5.789756775E-1,9.042028608E-1
1.090896121E1,-6.025353074E-1,-1.959133148E-1,5.913013816E-1,8.666418796E-1
1.091896147E1,-5.450641513E-1,1.267384529E0,6.062848568E-1,1.506963769E0
1.092893438E1,-4.867390096E-1,1.299279213E0,6.220976710E-1,1.520541630E0
1.093896459E1,-4.307753444E-1,1.336463928E0,6.387057900E-1,1.542610876E0
1.094895938E1,-5.750645995E-1,1.353646278E0,4.552131295E-1,1.539570243E0
1.095895886E1,-5.199974179E-1,1.377991676E0,4.741461575E-1,1.547279210E0
1.096909668E1,-4.639858305E-1,1.432902336E0,4.938111007E-1,1.585036706E0
1.097895345E1,-4.067154229E-1,1.519232750E0,5.114755630E-1,1.653811608E0
1.098898516E1,-3.519349694E-1,2.273115158E0,5.301386714E-1,2.360499472E0
1.099896282E1,-4.958394170E-1,2.383404732E0,3.502401114E-1,2.459500555E0
1.100896022E1,-4.405610859E-1,3.256899834E0,3.711424172E-1,3.307451782E0
1.101895912E1,-3.860653937E-1,3.357639313E0,3.928355575E-1,3.402514955E0
1.102896329E1,-3.322837353E-1,3.976943016E0,-1.111368895E0,4.142659659E0
1.103897084E1,-2.783261538E-1,3.993420601E0,-1.214021802E0,4.183147437E0
1.104896068E1,6.678292751E-1,3.933204651E0,-1.337317824E0,4.207673197E0
1.105896537E1,1.727047920E0,2.618988991E0,-2.235393524E0,3.852113973E0
1.106896042E1,1.876762390E0,1.857576370E0,-2.336867332E0,3.526155976E0
1.107896225E1,2.871016026E0,1.704168320E0,-2.410815001E0,4.118124773E0
1.108896928E1,3.001051426E0,9.410390854E-1,-2.364483833E0,3.934799616E0
1.109896251E1,3.728505611E0,9.409322739E-1,-2.263558865E0,4.462152661E0
1.110895938E1,3.775861263E0,1.004973412E0,-2.113916159E0,4.442492697E0
1.111895886E1,3.804977894E0,1.697031021E0,-1.327423334E0,4.372622070E0
1.112895912E1,3.823983669E0,1.835661888E0,-1.199108839E0,4.407989074E0
1.113896563E1,3.793176174E0,2.676485062E0,-1.094856262E0,4.769745067E0
1.114897459E1,3.733329296E0,2.768832207E0,-1.047333598E0,4.764565782E0
1.115896480E1,3.601253748E0,2.818859100E0,-1.020414710E0,4.685748752E0
1.116895704E1,3.399372101E0,2.811013222E0,-1.016171694E0,4.526602581E0
1.117894621E1,2.532495022E0,2.726219177E0,-1.050419331E0,3.866417309E0
1.118896595E1,1.548610687E0,1.958149910E0,-1.111466527E0,2.732746598E0
1.119896095E1,4.407329559E-1,1.828745842E0,-1.723504782E0,2.551279214E0
1.120895990E1,-1.441470981E0,1.019718170E0,-1.706330776E0,2.455448727E0
1.121896121E1,-1.488598585E0,9.937410355E-1,-1.658892155E0,2.440362714E0
1.122896147E1,-3.521120071E0,9.905233383E-1,-1.461854815E0,3.939091589E0
1.123896589E1,-3.670906544E0,1.012906075E0,-1.351493120E0,4.040800320E0
1.124896121E1,-3.741533041E0,1.033879280E0,-1.233925343E0,4.073149594E0
1.125896043E1,-3.706902027E0,9.994678497E-1,-1.116315126E0,3.998276889E0
1.126896433E1,-3.531826973E0,8.974866867E-1,-1.010457516E0,3.781574872E0
1.127896329E1,-2.636637688E0,-2.276630402E-1,-9.239134789E-1,2.803088452E0
1.128896824E1,-1.480961204E0,-2.156572342E-1,-8.485380411E-1,1.720398482E0
1.129896016E1,-1.347423673E0,-1.474668503E0,-7.842850685E-1,2.145996462E0
1.130895860E1,-1.217671633E0,-2.337506294E0,-7.101923227E-1,2.729658040E0
1.131899220E1,-1.091719866E0,-3.100007057E0,-6.351319551E-1,3.347430152E0
1.132895694E1,-1.168706775E0,-3.791638851E0,-5.883243084E-1,4.011050510E0
1.133897714E1,-1.049631238E0,-3.916986465E0,-5.314517021E-1,4.089859364E0
1.134895048E1,-9.733747244E-1,-4.717077255E0,-4.712806940E-1,4.839460887E0
1.135895631E1,-8.999544382E-1,-4.780744553E0,-4.069432020E-1,4.881704542E0
1.136896043E1,1.194730401E-1,-4.852845192E0,-3.434236050E-1,4.866448401E0
1.137896329E1,2.121554613E-1,-4.932680130E0,-2.621473074E-1,4.944195022E0
1.138896615E1,3.061277270E-1,-5.584920883E0,-2.037248611E-1,5.597013425E0
1.139896173E1,3.778900504E-1,-5.609814167E0,-1.813362837E-1,5.625450980E0
1.140896251E1,5.198734999E-1,-5.741718292E0,-3.022710085E-1,5.773124385E0
1.141896173E1,5.594702959E-1,-5.800647259E0,-1.156353116E0,5.941184071E0
1.142896277E1,6.071971655E-1,-5.833789825E0,-1.272675872E0,6.001791066E0
1.143896746E1,6.169135571E-1,-5.805090427E0,-2.499176741E0,6.350239491E0
1.144896069E1,5.821087360E-1,-5.643036842E0,-3.468876600E0,6.649497744E0
1.145895912E1,4.560744762E-1,-4.205612183E0,-4.453654289E0,6.142492514E0
1.146896068E1,-1.154342771E0,-2.593369961E0,-5.464601517E0,6.157917239E0
1.147895964E1,-1.155413508E0,7.102203369E-2,-6.288208008E0,6.393870851E0
1.148896615E1,-1.156031370E0,1.383958817E0,-6.345445633E0,6.596698478E0
1.149895615E1,-1.156272411E0,3.152512550E0,-7.438020706E0,8.160848810E0
1.150897949E1,-3.114257336E0,4.509567261E0,-7.251857758E0,9.089787487E0
1.151895892E1,-3.229062080E0,5.348894119E0,-7.136616230E0,9.485188529E0
1.152896595E1,-3.307243824E0,5.418333054E0,-6.900258541E0,9.376020623E0
1.153897480E1,-3.231793642E0,5.349180222E0,-6.659194946E0,9.132529579E0
1.154896199E1,-3.069149017E0,4.004510880E0,-4.817701340E0,6.976104162E0
1.155896459E1,-2.141996145E0,2.665489197E0,-3.673233986E0,5.018528476E0
1.156896173E1,-1.094697595E0,1.530957222E0,-2.674788952E0,3.270579272E0
1.157895704E1,-9.985351562E-1,4.738445282E-1,-1.717648268E0,2.042527030E0
1.158896329E1,1.020789146E0,5.625410080E-1,2.163815498E-2,1.165731992E0
1.159896069E1,2.017590523E0,1.993439674E0,2.671773434E-1,2.848834321E0
1.160896511E1,3.079120636E0,3.364072800E0,3.958017826E-1,4.577622608E0
1.161896121E1,3.936556816E0,4.726827621E0,3.993809223E-1,6.164323487E0
1.162896121E1,4.051431656E0,5.707859993E0,3.584578037E-1,7.008727143E0
1.163896485E1,4.069881439E0,5.779932976E0,3.535454273E-1,7.077891953E0
1.164895938E1,3.992188931E0,5.724228859E0,4.100794792E-1,6.990889333E0
1.165895860E1,3.796131849E0,5.532938957E0,1.223178864E0,6.820571608E0
1.166895886E1,2.668434620E0,3.984975815E0,1.332280397E0,4.977504056E0
1.167903694E1,1.681664109E0,2.431529045E0,2.613492966E0,3.945969229E0
1.168896027E1,5.368615389E-1,4.907951355E-1,3.971044540E0,4.037114677E0
1.169898126E1,-1.262355804E0,-1.326525688E0,5.181310654E0,5.495379211E0
1.170896725E1,-1.501233816E0,-2.696465492E0,6.247062683E0,6.967813236E0
1.171895860E1,-1.536181927E0,-3.526237488E0,6.918876648E0,7.916126566E0
1.172895782E1,-1.566510201E0,-3.587304115E0,6.919235706E0,7.949750171E0
1.173896876E1,-1.588055730E0,-3.562842846E0,6.822199821E0,7.858637321E0
1.174897266E1,-1.587862849E0,-2.889482498E0,6.582014084E0,7.361611708E0
1.175897214E1,-1.709907532E0,-1.927257061E0,5.671931267E0,6.229679594E0
1.176896902E1,-1.592189550E0,2.676181793E-1,2.971098900E0,3.381436932E0
1.177896928E1,-1.513192415E0,2.330789566E-1,2.844765902E0,3.230599034E0
1.178897110E1,-1.434414744E0,1.251713753E0,1.440434456E0,2.387296462E0
1.179897319E1,-1.555407166E0,1.833888054E0,3.911199570E-1,2.436270032E0
1.180896876E1,-1.475217462E0,1.768499374E0,-5.229647160E-1,2.361641101E0
1.181894621E1,-1.392113209E0,1.648174286E0,-8.001439571E-1,2.301018908E0
1.182897084E1,-1.303926349E0,-2.425193787E-3,-9.963529110E-1,1.641020697E0
1.183897318E1,-1.215532303E0,-2.839088440E-3,-1.047478199E0,1.604598834E0
1.184897032E1,-1.329778075E0,-1.011800766E-1,-1.033252478E0,1.687055962E0
1.185897563E1,5.734336376E-2,-8.994388580E-2,-9.317337275E-1,9.378197603E-1
1.186897970E1,1.825556755E-1,-7.180404663E-2,-5.107045174E-2,2.027081321E-1
1.187897308E1,3.038671017E-1,-5.327701569E-2,6.223273277E-2,3.147166486E-1
1.188897532E1,3.986302614E-1,-3.460311890E-2,7.212952375E-1,8.248456103E-1
1.189897162E1,4.488953352E-1,-1.153602600E-1,8.120737076E-1,9.350287258E-1
1.190897605E1,4.665651321E-1,-9.598827362E-2,9.070895910E-1,1.024552730E0
1.191897032E1,3.897737265E-1,-7.196521759E-2,1.970959425E0,2.010418764E0
1.192894449E1,2.608242035E-1,-4.967403412E-2,2.009220362E0,2.026687750E0
1.193897214E1,-1.137618423E0,-1.121196747E-1,1.863221288E0,2.185941459E0
1.194896954E1,-1.108583093E0,-9.502220154E-2,1.874894261E0,2.180186731E0
1.195897345E1,-1.079246044E0,-7.834339142E-2,1.884343982E0,2.172938552E0
1.196897293E1,-1.050329089E0,-6.838607788E-2,7.945054770E-1,1.318751987E0
1.197896199E1,-1.020811558E0,-5.768013000E-2,6.790313721E-1,1.227382108E0
1.198896068E1,-1.190249324E0,-1.460800171E-1,5.627479553E-1,1.324657724E0
1.199895808E1,-1.110896230E0,-1.389999390E-1,4.424896240E-1,1.203830754E0
1.200895912E1,-1.033043623E0,-1.310434341E-1,3.323512077E-1,1.093073115E0
1.201895886E1,-9.549115896E-1,-1.224174500E-1,2.363650799E-1,9.913176217E-1
1.202898855E1,-8.781799674E-1,-1.130113602E-1,1.528543234E-1,8.985188183E-1
1.203898121E1,-1.001623869E0,-1.972637177E-1,1.077467203E-1,1.026534317E0
1.204896386E1,-9.249459505E-1,-1.810693741E-1,8.919596672E-2,9.467138164E-1
1.205895751E1,-8.496394157E-1,-1.643123627E-1,9.409618378E-2,8.704824990E-1
1.206895782E1,-7.756383419E-1,-1.469860077E-1,1.151047945E-1,7.977899709E-1
1.207896798E1,-7.044032812E-1,-1.290674210E-1,1.548731327E-1,7.326855185E-1
1.208896199E1,-8.338481784E-1,-2.107229233E-1,1.947518587E-1,8.818362782E-1
1.209896095E1,-7.628874779E-1,-1.923618317E-1,2.394144535E-1,8.223865628E-1
1.210896121E1,-6.932114959E-1,-1.738882065E-1,2.880717516E-1,7.705612373E-1
1.211896303E1,-5.848712921E-1,-1.353654861E-1,3.967571259E-1,7.195932602E-1
1.212896772E1,-7.188068032E-1,-2.164211273E-1,1.374376416E0,1.566024220E0
1.213896355E1,-6.537925005E-1,-1.974096298E-1,1.410746217E0,1.567360866E0
1.214896042E1,-5.881689191E-1,-1.786718369E-1,1.445374250E0,1.570660061E0
1.215896225E1,-5.233430862E-1,-1.601486206E-1,1.478077769E0,1.576150202E0
1.216896225E1,-4.596362710E-1,-1.418170929E-1,1.508893728E0,1.583710161E0
1.217896433E1,-5.981155038E-1,-2.234354019E-1,1.337724328E0,1.482286043E0
1.218896017E1,-5.364852548E-1,1.011365891E0,1.327845216E0,1.753239947E0
1.219895938E1,-4.757531285E-1,1.128340721E0,1.319701672E0,1.800307286E0
1.220909459E1,-4.158937037E-1,1.986083984E0,1.311524987E0,2.416111537E0
1.221895944E1,-3.569050431E-1,2.104425430E0,1.305018902E0,2.501811731E0
1.222897761E1,-4.981304407E-1,2.936627388E0,1.100574255E0,3.175402029E0
1.223895761E1,-4.400747418E-1,3.024851799E0,1.097666860E0,3.247809526E0
1.224896199E1,-3.811865747E-1,3.653075218E0,1.090060472E0,3.831252222E0
1.225896199E1,-3.231726885E-1,3.700648308E0,1.084038973E0,3.869674273E0
1.226895938E1,-2.650382519E-1,3.725801468E0,-3.362375498E-2,3.735367774E0
1.227896694E1,-4.063019156E-1,3.711834908E0,-1.801285148E-1,3.738348019E0
1.228896199E1,-3.486535251E-1,3.629973412E0,-9.237043858E-1,3.761847424E0
1.229895886E1,-2.522396743E-1,2.765765190E0,-1.699597239E0,3.256027137E0
1.230896068E1,1.289378285E0,1.540046692E0,-1.806802273E0,2.701624443E0
1.231895938E1,1.984764099E0,1.384266853E0,-1.910524607E0,3.083113284E0
1.232896746E1,2.686248779E0,-3.677902222E-1,-1.927570105E0,3.326669304E0
1.233895912E1,2.841030121E0,-3.465099335E-1,-1.883869648E0,3.426439279E0
1.234895938E1,3.753144026E0,-3.230686188E-1,-1.754859924E0,4.155718562E0
1.235895964E1,3.828536749E0,-2.993583679E-1,-1.017458439E0,3.972723341E0
1.236896147E1,3.833179474E0,1.454112053E0,-8.814945817E-1,4.193416201E0
1.237897058E1,3.791083813E0,1.597733498E0,-7.320860624E-1,4.178638392E0
1.238897751E1,3.687318325E0,2.581749916E0,-8.387959003E-2,4.502086721E0
1.239898089E1,3.542862892E0,2.668148041E0,-8.939576149E-2,4.436088710E0
1.240897162E1,3.306274176E0,2.737004280E0,-1.212255955E-1,4.293872029E0
1.241895996E1,2.341569662E0,2.759622574E0,-1.469453573E-1,3.622162085E0
1.242896589E1,1.518283129E0,2.716926575E0,-1.757944822E-1,3.117334979E0
1.243896147E1,5.843414068E-1,2.602329254E0,-2.572683096E-1,2.679507307E0
1.244895782E1,-1.162297845E0,1.758586884E0,-1.010499120E0,2.337663915E0
1.245895834E1,-1.217771173E0,1.695219994E0,-1.056804061E0,2.339566686E0
1.246895990E1,-1.428093553E0,1.600768089E0,-1.086436629E0,2.404631826E0
1.247896381E1,-3.263648272E0,1.600369453E0,-1.022204995E0,3.775908564E0
1.248895964E1,-3.331752539E0,1.597085953E0,-9.743211269E-1,3.821067937E0
1.249896147E1,-3.324941158E0,1.560799599E0,-9.404691458E-1,3.791544713E0
1.250895990E1,-3.208374977E0,1.478956223E0,-8.730340004E-1,3.639116633E0
1.251895886E1,-3.027053356E0,7.889404297E-1,-8.014314175E-1,3.229205992E0
1.252896355E1,-1.289976120E0,-2.876787186E-1,-7.219160795E-1,1.505974854E0
1.253896199E1,-1.198566794E0,-2.694892883E-1,-6.351916790E-1,1.382987819E0
1.254896042E1,-1.110015988E0,-1.405735970E0,-5.673092604E-1,1.878847761E0
1.255897449E1,-1.224150777E0,-2.284369469E0,-5.212802887E-1,2.643600222E0
1.256895522E1,-1.138959885E0,-3.072858334E0,-4.943490028E-1,3.314222216E0
1.257896282E1,-1.056651235E0,-3.229351044E0,-4.754412174E-1,3.430927622E0
1.258894777E1,-9.798082709E-1,-4.250713825E0,-4.461009502E-1,4.384928543E0
1.259896225E1,-9.084638953E-1,-4.356353760E0,-3.869748116E-1,4.466864027E0
1.260896095E1,-1.037796974E0,-5.064959049E0,-3.152714968E-1,5.179790425E0
1.261896355E1,1.766228676E-1,-5.131386757E0,-2.217953205E-1,5.139213836E0
1.262896772E1,2.459210753E-1,-5.210959435E0,-1.336662769E-1,5.218471239E0
1.263896225E1,3.304877281E-1,-5.846970081E0,-6.476676464E-2,5.856660824E0
1.264896147E1,5.101333261E-1,-5.941769123E0,-6.078386307E-2,5.963937542E0
1.265895886E1,6.023423672E-1,-5.987851143E0,-1.225187778E-1,6.019317942E0
1.266896303E1,1.161223173E0,-6.011494637E0,-9.370685816E-1,6.193916737E0
1.267896876E1,1.138429999E0,-5.999256611E0,-1.587378502E0,6.309268837E0
1.268895990E1,1.071550965E0,-5.896787643E0,-2.381233215E0,6.449077268E0
1.269895990E1,9.391092062E-1,-4.982891083E0,-3.280379772E0,6.039206992E0
1.270895834E1,8.810210228E-2,-3.779958725E0,-4.291835785E0,5.719764361E0
1.271895912E1,-1.134554982E0,-2.130990982E0,-5.259959221E0,5.787530439E0
1.272896355E1,-1.137522697E0,2.199363708E-2,-6.107112885E0,6.212187166E0
1.273908303E1,-2.359836578E0,1.576386452E0,-6.165724277E0,6.787486927E0
1.274895985E1,-3.138723373E0,3.146095276E0,-7.600507259E0,8.804385867E0
1.275897209E1,-3.315308571E0,4.319813728E0,-7.423850060E0,9.206824169E0
1.276895954E1,-4.107810497E0,4.512818336E0,-7.219883919E0,9.453378244E0
1.277895579E1,-4.116553307E0,4.638929367E0,-6.992712975E0,9.346855704E0
1.278895938E1,-3.999593735E0,4.621158600E0,-6.755069733E0,9.109490872E0
1.279896485E1,-3.789050579E0,3.633396149E0,-4.699617863E0,7.045912284E0
1.280896381E1,-2.548542976E0,2.338754654E0,-3.835696936E0,5.165018453E0
1.281896308E1,-9.255985618E-1,1.322805405E0,-3.527022362E0,3.878973263E0
1.282896798E1,-7.466907501E-1,4.060697556E-1,-2.348201036E0,2.497296104E0
1.283895886E1,7.377854586E-1,3.722391129E-1,-1.415196896E0,1.638801877E0
1.284896095E1,1.569210052E0,1.640647888E0,-1.163206816E0,2.550920575E0
1.285896277E1,2.388242483E0,2.636022568E0,-1.545228958E-1,3.560364372E0
1.286896043E1,2.554662704E0,3.888592720E0,7.934570312E-4,4.652682614E0
1.287896485E1,3.305286884E0,4.998816490E0,7.574748993E-2,5.993231630E0
1.288896016E1,3.312654495E0,5.153573036E0,1.642441750E-1,6.128619012E0
1.289896068E1,3.225242138E0,5.195829391E0,2.851157188E-1,6.122101019E0
1.290896017E1,3.058204889E0,5.114047050E0,1.381195068E0,6.116681633E0
1.291897975E1,2.200569153E0,4.195760727E0,2.124814749E0,5.192470548E0
1.292940496E1,1.990909338E0,2.959509850E0,2.766009808E0,4.513671321E0
1.293895839E1,9.542907476E-1,4.132232666E-1,4.033182144E0,4.165090936E0
1.294895892E1,7.592498064E-1,4.246511459E-1,4.028221130E0,4.121086548E0
1.295896251E1,5.835165977E-1,-2.019013405E0,5.142802238E0,5.555656722E0
1.296896407E1,4.479124546E-1,-3.322768211E0,5.966500282E0,6.844014887E0
1.297897084E1,3.369691372E-1,-4.074682236E0,6.526463032E0,7.701383202E0
1.298896720E1,2.331653833E-1,-4.157307625E0,6.465249062E0,7.690059701E0
1.299897214E1,5.991435051E-2,-3.220515251E0,6.401725292E0,7.166407393E0
1.300896668E1,-6.213009357E-2,-2.148480892E0,6.127071381E0,6.493137454E0
1.301896798E1,-1.294411421E0,-8.502836227E-1,4.998950481E0,5.233353522E0
1.302897006E1,-1.482443452E0,1.513528824E-1,2.929788828E0,3.286975640E0
1.303896824E1,-1.468185425E0,1.547809601E0,2.810271978E0,3.528301517E0
1.304897865E1,-1.451635242E0,2.225169182E0,2.692085743E0,3.782320506E0
1.305901016E1,-1.432024360E0,2.238687515E0,8.640017509E-1,2.794443519E0
1.306896928E1,-1.408692479E0,2.174162865E0,-3.699898720E-2,2.590900922E0
1.307897032E1,-1.573588133E0,2.023262024E0,-3.080816269E-1,2.581604756E0
1.308900678E1,-1.484270096E0,9.821920395E-1,-5.107820034E-1,1.851663354E0
1.309895313E1,-1.389345527E0,-9.041309357E-2,-5.736869574E-1,1.505846023E0
1.310895345E1,-1.295143008E0,-9.278202057E-2,-5.553293228E-1,1.412230354E0
1.311894553E1,-1.203290343E0,-9.301185608E-2,1.179337502E-1,1.212628230E0
1.312896016E1,3.387614489E-1,-1.805200577E-1,2.302029133E-1,4.475937798E-1
1.313895860E1,5.008531809E-1,-1.180298805E0,1.783635497E0,2.196659911E0
1.314896511E1,1.186251163E0,-1.238314629E0,1.810432076E0,2.493647779E0
1.315900912E1,1.235860348E0,-1.269168854E0,1.837541580E0,2.552390926E0
1.316897527E1,1.244219661E0,-1.265079498E0,1.871686578E0,2.579092737E0
1.317897032E1,1.064258099E0,-1.196228981E0,1.745392442E0,2.368544669E0
1.318897032E1,3.259481192E-1,-1.179690361E0,6.874401569E-1,1.403739824E0
1.319897501E1,1.922188997E-1,-1.163582802E0,5.315166712E-1,1.293593063E0
1.320896251E1,-1.122876883E0,-1.180086136E-1,-1.380844116E-1,1.137473442E0
1.321895808E1,-1.310684919E0,-2.016286850E-1,-1.987037659E-1,1.340907257E0
1.322895886E1,-1.297481418E0,-1.848640442E-1,-2.366834879E-1,1.331785199E0
1.323895808E1,-1.283296943E0,-1.677436829E-1,-2.693951130E-1,1.321954127E0
1.324896277E1,-1.268187165E0,-1.503047943E-1,-2.925124168E-1,1.310135005E0
1.325898334E1,-1.241753459E0,-1.284103394E-1,-2.774695158E-1,1.278839396E0
1.326895527E1,-1.405479550E0,-2.076768875E-1,-2.656600475E-1,1.445364216E0
1.327897886E1,-1.316137791E0,-1.905460358E-1,-2.516982555E-1,1.353469057E0
1.328896142E1,-1.228673220E0,-1.731014252E-1,-2.378858328E-1,1.263404786E0
1.329896246E1,-1.141437054E0,-1.555318832E-1,-2.191507816E-1,1.172644780E0
1.330896095E1,-1.056073189E0,-1.377115250E-1,-1.818953753E-1,1.080435547E0
1.331895964E1,-1.172104836E0,-2.193908691E-1,-1.186598539E-1,1.198349807E0
1.332895938E1,-1.087983251E0,-2.010030746E-1,-4.224693775E-2,1.107201243E0
1.333896068E1,-1.005722165E0,-1.824207306E-1,4.997146130E-2,1.023353088E0
1.334896459E1,-9.252824187E-1,-1.636829376E-1,1.557974815E-1,9.524770411E-1
1.335898490E1,-1.007632732E0,-2.245206833E-1,1.480933189E0,1.805241361E0
1.336895912E1,-9.314122796E-1,-2.055158615E-1,1.527185440E0,1.800572401E0
1.337895964E1,-8.553241491E-1,-1.868810654E-1,1.570483923E0,1.798033282E0
1.338896121E1,-7.808454633E-1,-1.686010361E-1,1.610198140E0,1.797465993E0
1.339896563E1,-7.079382539E-1,1.182808876E0,1.645883560E0,2.146892196E0
1.340895808E1,-8.385815620E-1,1.298980713E0,1.428559661E0,2.105077821E0
1.341895964E1,-7.688586712E-1,2.285805702E0,1.413291097E0,2.795253672E0
1.342895912E1,-7.004068494E-1,2.948464394E0,1.398339987E0,3.337568989E0
1.343896017E1,-6.330927610E-1,3.090690613E0,1.385399342E0,3.445650337E0
1.344900892E1,-5.669295788E-1,4.139433861E0,1.372569442E0,4.397757236E0
1.345897746E1,-7.000904083E-1,4.233692169E0,1.155797482E0,4.444113385E0
1.346906464E1,-6.327485442E-1,4.917037010E0,1.141034722E0,5.087198042E0
1.347895501E1,-5.648387074E-1,4.947379112E0,-6.127508879E-1,5.017077486E0
1.348896959E1,-4.972849786E-1,4.932612419E0,-7.950282097E-1,5.020958821E0
1.349896902E1,-4.327709675E-1,4.859312057E0,-1.790054798E0,5.196585472E0
1.350896225E1,9.918875098E-1,4.705285072E0,-1.948840857E0,5.188596065E0
1.351896433E1,1.719868898E0,3.646770477E0,-2.616227150E0,4.806404939E0
1.352896381E1,2.501461744E0,3.502340317E0,-2.667930841E0,5.063748960E0
1.353895860E1,3.394360781E0,2.650392532E0,-2.481531382E0,4.970338387E0
1.354896355E1,4.346630573E0,2.602560997E0,-1.609059811E0,5.315599172E0
1.355898907E1,4.402415752E0,2.569898605E0,-1.443742514E0,5.298116245E0
1.356896277E1,5.020301819E0,2.528050423E0,-6.623405218E-1,5.659784824E0
1.357895964E1,4.990518570E0,2.474122047E0,-5.805358887E-1,5.600319403E0
1.358895990E1,4.901072502E0,2.410269737E0,-5.646872520E-1,5.490790796E0
1.359896876E1,4.748476028E0,2.337288857E0,-5.939550400E-1,5.325760639E0
1.360895990E1,4.504128456E0,1.700729370E0,-6.555670500E-1,4.858952737E0
1.361896772E1,3.520964146E0,1.622790337E0,-1.313370347E0,4.093357871E0
1.362895996E1,2.664001465E0,9.808979034E-1,-1.310926795E0,3.126914384E0
1.363894876E1,1.531193495E0,9.314460754E-1,-1.301136851E0,2.214746580E0
1.364896272E1,2.451330423E-1,8.811893463E-1,-1.324335456E0,1.609487270E0
1.365898496E1,-1.697763085E0,8.399391174E-1,-1.307635546E0,2.301696751E0
1.366895709E1,-1.756015420E0,7.917823792E-1,-1.241406202E0,2.291636719E0
1.367897188E1,-3.405136347E0,7.384929657E-1,-1.124613404E0,3.661294950E0
1.368896043E1,-4.198808193E0,-2.072896957E-1,-9.844326973E-1,4.317646002E0
1.369896511E1,-4.348581791E0,-2.689876556E-1,-2.780964375E-1,4.365759451E0
1.370896016E1,-4.402220726E0,-2.250185013E-1,-2.581759691E-1,4.415522107E0
1.371895938E1,-4.236209869E0,-2.122774124E-1,-2.077014446E-1,4.246607546E0
1.372896095E1,-3.371675968E0,-1.914496422E0,-1.606667042E-1,3.880632574E0
1.373895860E1,-1.776546478E0,-2.045109749E0,-1.303164959E-1,2.712116086E0
1.374896563E1,-1.627769232E0,-2.932363987E0,-1.336430311E-1,3.356523750E0
1.375896121E1,-1.482386708E0,-3.066765785E0,-1.557807922E-1,3.409807970E0
1.376895990E1,-1.339999557E0,-3.868176460E0,-1.740167141E-1,4.097397925E0
1.377895860E1,-1.201355338E0,-3.965175629E0,-1.945711374E-1,4.147737979E0
1.378895886E1,-1.265314937E0,-4.599845886E0,-2.215375900E-1,4.775843692E0
1.379897871E1,-1.190606117E0,-4.676598549E0,-2.551774979E-1,4.832518233E0
1.380897881E1,-1.117531657E0,-4.776198387E0,-2.971471548E-1,4.914188078E0
1.381909767E1,-1.049632907E0,-5.519960880E0,-3.360364437E-1,5.628909117E0
1.382896386E1,-9.827597737E-1,-5.575505733E0,-3.857161999E-1,5.674579980E0
1.383895553E1,-1.118685484E0,-5.640147686E0,-4.546959400E-1,5.767969446E0
1.384896694E1,-1.055544019E0,-5.723344326E0,-1.230380535E0,5.948502308E0
1.385896069E1,-9.963268042E-1,-6.354328632E0,-1.294864535E0,6.561008584E0
1.386896069E1,-9.374502301E-1,-6.344484329E0,-2.121173382E0,6.755047805E0
1.387896095E1,-8.833484650E-1,-6.266733170E0,-2.816009283E0,6.926915433E0
1.388896095E1,-9.894530177E-1,-4.487217903E0,-4.708384514E0,6.578983699E0
1.389896459E1,-9.339869618E-1,-2.845988274E0,-5.761707306E0,6.493785643E0
1.390896042E1,-8.780381680E-1,-2.772998810E-2,-7.528012753E0,7.579095987E0
1.391895990E1,-8.220584989E-1,1.296329498E-2,-7.395288467E0,7.440849396E0
1.392893318E1,-9.666067362E-1,2.470497131E0,-7.326025009E0,7.791554857E0
1.393896017E1,-1.963426352E0,3.690991402E0,-7.125954628E0,8.261821223E0
1.394896563E1,-2.022001266E0,4.443991661E0,-6.899661064E0,8.452388645E0
1.395896016E1,-2.073894739E0,4.529905319E0,-6.654890060E0,8.313160849E0
1.396895990E1,-2.092132092E0,4.493795395E0,-6.409804344E0,8.102888711E0
1.397898522E1,-2.056444168E0,3.244101524E0,-6.205397606E0,7.297952916E0
1.398895980E1,-1.951447368E0,1.919676781E0,-4.103931427E0,4.933108445E0
1.399907022E1,-1.803483367E0,4.182348251E-1,-2.965594292E0,3.496029480E0
1.400895553E1,-5.610764623E-1,5.122261047E-1,-1.924297810E0,2.068841328E0
1.401896147E1,-4.875613451E-1,6.028242111E-1,-9.590415955E-1,1.233237153E0
1.402896251E1,4.764892459E-1,5.901088715E-1,7.828712463E-2,7.624954790E-1
1.403896095E1,1.541562796E0,6.738557816E-1,1.125407219E0,2.024114344E0
1.404896511E1,2.705978155E0,2.119183540E0,1.831546783E0,3.894588589E0
1.405896095E1,3.856191158E0,3.787078857E0,1.851815939E0,5.713265160E0
1.406896095E1,4.616429806E0,6.517155647E0,1.754717588E0,8.177027314E0
1.407896042E1,4.575964928E0,6.527033806E0,1.773386002E0,8.166181680E0
1.408895860E1,4.415192127E0,6.412846565E0,2.427777767E0,8.155527419E0
1.409896511E1,3.426119089E0,5.474986076E0,2.457416534E0,6.910329990E0
1.410895938E1,2.420386553E0,4.259674072E0,3.125129700E0,5.811155643E0
1.411895808E1,1.351516128E0,2.456709862E0,3.154016018E0,4.220170166E0
1.412895964E1,2.944449186E-1,3.859786987E-1,4.077901363E0,4.106696592E0
1.413895938E1,4.117977619E-2,-2.204166412E0,5.642288208E0,6.057677902E0
1.414899454E1,-1.243376493E0,-3.884535789E0,6.468724251E0,7.647221511E0
1.415895865E1,-1.294719338E0,-4.751192093E0,6.498841286E0,8.153837288E0
1.416894824E1,-1.541065335E0,-4.816851139E0,7.121748924E0,8.734772178E0
1.417895886E1,-1.552572131E0,-4.741615295E0,6.986368179E0,8.585029771E0
1.418895709E1,-1.537916422E0,-3.597411156E0,6.756350517E0,7.807357188E0
1.419897032E1,-1.501025558E0,-2.251720428E0,5.675391197E0,6.287558179E0
1.420897110E1,-1.458612442E0,2.084541321E-1,4.572122097E0,4.803676077E0
1.421896954E1,-1.575452685E0,7.737541199E-2,2.771953821E0,3.189320634E0
1.422896928E1,-1.493058324E0,1.757652283E0,2.660713911E0,3.521074157E0
1.423897136E1,-1.370138764E0,1.925634384E0,2.481791973E-1,2.376329297E0
1.424896824E1,-1.288067341E0,1.850414276E0,-4.818987846E-2,2.255099273E0
1.425896876E1,-1.406385303E0,1.674532890E0,-8.533375263E-1,2.347374055E0
1.426896954E1,-1.325242162E0,-1.243295670E-1,-9.330050945E-1,1.625491659E0
1.427897345E1,-1.242142320E0,-1.239986420E-1,-8.692576885E-1,1.521151582E0
1.428897032E1,-1.160251737E0,-1.221790314E-1,3.113150597E-2,1.167082250E0
1.429897162E1,1.850303411E-1,-1.095066071E-1,1.326600313E-1,2.526392844E-1
1.430896876E1,3.321864605E-1,-1.928730011E-1,9.109148979E-1,9.885918219E-1
1.431897397E1,1.038896322E0,-1.760330200E-1,9.785958529E-1,1.438034435E0
1.432895996E1,1.103168011E0,-1.590042114E-1,2.005258560E0,2.294193517E0
1.433897751E1,1.122838259E0,-1.418027878E-1,2.041723013E0,2.334417839E0
1.434896725E1,1.102171183E0,-1.241903305E-1,2.078630924E0,2.356037154E0
1.435895970E1,9.894948006E-1,-2.016124725E-1,1.914711595E0,2.164686592E0
1.436895735E1,3.014004230E-1,-1.847543716E-1,1.921968341E0,1.954210505E0
1.437897136E1,1.978714466E-1,-1.681728363E-1,1.927644730E0,1.945057690E0
1.438896615E1,-1.038028359E0,-1.579399109E-1,1.899106622E0,2.170035449E0
1.439896954E1,-1.013154268E0,-1.472148895E-1,1.871228218E0,2.132990586E0
1.440897188E1,-1.187201500E0,-2.355003357E-1,1.646087408E0,2.043162148E0
1.441896876E1,-1.120798469E0,-1.665203094E0,1.662933946E0,2.606614636E0
1.442895964E1,-1.093893886E0,-1.688889503E0,1.640468955E0,2.596168327E0
1.443896173E1,-1.063188910E0,-1.675479889E0,1.620141983E0,2.561730580E0
1.444896121E1,-1.185865045E0,-1.634367943E0,1.403263569E0,2.458980098E0
1.445895834E1,-1.109962940E0,-1.554589272E0,1.388244390E0,2.361353006E0
1.446895860E1,-1.033794284E0,-2.312297821E-1,1.375122547E0,1.735845573E0
1.447896485E1,-9.589554667E-1,-2.204322815E-1,1.363672733E0,1.681603194E0
1.448895990E1,-8.853990436E-1,-2.089672089E-1,2.452629805E-1,9.422062886E-1
1.449895886E1,-1.012577534E0,-2.966642380E-1,1.620419025E-1,1.067511363E0
1.450906563E1,-9.393782020E-1,-2.839479446E-1,8.539819717E-2,9.850638018E-1
1.451895938E1,-8.673746586E-1,-2.705240250E-1,3.093516827E-2,9.091089215E-1
1.452897761E1,-7.965561152E-1,-2.566318512E-1,1.414060593E-2,8.369955247E-1
1.453896204E1,-7.284607291E-1,-2.422037125E-1,3.012406826E-2,7.682611091E-1
1.454895787E1,-8.609537482E-1,-3.269844055E-1,9.557499290E-1,1.327259615E0
1.455896329E1,-7.929559350E-1,-3.115386963E-1,9.601373076E-1,1.283627331E0
1.456896147E1,-7.260181308E-1,-2.957639694E-1,9.656724930E-1,1.243825557E0
1.457896511E1,-6.601037979E-1,1.164540291E0,9.710285664E-1,1.653719320E0
1.458896199E1,-5.968102813E-1,1.226525307E0,9.774094820E-1,1.678057250E0
1.459895860E1,-6.940656304E-1,1.327623367E0,8.269264698E-1,1.711174536E0
1.460895964E1,-1.798650742E0,1.338291168E0,8.373763561E-1,2.393191781E0
1.461896043E1,-1.816496968E0,1.341872215E0,8.471953869E-1,2.412057690E0
1.462896459E1,-1.821897626E0,1.383078575E0,8.539670706E-1,2.441613618E0
1.463895730E1,-1.779999375E0,1.477064133E0,6.608957052E-1,2.405597506E0
1.464896042E1,-1.711594343E0,2.321328163E0,6.691295505E-1,2.960718493E0
1.465895912E1,-1.608818889E0,2.421688080E0,6.786709428E-1,2.985542768E0
1.466896017E1,-4.264755249E-1,3.194058418E0,-3.650126457E-1,3.243011684E0
1.467896459E1,-3.645812869E-1,3.289113998E0,-4.740203023E-1,3.343035396E0
1.468899126E1,-5.032590628E-1,3.380730629E0,-6.054415107E-1,3.471191250E0
1.469897178E1,-4.428898394E-1,3.420470238E0,-1.325240135E0,3.694865285E0
1.470902068E1,1.265351415E0,3.365783691E0,-1.410560608E0,3.862550361E0
1.471896100E1,1.368169069E0,3.189674377E0,-1.515806794E0,3.787291839E0
1.472896459E1,2.035206795E0,1.759006500E0,-2.190253496E0,3.468916393E0
1.473896251E1,2.149823904E0,8.086643219E-1,-2.209874153E0,3.187353852E0
1.474896329E1,2.809521675E0,-4.543008804E-1,-2.202370644E0,3.598643881E0
1.475895990E1,2.823760986E0,-4.301128387E-1,-2.145958424E0,3.572640581E0
1.476896121E1,2.838341475E0,-4.039001465E-1,-2.026774883E0,3.511001863E0
1.477896642E1,3.481349468E0,-4.558591843E-1,-1.785538912E0,3.939003798E0
1.478895964E1,3.450642824E0,9.306364059E-1,-1.022875786E0,3.717431222E0
1.479895912E1,3.401068926E0,1.808921814E0,-9.170060158E-1,3.959844441E0
1.480896068E1,3.346261978E0,2.584217072E0,-8.484922647E-1,4.312259990E0
1.481897329E1,3.272344351E0,2.716443062E0,-8.519860506E-1,4.337416361E0
1.482896381E1,3.137274504E0,3.330826759E0,-9.039103985E-1,4.664113230E0
1.483896017E1,2.928975582E0,3.319857597E0,-1.554526925E0,4.692217641E0
1.484895886E1,1.994666100E0,3.229186058E0,-1.537058830E0,4.094982942E0
1.485897449E1,1.066816807E0,2.387620926E0,-1.545064092E0,3.037442153E0
1.486896022E1,-2.654695511E-2,2.251253128E0,-1.535415530E0,2.725132334E0
1.487895256E1,-1.621707201E0,1.307515144E0,-1.508753896E0,2.572133048E0
1.488897178E1,-1.659611821E0,1.228504181E0,-1.447986960E0,2.521943726E0
1.489895813E1,-3.477558851E0,1.151372910E0,-1.313622713E0,3.891616601E0
1.490896095E1,-3.706459522E0,1.073647499E0,-6.623010635E-1,3.915252717E0
1.491896225E1,-4.616250515E0,-2.338752747E-1,-5.755310059E-1,4.657864575E0
1.492893860E1,-4.650091648E0,-3.087177277E-1,-5.075849295E-1,4.687888803E0
1.493896251E1,-4.577369690E0,-2.894878387E-1,-4.406870604E-1,4.607637309E0
1.494895912E1,-3.475816250E0,-2.569274902E-1,-3.753104210E-1,3.505448366E0
1.495896095E1,-3.184015751E0,-1.780552864E0,-3.197946548E-1,3.662047709E0
1.496896199E1,-1.504359007E0,-2.465002060E0,-2.717641592E-1,2.900549420E0
1.497896589E1,-1.353103757E0,-3.140087128E0,-2.192145586E-1,3.426235831E0
1.498896303E1,-1.205943227E0,-3.829627991E0,-1.784111261E-1,4.018977500E0
1.499896017E1,-1.062229156E0,-3.973554134E0,-1.420898438E-1,4.115537968E0
1.500895938E1,3.328441381E-1,-4.870674133E0,-9.478223324E-2,4.882953553E0
1.501895938E1,4.788416624E-1,-4.962106228E0,-4.397690296E-2,4.985350692E0
1.502896485E1,5.832751989E-1,-5.611742973E0,1.742231846E-2,5.642000770E0
1.503896985E1,6.732143164E-1,-5.671909809E0,5.553901196E-2,5.711992908E0
1.504896933E1,7.356060743E-1,-5.741244793E0,7.413041592E-2,5.788652986E0
1.505897324E1,7.734078765E-1,-5.818415642E0,6.642341614E-2,5.869968688E0
1.506894714E1,7.819156051E-1,-5.879227161E0,2.332448959E-2,5.931041060E0
1.507896954E1,7.846428156E-1,-5.928012848E0,-5.512797832E-2,5.979969880E0
1.508895761E1,7.927823663E-1,-5.947371483E0,-9.995423555E-1,6.082665235E0
1.509896407E1,7.984116077E-1,-5.896005630E0,-1.697458267E0,6.187221352E0
1.510896225E1,7.749840021E-1,-5.729743004E0,-2.613182068E0,6.345019749E0
1.511895704E1,7.153023481E-1,-4.287297249E0,-3.734585762E0,5.730593858E0
1.512896563E1,-1.658238173E-1,-6.412792206E-2,-6.158254623E0,6.160820557E0
1.513895990E1,-1.214907885E0,9.910640717E-1,-7.780162811E0,7.936569948E0
1.514895626E1,-1.229184628E0,2.715340614E0,-7.659814835E0,8.219290286E0
1.515896277E1,-1.442215443E0,4.062066078E0,-7.607704639E0,8.744000005E0
1.516896251E1,-2.911690712E0,4.909425735E0,-7.426054955E0,9.366253042E0
1.517896433E1,-3.017488480E0,5.010021210E0,-7.212489605E0,9.285771672E0
1.518896095E1,-3.079974413E0,4.985844612E0,-6.982908249E0,9.116243552E0
1.519896043E1,-3.052180290E0,3.944822311E0,-6.725659370E0,8.373286186E0
1.520895964E1,-2.898974657E0,2.574945450E0,-5.077821255E0,6.388948805E0
1.521908126E1,-2.685450792E0,1.297876358E0,-3.891572714E0,4.903107911E0
1.522898522E1,-1.183364153E0,3.536930084E-1,-2.830399990E0,3.088140794E0
1.523898746E1,-1.076516271E0,4.414958954E-1,-1.900013208E0,2.227971297E0
1.524896517E1,-9.753548503E-1,5.270681381E-1,-9.848031998E-1,1.482887470E0
1.525896147E1,5.956819057E-1,5.103397369E-1,7.183551788E-2,7.876826274E-1
1.526896303E1,1.567639828E0,2.226188660E0,1.069036961E0,2.925106938E0
1.527896824E1,2.600334883E0,3.899898529E0,1.236331463E0,4.847624730E0
1.528896355E1,3.419424534E0,5.635632515E0,1.305805922E0,6.719966301E0
1.529896147E1,3.531835079E0,6.736341476E0,1.362484932E0,7.727128878E0
1.530896303E1,3.514338017E0,6.701657295E0,2.327476501E0,7.917065685E0
1.531895886E1,3.335364342E0,5.681422234E0,4.238457203E0,7.833756018E0
1.532896433E1,2.187408447E0,4.244287491E0,4.188861847E0,6.351794675E0
1.533896459E1,1.313766718E0,2.333889008E0,4.134544849E0,4.926203609E0
1.534896355E1,4.475240707E-1,3.298473358E-1,3.882852316E0,3.922450658E0
1.535895938E1,-2.954815626E-1,-2.384621143E0,5.079430580E0,5.619105122E0
1.536896095E1,-1.383842826E0,-4.053414822E0,5.756125450E0,7.174829119E0
1.537896928E1,-1.410961628E0,-4.915032864E0,5.722389221E0,7.674249095E0
1.538895990E1,-1.434021711E0,-4.972530365E0,6.364130974E0,8.202721472E0
1.539897818E1,-1.643872976E0,-4.881643295E0,6.245915890E0,8.095938792E0
1.540897694E1,-1.632563353E0,-3.536880493E0,6.107855320E0,7.244355274E0
1.541900178E1,-1.603679419E0,-2.107095242E0,5.854442596E0,6.425428869E0
1.542896907E1,-1.552189946E0,1.330060959E-1,4.697545052E0,4.949132627E0
1.543895709E1,-1.468000531E0,1.045274734E-1,3.690711260E0,3.973323691E0
1.544896902E1,-1.584095359E0,1.957938194E0,2.376365662E0,3.462657049E0
1.545897657E1,-1.499593377E0,2.044158936E0,2.266143322E0,3.400407565E0
1.546897240E1,-1.416010141E0,2.043575287E0,4.132163525E-1,2.520323874E0
1.547896876E1,-1.333077550E0,1.932987213E0,-5.963945389E-1,2.422647677E0
1.548897058E1,-1.410645723E0,-1.858692169E-1,-8.790760040E-1,1.672496142E0
1.549896902E1,-1.328565955E0,-1.893062592E-1,-9.314264059E-1,1.633548134E0
1.550897006E1,-1.245355606E0,-1.842088699E-1,-8.823783398E-1,1.537346749E0
1.551896980E1,2.792536020E-1,-1.404494286E0,-2.339617014E-1,1.450973759E0
1.552896615E1,4.207459688E-1,-1.407317162E0,-1.477274895E-1,1.476276456E0
1.553897006E1,1.089902520E0,-1.359836578E0,-3.410232067E-2,1.743045034E0
1.554896928E1,1.157891989E0,-1.293564796E0,6.621989012E-1,1.858098793E0
1.555896876E1,1.180845857E0,-1.205954552E0,7.094110250E-1,1.830843336E0
1.556903412E1,1.153236628E0,-1.719198227E-1,1.769052029E0,2.118739301E0
1.557896220E1,1.034375429E0,-1.474771500E-1,1.813935518E0,2.093333252E0
1.558894839E1,3.067867756E-1,-2.224588394E-1,1.659103751E0,1.701831754E0
1.559894501E1,1.792744398E-1,-1.982059479E-1,1.700351477E0,1.721226326E0
1.560896152E1,-1.143996477E0,-1.784849167E-1,1.715563774E0,2.069720722E0
1.561896746E1,-1.125129104E0,-1.589012146E-1,1.730223894E0,2.069985464E0
1.562896303E1,-1.106168389E0,-1.452426910E-1,1.708788633E0,2.040750484E0
1.563896954E1,-1.286030889E0,-2.307405472E-1,1.489883304E0,1.981632889E0
1.564897371E1,-1.265124321E0,-2.157278061E-1,1.472835183E0,1.953540762E0
1.565896902E1,-1.192436576E0,-1.818828583E-1,1.496089697E0,1.921788423E0
1.566901225E1,-1.112364888E0,-1.731443405E-1,4.012734890E-1,1.195138076E0
1.567895938E1,-1.233137965E0,-2.634248734E-1,3.493911028E-1,1.308470882E0
1.568896537E1,-1.153730512E0,-2.531499863E-1,2.948086262E-1,1.217411654E0
1.569896355E1,-1.075802803E0,-2.421712875E-1,2.429587841E-1,1.129171189E0
1.570896042E1,-9.976817966E-1,-2.305459976E-1,1.901347637E-1,1.041475709E0
1.571895834E1,-9.209578633E-1,-2.183370590E-1,1.352993250E-1,9.561068793E-1
1.572895964E1,-1.046594262E0,-3.050317764E-1,9.497749805E-2,1.094269007E0
1.573895938E1,-9.715214968E-1,-2.873840332E-1,9.279644489E-2,1.017376421E0
1.574895605E1,-8.977921009E-1,-2.695589066E-1,9.090518951E-2,9.417836344E-1
1.575897501E1,-8.253358006E-1,-2.515430450E-1,8.956670761E-2,8.674533316E-1
1.576898902E1,-7.541489601E-1,-2.333583832E-1,1.033207178E-1,7.961607625E-1
1.577897553E1,-8.837133646E-1,-3.147983551E-1,1.397824287E-1,9.484653091E-1
1.578896251E1,-8.144890666E-1,-2.961273193E-1,1.098774195E0,1.399424367E0
1.579896042E1,-7.463681102E-1,-2.773418427E-1,1.136569500E0,1.387722624E0
1.580896173E1,-6.794170141E-1,9.484395981E-1,1.174207330E0,1.655266747E0
1.581896527E1,-6.135623455E-1,9.943714142E-1,1.211742401E0,1.683316045E0
1.582895938E1,-1.732249975E0,1.058450699E0,1.048979282E0,2.285030720E0
1.583896199E1,-1.870734096E0,1.810793877E0,1.089226723E0,2.822239425E0
1.584895938E1,-1.904972076E0,1.887827873E0,1.089206338E0,2.894681872E0
1.585895886E1,-1.905450106E0,2.566646576E0,1.085931659E0,3.376042405E0
1.586898204E1,-1.854312897E0,2.652567863E0,-6.787585616E-1,3.306857386E0
1.587896069E1,-1.722317219E0,3.305113792E0,-8.240703344E-1,3.816968129E0
1.588896016E1,-4.617691934E-1,3.366272926E0,-1.674125195E0,3.787838351E0
1.589896121E1,-3.603432477E-1,3.408580780E0,-1.802911758E0,3.872823389E0
1.590896147E1,1.020501733E0,3.395500183E0,-1.908075929E0,4.026363003E0
1.591895886E1,1.898737788E0,3.290009499E0,-2.002326012E0,4.294028079E0
1.593005235E1,2.652559757E0,2.479256630E0,-2.109318733E0,4.199048966E0
1.593895522E1,2.852364540E0,2.331758499E0,-2.144064426E0,4.262639257E0
1.594912063E1,3.811713934E0,1.458864212E0,-2.128479719E0,4.603028766E0
1.595895787E1,3.887590408E0,1.405280113E0,-2.017342806E0,4.599765578E0
1.596898881E1,3.893056870E0,1.404329300E0,-1.843606710E0,4.530664220E0
1.597895756E1,3.816346645E0,1.499031067E0,-1.034581542E0,4.228706046E0
1.598895735E1,3.716573238E0,2.357998848E0,-9.180454016E-1,4.496207576E0
1.599896407E1,3.555837631E0,3.053404808E0,-8.124461174E-1,4.756819407E0
1.600896147E1,3.372670174E0,3.185282707E0,-7.605634928E-1,4.700998495E0
1.601896277E1,2.386089563E0,3.327104568E0,-9.158518314E-1,4.195453824E0
1.602896173E1,2.136093378E0,3.293286324E0,-1.617095232E0,4.245424209E0
1.603895834E1,1.021989226E0,3.176970482E0,-1.647380948E0,3.721755958E0
1.604896095E1,1.431729794E-1,2.175289154E0,-1.717982173E0,2.775579967E0
1.605896017E1,-1.393564582E0,1.496024132E0,-1.796837211E0,2.721899044E0
1.606898126E1,-1.439027667E0,1.376686096E0,-1.843868136E0,2.714021912E0
1.607895834E1,-1.477347612E0,6.782217026E-1,-1.824361324E0,2.443529187E0
1.608896016E1,-2.827978373E0,-2.991247177E-1,-1.712093711E0,3.319367733E0
1.609895938E1,-2.941581726E0,-2.658128738E-1,-1.548332453E0,3.334800282E0
1.610898188E1,-2.999442577E0,-3.375597000E-1,-8.153142929E-1,3.126553969E0
1.611897527E1,-2.978882313E0,-3.122129440E-1,-7.319476604E-1,3.083336526E0
1.612899334E1,-2.852538824E0,-2.925872803E-1,-6.316320896E-1,2.936246610E0
1.613896100E1,-2.691737175E0,-2.724504471E-1,-5.247499943E-1,2.755910162E0
1.614896225E1,-1.277048349E0,-2.508487701E-1,-4.239584208E-1,1.368765259E0
1.615896068E1,-1.388432145E0,-1.517032623E0,-3.222115040E-1,2.081574417E0
1.616898543E1,-1.301862597E0,-1.675747871E0,-2.254258394E-1,2.133962033E0
1.617896068E1,-1.217224836E0,-2.853195190E0,-1.317111254E-1,3.104787741E0
1.618896016E1,-1.095940351E0,-3.681077003E0,-1.466977596E-2,3.840784863E0
1.619895990E1,-1.216155767E0,-4.714843750E0,5.675041676E-2,4.869497618E0
1.620896068E1,-1.136677980E0,-4.845522881E0,1.189630032E-1,4.978481798E0
1.621896329E1,-1.064292073E0,-5.793364048E0,1.740682125E-1,5.892884213E0
1.622895782E1,-9.936441779E-1,-5.889831066E0,2.075866461E-1,5.976665538E0
1.623895964E1,3.250638247E-1,-6.585568905E0,2.287940979E-1,6.597554928E0
1.624895990E1,4.258244634E-1,-6.633419037E0,2.324528694E-1,6.651135913E0
1.625896095E1,5.331653357E-1,-6.697223663E0,2.124985456E-1,6.721772512E0
1.626898308E1,1.163912296E0,-6.749065399E0,1.781558990E-1,6.851008329E0
1.627898282E1,1.225106597E0,-6.771843910E0,1.032058001E-1,6.882543684E0
1.628895824E1,1.280064344E0,-6.743072987E0,-7.273998260E-1,6.901935130E0
1.629897063E1,1.277163863E0,-6.626589775E0,-8.384475708E-1,6.800428950E0
1.630894522E1,1.230401993E0,-5.802756310E0,-2.008610725E0,6.262618214E0
1.631897292E1,1.125264168E0,-4.865925789E0,-3.016916037E0,5.834829526E0
1.632895990E1,9.086697102E-1,-3.619137764E0,-4.242851257E0,5.650276594E0
1.633896303E1,-1.685096025E-1,-2.141349792E0,-5.514427662E0,5.917996862E0
1.634896277E1,-1.418292999E0,1.727485657E-2,-7.509213448E0,7.641998433E0
1.635895990E1,-1.450384974E0,6.711101532E-2,-7.391515255E0,7.532769625E0
1.636898204E1,-2.887628317E0,3.430125237E0,-7.204041481E0,8.485421032E0
1.637896251E1,-3.026152611E0,4.203655243E0,-7.006665707E0,8.713304847E0
1.638896355E1,-3.125339031E0,4.328944206E0,-6.876718521E0,8.706133448E0
1.639896173E1,-3.093864441E0,4.377781868E0,-6.626001358E0,8.522961062E0
1.640895912E1,-2.941969872E0,4.351354599E0,-4.990056038E0,7.245007442E0
1.641896069E1,-1.327472210E0,3.589978218E0,-4.065299988E0,5.583618009E0
1.642895964E1,-1.204856634E0,3.534474373E0,-3.727570534E0,5.276264842E0
1.643895834E1,-1.288447261E0,2.981066704E0,-2.773458958E0,4.270705987E0
1.644895938E1,2.217205763E-1,3.022619247E0,-2.543429852E0,3.956567014E0
1.645895761E1,1.228235364E0,3.116923332E0,-1.695014477E0,3.754576840E0
1.646901058E1,2.221200943E0,3.275667191E0,-1.436605930E0,4.210411592E0
1.647897360E1,3.086627245E0,4.415530205E0,-2.321486473E-1,5.392408343E0
1.648897225E1,3.278602362E0,5.255501747E0,-5.321073532E-2,6.194543037E0
1.649896173E1,4.054421902E0,5.362809181E0,8.997142315E-1,6.782886183E0
1.650896016E1,4.018850327E0,5.404016495E0,1.670234680E0,6.938604767E0
1.651896068E1,3.892060041E0,5.313685417E0,2.679381609E0,7.110729209E0
