"Time (s)","Linear Acceleration x (m/s^2)","Linear Acceleration y (m/s^2)","Linear Acceleration z (m/s^2)","Absolute acceleration (m/s^2)"
1.052545430E-1,0.000000000E0,0.000000000E0,0.000000000E0,0.000000000E0
1.152449070E-1,1.999999955E-2,-4.184770584E-2,3.237800598E-1,3.270852452E-1
1.252475120E-1,-9.333332628E-2,-8.326196671E-2,2.316212654E-1,2.632338798E-1
1.352462090E-1,-3.999999911E-2,-1.243038177E-1,1.892375946E-1,2.299180425E-1
1.452454280E-1,-8.735485673E-1,-2.122588158E-1,1.144480705E-1,9.062225252E-1
1.552535010E-1,-8.299608231E-1,-2.172057629E-1,2.666902542E-2,8.583265976E-1
1.652540220E-1,-8.245065212E-1,-2.258515358E-1,-6.193113327E-2,8.571204029E-1
1.752396990E-1,-1.330195546E0,-2.282154560E-1,-1.308422089E-1,1.355958026E0
1.852541780E-1,-1.210041761E0,-2.517971992E-1,-1.716594696E-1,1.247826057E0
1.952598030E-1,-1.098029375E0,-3.189787865E-1,-1.769342422E-1,1.157031417E0
2.052433970E-1,-9.597837329E-1,-9.887299538E-1,-1.221494675E-1,1.383362652E0
2.152607930E-1,-7.949536443E-1,-1.009206295E0,-2.765893936E-2,1.284995587E0
2.252402200E-1,-4.622465372E-2,-1.641319990E0,6.008110046E-1,1.748439845E0
2.352516780E-1,9.318443537E-1,-1.652456284E0,6.855368614E-1,2.017153057E0
2.452532410E-1,9.111040831E-1,-2.338629723E0,1.434949398E0,2.891086198E0
2.552511570E-1,8.951567411E-1,-2.291481495E0,1.453566551E0,2.857454943E0
2.652524590E-1,6.943147182E-1,-3.254425526E0,3.087234974E0,4.539204579E0
2.752514180E-1,-2.368262410E-1,-3.045245171E0,2.943696022E0,4.242045625E0
2.852389180E-1,-8.428569436E-1,-2.854982853E0,2.815511703E0,4.097370019E0
2.952376160E-1,-8.978028893E-1,-2.680936098E0,2.700486660E0,3.909743801E0
3.052394390E-1,-1.502070308E0,-2.520893574E0,2.596828461E0,3.918499416E0
3.152347510E-1,-1.509909391E0,-2.564332724E0,2.407401085E0,3.827689730E0
3.252254280E-1,-1.478210211E0,-2.419152260E0,2.326258659E0,3.667271797E0
3.352373550E-1,-1.446441412E0,-2.283986092E0,3.840835094E0,4.696892531E0
3.452357930E-1,-1.391200781E0,-2.157679081E0,3.712424278E0,4.513658455E0
3.552559490E-1,-1.306948423E0,-2.039246559E0,3.568230629E0,4.312645422E0
3.652541780E-1,-1.179558754E0,-2.120701790E0,3.416004181E0,4.190205186E0
3.752261050E-1,-5.324398279E-1,-2.008953571E0,3.281229019E0,3.884050785E0
3.852363660E-1,-4.249411821E-1,-1.903321743E0,3.133265495E0,3.690604467E0
3.952404800E-1,1.899445057E-1,-1.803214669E0,2.950912476E0,3.463458748E0
4.052399590E-1,2.635263205E-1,-1.708114147E0,1.443800926E0,2.252034897E0
4.152383970E-1,1.192591310E0,-1.811504722E0,1.322473526E0,2.540228260E0
4.252391780E-1,1.196338654E0,-1.719401598E0,1.302989006E0,2.466849890E0
4.352404800E-1,1.240884781E0,-1.593862772E0,1.305684090E0,2.405203633E0
4.452399590E-1,1.246266365E0,-1.511866450E0,1.289855003E0,2.345771930E0
4.552383970E-1,1.057680368E0,-1.627870083E0,1.178016663E0,2.270764635E0
4.652383970E-1,1.069534779E0,-1.547155380E0,1.167297363E0,2.213634466E0
4.752410010E-1,1.081796408E0,-2.717451572E0,-1.504764557E-1,2.928731753E0
4.852420430E-1,1.094435453E0,-2.761960983E0,-3.026638031E-1,2.986272394E0
4.952407410E-1,1.107425213E0,-3.480351448E0,-1.420028210E0,3.918637125E0
5.052376160E-1,9.253920913E-1,-3.427142620E0,-2.098897934E0,4.123958002E0
5.152404800E-1,9.434513450E-1,-3.344762802E0,-2.149819851E0,4.086473300E0
5.252386570E-1,9.615969062E-1,-3.199346542E0,-2.164402008E0,3.980593293E0
5.353113660E-1,9.798230529E-1,-2.435675144E0,-2.109547138E0,3.367900793E0
5.452342820E-1,9.981246591E-1,-2.230738640E0,-1.976206303E0,3.142902968E0
5.552640740E-1,8.206637502E-1,-1.007391095E0,-1.278843403E0,1.823119924E0
5.652376680E-1,8.430991173E-1,-9.476484060E-1,-1.132384777E0,1.700337880E0
5.752389180E-1,8.654371500E-1,4.565783739E-1,-3.730673790E-1,1.047198425E0
5.852364180E-1,8.876835108E-1,6.027066112E-1,-3.188033104E-1,1.119318018E0
5.952391780E-1,9.098433852E-1,1.482295990E0,-2.811994553E-1,1.761842649E0
6.052386570E-1,7.356954217E-1,1.531634450E0,-2.627849579E-1,1.719362607E0
6.152378760E-1,7.613306642E-1,1.595013499E0,-2.897801399E-1,1.790995526E0
6.252368340E-1,-9.231501818E-1,2.299250126E0,-1.048500538E0,2.690373724E0
6.352368340E-1,-1.011322737E0,2.358505249E0,-1.121550560E0,2.800570718E0
6.452404800E-1,-1.747313261E0,2.934408903E0,-1.216001511E0,3.625261220E0
6.552386570E-1,-1.811324596E0,2.904420853E0,-1.852418423E0,3.892044616E0
6.652378760E-1,-1.858258843E0,2.868474007E0,-1.660521030E0,3.799815673E0
6.752404800E-1,-1.851867318E0,2.808228254E0,-4.998240471E-1,3.400791462E0
6.852402200E-1,-1.799625635E0,2.732054710E0,-3.380546570E-1,3.288929357E0
6.952394390E-1,-1.708026171E0,2.632693768E0,5.712375641E-1,3.189787176E0
7.052386570E-1,-1.577876806E0,2.503915548E0,5.983438492E-1,3.019487316E0
7.153523550E-1,-7.454417944E-1,1.837831974E0,5.820302963E-1,2.066898425E0
7.252385010E-1,-6.189968586E-1,1.729588628E0,5.669898987E-1,1.922527367E0
7.352670950E-1,1.126616478E0,1.609246492E0,5.434169769E-1,2.038195519E0
7.452228760E-1,9.524014592E-1,9.751724005E-1,-4.107966423E-1,1.423651513E0
7.552380320E-1,9.780188203E-1,9.497743845E-1,-1.164237976E0,1.792775016E0
7.652363140E-1,1.003475666E0,9.408547878E-1,-1.271565437E0,1.873245794E0
7.752425640E-1,1.028778791E0,9.413452148E-1,-1.333121300E0,1.929178326E0
7.852417820E-1,1.053934693E0,9.693244696E-1,-1.292233467E0,1.928791227E0
7.952410010E-1,8.816890121E-1,1.016168475E0,-1.143661499E0,1.765767682E0
8.052407410E-1,9.488664865E-1,1.865429759E0,8.781433105E-3,2.092905375E0
8.152360530E-1,9.758551121E-1,1.838905454E0,1.734368324E0,2.709594057E0
8.252381370E-1,1.002662182E0,1.735815763E0,1.731584549E0,2.648919188E0
8.352378760E-1,8.318588138E-1,1.044760585E0,1.630410194E0,2.107546243E0
8.452376160E-1,1.892810583E0,9.150359631E-1,1.629518509E0,2.659953625E0
8.552363140E-1,1.962979555E0,4.970777035E-2,1.628899574E0,2.551288580E0
8.652355320E-1,2.588761330E0,-7.694745064E-2,2.306280136E-1,2.600152959E0
8.752342300E-1,2.611359835E0,-1.586555004E0,-6.288557053E-1,3.119585945E0
8.852386570E-1,2.617608547E0,-1.725512266E0,-1.650686264E0,3.543166977E0
8.953696990E-1,2.595210791E0,-1.665446520E0,-2.553006172E0,4.003332571E0
9.052475640E-1,2.514170170E0,-1.606323600E0,-3.468843937E0,4.575391285E0
9.152556890E-1,2.421338558E0,-1.548110604E0,-4.289422512E0,5.163203690E0
9.252394910E-1,2.318454027E0,-1.490775943E0,-5.116792679E0,5.811988412E0
9.352394910E-1,2.211877108E0,-2.623991966E0,-5.923858643E0,6.846154789E0
9.452391780E-1,2.097410440E0,-2.697134256E0,-6.619815350E0,7.449538175E0
9.552363140E-1,5.936519504E-1,-3.335603237E0,-6.665845394E0,7.477443842E0
9.652402200E-1,6.266887784E-1,-3.368279457E0,-7.621181011E0,8.355862932E0
9.752386570E-1,6.594421268E-1,-3.436013222E0,-7.498776913E0,8.274823621E0
9.852436050E-1,1.621892929E0,-4.245311260E0,-7.537725925E0,8.801733721E0
9.952438660E-1,1.696929336E0,-4.288154602E0,-7.418802738E0,8.735357642E0
1.005237876E0,2.332256556E0,-4.334649086E0,-7.301940441E0,8.806073901E0
1.015241782E0,2.394587994E0,-4.879527092E0,-7.187075138E0,9.010986924E0
1.025238918E0,3.209969282E0,-4.874664307E0,-7.272104740E0,9.324685638E0
1.035241001E0,4.128375530E0,-4.884166718E0,-7.159053326E0,9.599511111E0
1.045237876E0,5.300800800E0,-4.901299477E0,-7.047863007E0,1.008928137E1
1.055237355E0,6.593552589E0,-4.915362835E0,-6.938478470E0,1.076002839E1
1.065238657E0,7.881691456E0,-4.902514458E0,-6.830846310E0,1.152458978E1
1.075234907E0,9.884812355E0,-4.842118740E0,-6.922973633E0,1.300319934E1
1.085258397E0,9.809573174E0,-4.740631104E0,-4.996733665E0,1.198618607E1
1.095238189E0,1.140972710E1,-4.608541489E0,-4.091102600E0,1.296756136E1
1.105247564E0,1.280325890E1,-3.946307182E0,-3.254113197E0,1.378716909E1
1.115237147E0,1.405634499E1,-3.842649221E0,-3.065571547E0,1.489108849E1
1.125239959E0,1.509867764E1,-3.690308571E0,-2.013166428E0,1.567294748E1
1.135240480E0,1.589643669E1,-2.886402607E0,-1.906548500E0,1.626846479E1
1.145238657E0,1.645344543E1,-2.805630684E0,-1.821802616E0,1.679006834E1
1.155240220E0,1.643667030E1,-2.747220516E0,-1.770706654E0,1.675848302E1
1.165240480E0,1.713948441E1,-2.677048683E0,-1.867705822E0,1.744754540E1
1.175242043E0,1.700300789E1,-2.615710735E0,-2.712827682E0,1.741561523E1
1.185238657E0,1.682352448E1,-2.559839725E0,-3.403491497E0,1.735417845E1
1.195242824E0,1.658272171E1,-2.533102989E0,-4.120396614E0,1.727370656E1
1.205239439E0,1.566199589E1,-2.512230873E0,-4.769626617E0,1.656377847E1
1.215233762E0,1.541636181E1,-2.496486187E0,-4.873140335E0,1.635983348E1
1.225237095E0,1.454711914E1,-2.480360031E0,-6.422369480E0,1.609402656E1
1.235237876E0,1.430766010E1,-2.468801975E0,-6.329183102E0,1.583864513E1
1.245237095E0,1.326735783E1,-2.475833178E0,-6.237206459E0,1.486792783E1
1.255237199E0,1.300010490E1,-2.513606548E0,-6.146409512E0,1.459792092E1
1.265256834E0,1.169309044E1,-2.578045130E0,-7.793514252E0,1.428683118E1
1.275240793E0,1.143506718E1,-3.232162714E0,-7.864457130E0,1.424981835E1
1.285227772E0,1.025237846E1,-3.283811808E0,-8.743090630E0,1.386853698E1
1.295245168E0,1.002786827E1,-3.359641075E0,-8.799627304E0,1.375786215E1
1.305249074E0,9.038454056E0,-4.017629147E0,-9.535230637E0,1.373883616E1
1.315243866E0,8.878506660E0,-4.043390274E0,-9.533597946E0,1.364061491E1
1.325227459E0,8.692565918E0,-4.096130371E0,-9.518582344E0,1.352561999E1
1.335246730E0,6.938030243E0,-4.167408943E0,-9.457946777E0,1.244814517E1
1.345250897E0,6.925166130E0,-4.910149574E0,-9.205500603E0,1.252232950E1
1.355248553E0,6.793698788E0,-4.988117695E0,-7.951200485E0,1.158694310E1
1.365249074E0,5.677760124E0,-6.075988293E0,-5.527193069E0,9.985211915E0
1.375249595E0,4.443276405E0,-6.122352123E0,-5.446547031E0,9.321522156E0
1.385245168E0,3.558504105E0,-6.162158966E0,-3.507603168E0,7.933374728E0
1.395249074E0,3.377309799E0,-6.960507870E0,-2.406498909E0,8.102229834E0
1.405247251E0,3.494624376E0,-8.032118797E0,-3.604621887E0,9.472097490E0
1.415246730E0,4.665992737E0,-8.109726906E0,-5.377590656E0,1.079155410E1
1.425249855E0,4.777651310E0,-8.038761139E0,-6.439277172E0,1.135393866E1
1.435285532E0,6.585923195E0,-7.975210667E0,-7.402898788E0,1.271932703E1
1.445246053E0,6.559403419E0,-7.913325310E0,-8.849200249E0,1.356299509E1
1.455242095E0,6.434092522E0,-7.901696682E0,-1.023808670E1,1.444481832E1
1.465241157E0,7.809432030E0,-7.924046516E0,-1.134062195E1,1.588670664E1
1.475236626E0,8.435089111E0,-7.873632908E0,-1.229748917E1,1.686336453E1
1.485236887E0,7.586708069E0,-7.058544636E0,-1.113269615E1,1.520914578E1
1.495248032E0,6.305394173E0,-6.894990444E0,-9.600614548E0,1.339666707E1
1.505240220E0,6.183331013E0,-6.883741379E0,-8.593133926E0,1.262780379E1
1.515242043E0,6.161697388E0,-6.800242424E0,-8.398138046E0,1.243939445E1
1.525238657E0,4.453728676E0,-5.989071369E0,-7.638563633E0,1.067952852E1
1.535237095E0,4.368642330E0,-5.861715794E0,-7.522018433E0,1.048930451E1
1.545246209E0,4.223040581E0,-5.751315117E0,-7.419721603E0,1.029388003E1
1.555242824E0,3.412534952E0,-5.685006618E0,-7.290928841E0,9.855066637E0
1.565238137E0,3.346987486E0,-5.666854858E0,-6.476741791E0,9.233837417E0
1.575234751E0,3.258193970E0,-5.636991024E0,-6.367964745E0,9.107275703E0
1.585236834E0,3.144394875E0,-5.621364594E0,-6.244176388E0,8.970880547E0
1.595235012E0,2.514410734E0,-5.627905369E0,-6.102579117E0,8.673929447E0
1.605243866E0,2.454437494E0,-5.624489784E0,-5.994378090E0,8.578561501E0
1.615265220E0,2.385830641E0,-5.588068962E0,-5.954321384E0,8.507211395E0
1.625234126E0,2.324401379E0,-5.513247490E0,-5.939446926E0,8.430644664E0
1.635239751E0,2.240013599E0,-5.385606766E0,-5.975762367E0,8.350578245E0
1.645222251E0,2.155232668E0,-4.669597626E0,-6.662038803E0,8.416230204E0
1.655241053E0,2.070177794E0,-4.644585609E0,-6.755815983E0,8.455699922E0
1.665239959E0,1.329627991E0,-4.677979469E0,-7.620951176E0,9.040481145E0
1.675236574E0,1.179019690E0,-4.757291317E0,-7.642778873E0,9.079315889E0
1.685236834E0,2.980422974E-2,-5.547818184E0,-7.622149944E0,9.427425135E0
1.695236314E0,-6.396696568E-1,-5.628396034E0,-7.506116867E0,9.403712544E0
1.705242043E0,-7.879071236E-1,-6.384234428E0,-6.407874107E0,9.079652937E0
1.715236314E0,-6.626341343E-1,-6.372075081E0,-6.342784882E0,9.015173037E0
1.725236053E0,4.228384495E-1,-6.293651104E0,-6.452452660E0,9.023468396E0
1.735237876E0,1.316460609E0,-6.162534714E0,-7.457481384E0,9.763397525E0
1.745236053E0,2.264228106E0,-5.456223488E0,-7.573528290E0,9.604969257E0
1.755241001E0,3.353343964E0,-5.386985779E0,-8.558944702E0,1.065457958E1
1.765237095E0,4.256069183E0,-5.313318253E0,-8.671995163E0,1.102492521E1
1.775238657E0,5.846012115E0,-5.299282074E0,-9.977791786E0,1.272063588E1
1.785237095E0,5.733618736E0,-5.312766552E0,-1.062980652E1,1.319441772E1
1.795254803E0,5.721475124E0,-5.316057205E0,-1.055648422E1,1.313145464E1
1.805238814E0,4.678599834E0,-5.310495853E0,-1.034903717E1,1.253767255E1
1.815238970E0,3.730307579E0,-5.316768646E0,-9.361750603E0,1.139410364E1
1.825223814E0,3.618730068E0,-5.284564972E0,-9.286614418E0,1.128109222E1
1.835235584E0,2.948369026E0,-5.189641476E0,-9.254164696E0,1.101203082E1
1.845238137E0,2.855901718E0,-5.064610481E0,-9.254035950E0,1.092902719E1
1.855243084E0,2.739418030E0,-4.396634102E0,-9.286944389E0,1.063400859E1
1.865237095E0,1.986443996E0,-4.343947887E0,-9.309581757E0,1.046346766E1
1.875242824E0,1.833293438E0,-4.314818859E0,-9.274498940E0,1.039206222E1
1.885241522E0,8.947176933E-1,-4.390890121E0,-8.483013153E0,9.593849486E0
1.895238397E0,8.325972557E-1,-5.025422096E0,-8.290267944E0,9.730191572E0
1.905246470E0,8.072829247E-1,-5.109229088E0,-7.057372570E0,8.749996296E0
1.915237876E0,8.091444969E-1,-5.984611034E0,-6.257580757E0,8.696413110E0
1.925235272E0,8.102598190E-1,-6.766521454E0,-5.433666229E0,8.715908573E0
1.935236834E0,7.960858345E-1,-7.757257462E0,-4.736585140E0,9.123816897E0
1.945236314E0,7.344479561E-1,-8.726743698E0,-4.584731579E0,9.885101569E0
1.955241522E0,6.022434235E-1,-9.476932526E0,-3.923506498E0,1.027467033E1
1.965237876E0,-3.293037415E-2,-9.533048630E0,-3.754552841E0,1.024581708E1
1.975246470E0,-7.579326630E-3,-1.018175030E1,-2.808994532E0,1.056212795E1
1.985234803E0,-9.910583496E-3,-1.020301533E1,-2.755079985E0,1.056844765E1
1.995226991E0,-8.027410507E-2,-1.017144394E1,-2.701504707E0,1.052439278E1
2.005223970E0,-1.951842308E-1,-1.000605202E1,-2.648263454E0,1.035241388E1
2.015233501E0,-1.034551382E0,-8.682305336E0,-2.595351219E0,9.120776856E0
2.025237876E0,-1.108302116E0,-7.351092815E0,-2.741777897E0,7.923651002E0
2.035236834E0,-1.196271420E0,-7.295155525E0,-1.648161173E0,7.574087054E0
2.045239959E0,-2.087628365E0,-7.239667416E0,-1.638507366E0,7.710751122E0
2.055243866E0,-2.242358446E0,-7.184619904E0,-1.604730487E0,7.695589288E0
2.065234751E0,-4.245690823E0,-5.834000587E0,-1.593096137E0,7.389141271E0
2.075236574E0,-4.185567856E0,-5.124412060E0,-2.657327175E0,7.130214930E0
2.085241782E0,-3.009289265E0,-5.024436951E0,-2.665925741E0,6.434900823E0
2.095236314E0,-2.039131880E0,-4.876644611E0,-2.674697399E0,5.923995920E0
2.105244907E0,-1.773262501E0,-4.719013691E0,-2.679317713E0,5.708966064E0
2.115236834E0,-6.549367905E-1,-4.631986141E0,-2.876954317E0,5.491912595E0
2.125236314E0,-4.653191566E-1,-4.617124557E0,-2.873778343E0,5.458293054E0
2.135237355E0,-3.074545860E-1,-4.682209015E0,-2.865952969E0,5.498299373E0
2.145237355E0,-1.950037479E-1,-6.550021172E0,-2.856887341E0,7.148608892E0
2.155259491E0,-1.262099743E-1,-6.456310272E0,-2.846293688E0,7.057000712E0
2.165235324E0,-9.481954575E-2,-6.464193821E0,-3.034139395E0,7.141484045E0
2.175231262E0,-7.330107689E-2,-6.386991501E0,-3.023342848E0,7.066798105E0
2.185233605E0,-4.764556885E-2,-6.311961174E0,-3.010620117E0,6.993350946E0
2.195234022E0,-1.720595360E-2,-6.238248825E0,-2.996681213E0,6.920703920E0
2.205245168E0,1.076340675E-2,-6.167515278E0,-2.981808424E0,6.850513998E0
2.215238137E0,6.235027313E-2,-6.189326763E0,-3.169607878E0,6.953996508E0
2.225234491E0,1.148517132E-1,-6.113345146E0,-3.154710531E0,6.880289117E0
2.235233709E0,1.673946381E-1,-6.040293694E0,-3.137893200E0,6.808784224E0
2.245238918E0,2.262976170E-1,-5.950516701E0,-3.079361439E0,6.703903824E0
2.255243345E0,2.788062096E-1,-5.981907845E0,-3.259325027E0,6.817928864E0
2.265239439E0,3.158619404E-1,-5.915583611E0,-3.237498760E0,6.750947818E0
2.275236314E0,3.638563156E-1,-4.055399895E0,-3.213370800E0,5.186946271E0
2.285236834E0,4.085288048E-1,-3.857788801E0,-3.188128471E0,5.021313909E0
2.295236834E0,4.328510761E-1,-2.666465282E0,-3.161403418E0,4.158349279E0
2.305244126E0,4.537804127E-1,-2.487529278E0,-3.333264112E0,4.183822202E0
2.315235793E0,4.562942982E-1,-1.443518162E0,-3.303646803E0,3.634010370E0
2.325225168E0,4.335803986E-1,-1.304028511E0,-3.272799253E0,3.549605228E0
2.335258449E0,3.753232956E-1,-5.596809387E-1,-3.237850189E0,3.307232102E0
2.345236678E0,-2.862066031E-1,-5.037145615E-1,-3.201943398E0,3.253933635E0
2.355228553E0,-3.010735512E-1,-5.006074905E-1,-3.363822222E0,3.414169457E0
2.365225428E0,-3.292644024E-1,-5.179023743E-1,-3.324062347E0,3.380240880E0
2.375234282E0,-3.481183052E-1,-6.325788498E-1,-1.552956104E0,1.712604746E0
2.385233762E0,-3.619912863E-1,-1.615566254E0,-1.501865983E0,2.235328486E0
2.395236574E0,-3.447359800E-1,-2.423824787E0,-1.506694078E0,2.874699383E0
2.405242043E0,-2.887737751E-1,-3.271086216E0,-1.575487018E0,3.642190916E0
2.415236834E0,-1.723046303E-1,-4.090452194E0,-1.664770126E0,4.419609441E0
2.425242564E0,5.988798141E-1,-5.609892845E0,-1.864347458E0,5.941830207E0
2.435237095E0,6.700880527E-1,-5.583534241E0,-3.298463345E0,6.519565404E0
2.445237616E0,7.519547939E-1,-7.154919147E0,-3.486623764E0,7.994676309E0
2.455242824E0,8.387696743E-1,-8.912906647E0,-3.474669695E0,9.602956261E0
2.465236834E0,9.596927166E-1,-1.048079681E1,-3.462190390E0,1.107947987E1
2.475236314E0,1.079652429E0,-1.178167725E1,-3.448930502E0,1.232350152E1
2.485236834E0,1.176236510E0,-1.286539555E1,-3.434236050E0,1.336771903E1
2.495236314E0,1.230796456E0,-1.377510643E1,-3.615306616E0,1.429471437E1
2.505246991E0,1.235891342E0,-1.444064808E1,-5.232037067E0,1.540889212E1
2.515282147E0,1.285307646E0,-1.447892570E1,-5.318350792E0,1.547824798E1
2.525234803E0,1.345233440E0,-1.433917427E1,-5.918645859E0,1.557086833E1
2.535243918E0,1.428937316E0,-1.314268017E1,-5.915068626E0,1.448309155E1
2.545251626E0,1.507184267E0,-1.191031075E1,-5.874161720E0,1.336536129E1
2.555236157E0,1.577373266E0,-1.085562611E1,-5.805593491E0,1.241119013E1
2.565249334E0,1.645003915E0,-1.004903412E1,-5.689313889E0,1.166436527E1
2.575245949E0,1.669058561E0,-9.848901749E0,-5.533078671E0,1.141935119E1
2.585249334E0,1.669820189E0,-9.100920677E0,-4.770676136E0,1.041030295E1
2.595245168E0,1.614184380E0,-8.981339455E0,-4.680273533E0,1.025548682E1
2.605245428E0,1.219248772E-2,-8.900028229E0,-4.560007095E0,1.000021579E1
2.615246991E0,-1.367168188E0,-8.894292831E0,-4.444661140E0,1.003656348E1
2.625244647E0,-1.294043422E0,-8.941773415E0,-3.031711102E0,9.530012192E0
2.635248032E0,-3.347588301E0,-9.671835899E0,-3.160660982E0,1.071170084E1
2.645248032E0,-4.086379051E0,-9.733986855E0,-3.091650248E0,1.100033159E1
2.655250116E0,-4.143743038E0,-1.058833504E1,-3.024247408E0,1.176560741E1
2.665248814E0,-4.148194790E0,-1.064456367E1,-2.958054304E0,1.180103136E1
2.675247251E0,-4.085468292E0,-1.064580345E1,-2.893689156E0,1.176425175E1
2.685243866E0,-3.901230335E0,-1.057456970E1,-3.051638842E0,1.167705537E1
2.695265480E0,-3.016063452E0,-1.040530586E1,-3.008995056E0,1.124371291E1
2.705244543E0,-2.149790764E0,-9.253908157E0,-2.967134476E0,9.952904275E0
2.715243241E0,-6.281085610E-1,-8.263936043E0,-2.925149918E0,8.788837314E0
2.725228553E0,-4.826298952E-1,-7.304998398E0,-2.884308815E0,7.868619355E0
2.735236626E0,-5.476896167E-1,-6.286114216E0,-3.043273687E0,7.005477185E0
2.745237616E0,6.592135429E-1,-5.201991081E0,-1.920228839E0,5.584133997E0
2.755238657E0,1.555473089E0,-4.081721783E0,-1.219484329E0,4.535095509E0
2.765238137E0,1.650848389E0,-4.051037312E0,-1.128397822E0,4.517685840E0
2.775239699E0,1.687051415E0,-2.144517422E0,-1.025742769E0,2.915003547E0
2.785240480E0,1.696151853E0,-5.925354958E-1,-9.847345352E-1,2.048836627E0
2.795237095E0,1.576509237E0,1.787080765E-1,-1.091260195E0,1.925660085E0
2.805242303E0,7.502915859E-1,8.975095749E-1,-1.836627245E0,2.177535427E0
2.815235532E0,-3.778280616E-1,1.533192635E0,-1.994730830E0,2.544088203E0
2.825237616E0,-6.192364693E-1,1.625804663E0,-3.204917192E0,3.646668180E0
2.835236834E0,-1.760098577E0,2.401381969E0,-3.191801071E0,4.364879888E0
2.845238137E0,-2.618305206E0,2.443861723E0,-3.176625729E0,4.787372274E0
2.855238657E0,-3.460787773E0,2.506693125E0,-3.159222364E0,5.314249559E0
2.865237355E0,-3.736601591E0,3.174963713E0,-3.139069796E0,5.822056785E0
2.875232772E0,-4.801594257E0,3.176729202E0,-3.304304361E0,6.638173179E0
2.885253449E0,-4.933194160E0,3.197543859E0,-3.263150692E0,6.723752211E0
2.895239751E0,-5.026931286E0,3.208464622E0,-3.196517229E0,6.766240151E0
2.905223605E0,-5.029921055E0,3.197108984E0,-4.857104301E0,7.688502707E0
2.915234022E0,-4.441940308E0,3.142410994E0,-5.553012848E0,7.774415234E0
2.925240220E0,-4.330627441E0,3.021355629E0,-6.615120888E0,8.464203934E0
2.935237095E0,-3.311228752E0,2.013562202E0,-8.051357269E0,8.935492290E0
2.945236314E0,-3.222178936E0,1.176777840E0,-9.670295715E0,1.026069503E1
2.955237616E0,-2.622083664E0,2.188305855E-1,-1.122168064E1,1.152602820E1
2.965236053E0,-1.548337936E0,-2.415328026E0,-1.382728577E1,1.412179137E1
2.975237355E0,-4.182269573E-1,-4.387107372E0,-1.444007206E1,1.509759272E1
2.985237876E0,7.940092087E-1,-5.417059898E0,-1.432207012E1,1.533286278E1
2.995237355E0,2.030615330E0,-6.760987282E0,-1.406190681E1,1.573440723E1
3.005239959E0,3.109710217E0,-7.767376423E0,-1.303582191E1,1.548983819E1
3.015238137E0,4.155629158E0,-7.802589417E0,-1.143438148E1,1.445319118E1
3.025236574E0,5.118314743E0,-7.756175518E0,-1.108002090E1,1.446106039E1
3.035234491E0,5.210328579E0,-7.566960335E0,-1.074633694E1,1.413825202E1
3.045242824E0,5.729222298E0,-6.174690723E0,-1.044708157E1,1.341984750E1
3.055233241E0,5.516469002E0,-4.823876381E0,-8.722915649E0,1.139256209E1
3.065257199E0,4.181189060E0,-3.846185207E0,-7.598228931E0,9.487284411E0
3.075243918E0,2.516231060E0,-2.340911865E0,-6.031465530E0,6.941891929E0
3.085234282E0,6.428518295E-1,-2.235692501E0,-4.742405415E0,5.282233292E0
3.095236105E0,-1.286487699E0,-2.298453808E0,-3.483936787E0,4.367580112E0
3.105241001E0,-2.413789272E0,-3.940221310E0,-2.659770489E0,5.331613421E0
3.115237095E0,-4.816058159E0,-6.588249207E0,-1.596492767E0,8.315541651E0
3.125240741E0,-6.185640335E0,-9.280410767E0,4.942081273E-1,1.116388875E1
3.135240220E0,-7.312683105E0,-1.099678802E1,5.111976862E-1,1.321612667E1
3.145235793E0,-7.522244453E0,-1.109501839E1,5.566998720E-1,1.341616597E1
3.155236834E0,-7.461973190E0,-9.914827347E0,3.564710617E-1,1.241418208E1
3.165236834E0,-7.269217491E0,-7.912576675E0,3.349968791E-1,1.075000537E1
3.175237355E0,-6.091942787E0,-5.030613899E0,2.783324420E-1,7.905460902E0
3.185239699E0,-5.283989906E0,-1.463877678E0,2.276522517E-1,5.487742043E0
3.195237616E0,-5.054174423E0,1.432320595E0,1.779341102E-1,5.256223163E0
3.205236834E0,-4.812227249E0,2.871860266E0,-6.975550950E-2,5.604460573E0
3.215236366E0,-3.860754013E0,2.874191761E0,-1.161025167E-1,4.814548746E0
3.225236834E0,-3.614853621E0,1.460542202E0,-1.599681377E-1,3.902043058E0
3.235356730E0,-1.734997034E0,-5.668759346E-1,1.149414301E0,2.157015593E0
3.245241678E0,-1.608857393E0,-3.569602013E0,1.177530766E0,4.088650064E0
3.255251262E0,-5.488166809E-1,-4.615594387E0,1.187539816E0,4.797412022E0
3.265237928E0,4.366892576E-1,-6.024271488E0,1.179839730E0,6.154231573E0
3.275235584E0,1.345947981E0,-6.714279175E0,1.120829701E0,6.938975430E0
3.285234282E0,1.570779443E0,-6.662159443E0,9.775358438E-1,6.914281801E0
3.295236053E0,2.326046705E0,-5.788056374E0,-5.222173929E-1,6.259776423E0
3.305247512E0,2.248628855E0,-3.501950741E0,-7.430073619E-1,4.227534820E0
3.315238657E0,1.335273504E0,-3.487017632E0,-7.775438428E-1,3.814029591E0
3.325226730E0,-1.422429085E0,-4.768762589E-1,-7.686262727E-1,1.685675477E0
3.335237355E0,-1.406238794E0,2.205548286E-1,-7.964867353E-1,1.631117132E0
3.345238918E0,-2.816699505E0,2.638592720E-1,-1.021593690E0,3.007835016E0
3.355240220E0,-2.951443195E0,2.556390762E-1,-1.043784142E0,3.140995639E0
3.365237355E0,-3.024088383E0,2.026939392E-1,-1.063746333E0,3.212125720E0
3.375236574E0,-3.001989365E0,1.075859070E-1,-1.074013114E0,3.190144047E0
3.385238137E0,-2.854038715E0,-5.014896393E-3,-1.077325225E0,3.050605149E0
3.395237616E0,-1.586632371E0,-7.314109802E-1,-1.275101662E0,2.162925923E0
3.405238918E0,-1.510063410E0,-8.145031929E-1,-1.271258831E0,2.135370218E0
3.415361209E0,1.980241537E-1,-1.452851295E0,-1.267018795E0,1.937866631E0
3.425237772E0,3.357006311E-1,-1.565568447E0,-1.261646748E0,2.038492578E0
3.435424282E0,4.409744740E-1,-2.497104645E0,-1.255988240E0,2.829752030E0
3.445236626E0,4.966526031E-1,-3.583440304E0,-1.448626399E0,3.896950944E0
3.455235064E0,4.923801422E-1,-3.554153442E0,-1.441542864E0,3.866845061E0
3.465240220E0,4.299341440E-1,-3.525697231E0,-1.436544061E0,3.831323945E0
3.475240220E0,-1.192251921E0,-3.498078346E0,-2.897948980E0,4.696394899E0
3.485238137E0,-1.114863276E0,-4.522701263E0,-3.006376028E0,5.544009710E0
3.495235793E0,-1.236750484E0,-5.439370632E0,-3.101094723E0,6.382248280E0
3.505237616E0,-1.116872907E0,-6.403782845E0,-3.161737442E0,7.228583780E0
3.515236834E0,-1.039097548E0,-6.520364761E0,-3.160692453E0,7.320167834E0
3.525237095E0,5.621659756E-1,-7.392864704E0,-3.152146339E0,8.056457389E0
3.535236574E0,7.016266584E-1,-7.474599361E0,-3.161117077E0,8.145831864E0
3.545236834E0,1.704314709E0,-7.543378830E0,-3.222324371E0,8.377984671E0
3.555239439E0,1.798520803E0,-7.552226543E0,-3.904201746E0,8.689855817E0
3.565237095E0,1.900331259E0,-7.493684769E0,-3.988121510E0,8.698947263E0
3.575235793E0,2.484636307E0,-7.396346569E0,-4.076718330E0,8.803351208E0
3.585237095E0,2.474771500E0,-7.299164295E0,-4.721178055E0,9.038352483E0
3.595339126E0,2.444759846E0,-7.222496986E0,-4.735843658E0,8.976053062E0
3.605235480E0,2.367885828E0,-7.182226181E0,-4.742721558E0,8.926626686E0
3.615257616E0,2.283422232E0,-7.213768959E0,-4.703584671E0,8.909331537E0
3.625232459E0,2.162539482E0,-7.333226204E0,-4.582114697E0,8.913392096E0
3.635234543E0,1.332272053E0,-8.434786797E0,-3.714394808E0,9.312212729E0
3.645237876E0,6.325610876E-1,-9.097735405E0,-3.587981939E0,9.800129460E0
3.655236314E0,-1.276182175E0,-9.749471664E0,-3.490500689E0,1.043381204E1
3.665238918E0,-1.248997211E0,-9.882314682E0,-3.393959045E0,1.052326449E1
3.675236834E0,-2.938297749E0,-1.080226898E1,-2.772622824E0,1.153299814E1
3.685239439E0,-5.374768257E0,-1.092588425E1,-1.447514057E0,1.226207068E1
3.695235272E0,-5.490548134E0,-1.090247250E1,-1.403428078E0,1.228737709E1
3.705239178E0,-5.497136593E0,-1.082183361E1,-1.363123536E0,1.221428259E1
3.715238137E0,-5.341795921E0,-1.067195797E1,-1.325798750E0,1.200763144E1
3.725236314E0,-4.520044327E0,-9.578884125E0,-1.501748919E0,1.069771338E1
3.735236314E0,-3.544372559E0,-8.549264908E0,-1.478046894E0,9.372146495E0
3.745251418E0,-2.346148491E0,-7.476669788E0,-1.479369640E0,7.974555687E0
3.755246991E0,-7.261044979E-1,-6.423113346E0,-1.478690863E0,6.630998376E0
3.765246470E0,-5.914614797E-1,-5.498543262E0,-1.475115538E0,5.723615164E0
3.775371678E0,-6.632552743E-1,-4.620631695E0,-1.669353485E0,4.957508031E0
3.785244543E0,7.810304165E-1,-2.902476311E0,-2.175533772E-2,3.005802811E0
3.795254751E0,8.699978590E-1,-2.877692223E0,6.536539793E-1,3.076568271E0
3.805248762E0,9.325444698E-1,-1.619966030E0,7.852065563E-1,2.027431494E0
3.815244647E0,9.691699743E-1,-6.255102158E-1,1.586076021E0,1.961170725E0
3.825247512E0,9.826633930E-1,3.774089813E-1,1.552510977E0,1.875727916E0
3.835236314E0,9.702415466E-1,1.442264080E0,1.497990012E0,2.294660849E0
3.845246730E0,8.763213158E-1,2.483410358E0,1.359344244E0,2.963626635E0
3.855248032E0,7.208280563E-1,3.282319784E0,1.215426207E0,3.573580434E0
3.865250116E0,-6.043087244E-1,4.025329590E0,9.704403877E-1,4.184521704E0
3.875247251E0,-6.179896593E-1,3.986042738E0,1.037554741E-1,4.034998529E0
3.885254803E0,-6.416764855E-1,3.906839609E0,-6.294107437E-2,3.959685091E0
3.895244126E0,-2.646773815E0,3.811943054E0,-7.757902145E-1,4.705121883E0
3.905247512E0,-2.861102819E0,3.717751741E0,-9.161958694E-1,4.779853787E0
3.915243605E0,-3.875732183E0,3.663294792E0,-1.073673606E0,5.440018723E0
3.925250897E0,-4.055689335E0,3.686122417E0,-2.401268482E0,5.983494362E0
3.935245689E0,-4.882240295E0,3.774953604E0,-2.410629272E0,6.625532318E0
3.945244126E0,-5.002737999E0,4.658890724E0,-3.496937275E0,7.678621007E0
3.955233501E0,-5.086392403E0,4.726036549E0,-4.769255638E0,8.423337134E0
3.965248084E0,-5.067577362E0,4.791573524E0,-6.665163517E0,9.646964386E0
3.975248241E0,-5.088423252E0,4.790224552E0,-9.110954285E0,1.148249931E1
3.985250168E0,-5.127028942E0,4.583287716E0,-1.219901085E1,1.400388581E1
3.995236834E0,-5.054314137E0,2.071067333E0,-1.336608315E1,1.443909935E1
4.005237355E0,-4.245222092E0,-7.561001778E-1,-1.506066132E1,1.566579450E1
4.015234751E0,-2.831846237E0,-3.329102516E0,-1.617329979E1,1.675344450E1
4.025235793E0,-7.864067554E-1,-6.739580154E0,-1.669610786E1,1.802221945E1
4.035246991E0,-6.560391188E-1,-8.886894226E0,-1.642714882E1,1.868845886E1
4.045240480E0,2.591901064E0,-1.023109245E1,-1.452770042E1,1.795681719E1
4.055238137E0,4.255597115E0,-1.007803154E1,-1.300416374E1,1.699367827E1
4.065236574E0,5.454464436E0,-8.613872528E0,-1.025601768E1,1.446153107E1
4.075242303E0,5.473268986E0,-6.470423222E0,-8.531321526E0,1.202524416E1
4.085242824E0,5.293194294E0,-4.176795959E0,-5.900107861E0,8.959620700E0
4.095237616E0,3.847635746E0,-2.805617809E0,-3.631259918E0,5.988475659E0
4.105238918E0,2.287126303E0,-1.326071262E0,-1.756706238E0,3.174181552E0
4.115236834E0,6.976808310E-1,-1.453754902E0,-2.114119530E-1,1.626301593E0
4.125236574E0,-1.184928179E0,-2.976058006E0,1.242976427E0,3.435981147E0
4.135374074E0,-2.513009071E0,-6.258858681E0,1.368811250E0,6.882017932E0
4.145236001E0,-4.019798279E0,-8.421621323E0,3.777036190E0,1.006719853E1
4.155421366E0,-5.120215416E0,-9.666691780E0,3.853176832E0,1.159778029E1
4.165234022E0,-5.339577675E0,-9.736213684E0,3.722587585E0,1.171164399E1
4.175235845E0,-6.037696362E0,-9.627027512E0,3.487380505E0,1.188676823E1
4.185243866E0,-6.007072926E0,-8.253021240E0,2.644796848E0,1.054477288E1
4.195238657E0,-5.846053600E0,-6.192636967E0,2.494010448E0,8.873848287E0
4.205239439E0,-4.840167046E0,-2.876571655E0,2.471706867E0,6.149082562E0
4.215237616E0,-4.588337421E0,1.643166542E-1,2.256698370E0,5.115909283E0
4.225235793E0,-3.549930334E0,3.366260290E0,4.337967634E-1,4.911404417E0
4.235245689E0,-2.599376440E0,3.276843786E0,3.418614268E-1,4.196585792E0
4.245240220E0,-2.344166994E0,1.545222759E0,5.396577716E-2,2.808156794E0
4.255239699E0,-9.406752586E-1,-5.065555573E-1,-3.004793823E-2,1.068817736E0
4.265236314E0,-7.937594652E-1,-2.710990906E0,-9.674821794E-2,2.826461745E0
4.275235793E0,3.527702093E-1,-4.337744713E0,-1.617143750E-1,4.355069179E0
4.285241001E0,1.109113574E0,-5.440766335E0,-1.800608784E-1,5.555582161E0
4.295235272E0,1.272469759E0,-5.520926952E0,-3.973657489E-1,5.679587418E0
4.305241782E0,1.398595333E0,-5.428396225E0,-4.134470522E-1,5.620897877E0
4.315330272E0,1.400346994E0,-4.200668335E0,-4.273781180E-1,4.448509663E0
4.325691470E0,1.312440753E0,-2.612377167E0,-4.383231997E-1,2.956204056E0
4.335258397E0,-4.562323689E-1,-8.583278656E-1,-4.495238662E-1,1.070955837E0
4.345234803E0,-6.116867065E-1,5.827479362E-1,-6.590706110E-1,1.071508215E0
4.355236834E0,-5.675213337E-1,1.592294693E0,-6.667423844E-1,1.817148387E0
4.365236314E0,-2.301919460E0,1.701377392E0,-6.748055816E-1,2.940897959E0
4.375237876E0,-2.416989565E0,1.736702442E0,-6.819673181E-1,3.053367543E0
4.385246730E0,-2.493114948E0,1.673398495E0,-6.886250377E-1,3.080598823E0
4.395237355E0,-2.486459255E0,1.519912720E0,-8.869788647E-1,3.046201866E0
4.405237355E0,-1.522768021E0,2.411060333E-1,-8.460214734E-1,1.758609365E0
4.415235532E0,-3.716381788E-1,-7.411375046E-1,-8.438386917E-1,1.182989211E0
4.425239959E0,-3.082459569E-1,-8.681373596E-1,-8.402070403E-1,1.246846388E0
4.435244387E0,-4.452477098E-1,-2.723473072E0,-1.034678578E0,2.947220870E0
4.445236834E0,8.055478334E-1,-2.700535297E0,-1.029935360E0,3.000427478E0
4.455234751E0,8.866019845E-1,-2.677755833E0,-1.023383617E0,3.000625503E0
4.465236834E0,9.705893993E-1,-2.655203342E0,-1.016477704E0,3.004226272E0
4.475236314E0,1.058415532E0,-2.632876873E0,-1.009495139E0,3.011870599E0
4.485243084E0,1.144354343E0,-2.711346149E0,-2.709863186E0,4.000537875E0
4.495273241E0,1.247637153E0,-3.730953217E0,-2.839857578E0,4.851948210E0
4.505232616E0,1.875324845E0,-4.549613476E0,-3.492326736E0,6.034249919E0
4.515353918E0,1.926533341E0,-4.633244991E0,-3.565294266E0,6.155470174E0
4.525234543E0,2.020272255E0,-4.739798546E0,-3.595909595E0,6.283132663E0
4.535241522E0,2.889698267E0,-5.611324310E0,-3.588593960E0,7.260531881E0
4.545239699E0,2.959930897E0,-5.723371983E0,-3.576741457E0,7.369617169E0
4.555239439E0,3.588211060E0,-6.403657436E0,-3.551089287E0,8.154282451E0
4.565237355E0,3.604284525E0,-6.399653912E0,-3.597801208E0,8.178668025E0
4.575238137E0,3.633407354E0,-6.357862473E0,-3.672197819E0,8.192014468E0
4.585244647E0,4.222775459E0,-6.283448219E0,-4.595681667E0,8.856288393E0
4.595237616E0,4.136415958E0,-6.291459560E0,-4.621407509E0,8.834580225E0
4.605236834E0,3.954386711E0,-6.368587494E0,-4.635167122E0,8.813674329E0
4.615237095E0,3.115836859E0,-7.110074043E0,-4.612160683E0,9.029596801E0
4.625237616E0,2.131188869E0,-7.263217926E0,-4.515407085E0,8.813920909E0
4.635242824E0,8.647747040E-1,-8.559238434E0,-3.817275763E0,9.411694433E0
4.645239699E0,-1.130671978E0,-9.420555115E0,-3.051240683E0,9.966711970E0
4.655237095E0,-2.358717918E0,-1.027095413E1,-2.259496450E0,1.077781857E1
4.665238137E0,-4.031916142E0,-1.099624157E1,-2.131268263E0,1.190445214E1
4.675288762E0,-5.558664322E0,-1.111833763E1,-1.992390513E0,1.258911437E1
4.685259022E0,-6.824958801E0,-1.174966240E1,-7.856072783E-1,1.361072400E1
4.695313605E0,-7.598451138E0,-1.169358158E1,-7.224743366E-1,1.396417842E1
4.705241574E0,-7.523109436E0,-1.158588982E1,-6.839439869E-1,1.383104471E1
4.715236105E0,-7.219724178E0,-1.141821098E1,-6.658374667E-1,1.352565336E1
4.725234230E0,-5.511636257E0,-1.030685806E1,-8.479334712E-1,1.171872214E1
4.735243345E0,-3.937777519E0,-9.526317596E0,-8.279353976E-1,1.034129082E1
4.745239178E0,-2.299165964E0,-8.656440735E0,-8.325659633E-1,8.995181844E0
4.755240480E0,-1.712999940E-1,-7.724028111E0,-8.334982991E-1,7.770757579E0
4.765240741E0,1.663473248E0,-6.796467304E0,-9.910559058E-1,7.066916079E0
4.775237355E0,1.894987345E0,-5.621545315E0,4.926090837E-1,5.952765111E0
4.785246209E0,2.046856165E0,-4.747131824E0,1.342907190E0,5.341187175E0
4.795238137E0,2.076367378E0,-3.760596752E0,2.142613411E0,4.800435569E0
4.805243084E0,1.957371235E0,-2.066874504E0,2.257401943E0,3.633061505E0
4.815238397E0,2.505992055E-1,-1.081889153E0,2.868974686E0,3.076410221E0
4.825237355E0,3.141674995E-1,4.775266647E-1,2.817302227E0,2.874704293E0
4.835242043E0,-9.018249512E-1,2.167922497E0,2.677343369E0,3.561087433E0
4.845236574E0,-1.673683167E0,3.822578669E0,1.810148001E0,4.548621638E0
4.855253501E0,-1.835113168E0,5.396997929E0,1.037928939E0,5.794180137E0
4.865250897E0,-2.892254829E0,7.504170418E0,1.933227777E-1,8.044568687E0
4.875290168E0,-3.004634619E0,7.508395672E0,-1.586318016E0,8.241373648E0
4.885244959E0,-3.107803822E0,7.511826038E0,-1.632835627E0,8.291690250E0
4.895236105E0,-3.201083422E0,8.482136726E0,-1.678569436E0,9.220150426E0
4.905238918E0,-3.255903959E0,8.501308441E0,-1.725787997E0,9.265608454E0
4.915240220E0,-3.253409624E0,8.481606483E0,-2.955665112E0,9.552919919E0
4.925240220E0,-3.212859392E0,8.437700272E0,-3.066680193E0,9.535291225E0
4.935244907E0,-3.106339455E0,8.356116295E0,-3.112260342E0,9.442467303E0
4.945239699E0,-2.167058945E0,7.378920078E0,-3.278691769E0,8.360288614E0
4.955236834E0,-2.039998531E0,7.198422909E0,-4.633668900E0,8.800555315E0
4.965238137E0,-1.880019426E0,5.685041904E0,-6.143256187E0,8.578681197E0
4.975234751E0,-1.763848543E0,4.589674473E0,-8.046914101E0,9.430222691E0
4.985245949E0,-1.616470098E0,2.690582752E0,-1.009884834E1,1.057539356E1
4.995247512E0,6.556148529E-1,-1.164231300E-1,-1.150006771E1,1.151932908E1
5.005293866E0,5.359960198E-1,-2.560641766E0,-1.357013226E1,1.382000968E1
5.015246730E0,2.306457996E0,-6.523949623E0,-1.442837143E1,1.600186143E1
5.025247251E0,3.370573759E0,-9.179126740E0,-1.440665627E1,1.741174546E1
5.035260324E0,4.138664722E0,-1.102223396E1,-1.424472237E1,1.848053848E1
5.045254334E0,4.259794712E0,-1.196736717E1,-1.387971497E1,1.881515920E1
5.055275845E0,4.903894424E0,-1.193711853E1,-1.272944355E1,1.812682301E1
5.065252772E0,4.872984886E0,-1.089805984E1,-1.139162159E1,1.650099186E1
5.075237147E0,4.587993145E0,-8.629844666E0,-9.537505150E0,1.365605743E1
5.085244647E0,2.762148619E0,-5.793551922E0,-7.730558395E0,1.004769834E1
5.095247512E0,2.234641314E-1,-2.150980949E0,-5.899945259E0,6.283789408E0
5.105278762E0,-1.038816810E0,-2.250120640E0,-4.299198151E0,4.962387328E0
5.115251678E0,-2.671452761E0,-1.522192955E-1,-2.825473309E0,3.891417477E0
5.125248814E0,-4.843004227E0,-2.246871948E0,-1.166113734E0,5.464699876E0
5.135245428E0,-5.090032578E0,-4.009840488E0,1.592197895E0,6.672506764E0
5.145248814E0,-5.909559250E0,-6.016713619E0,1.497926593E0,8.565484072E0
5.155248553E0,-5.905568600E0,-7.358971119E0,3.340844870E0,1.000956747E1
5.165247772E0,-5.758308887E0,-7.471290112E0,3.374958277E0,1.001841507E1
5.175249595E0,-4.728284836E0,-7.436445713E0,3.418464661E0,9.452158641E0
5.185249855E0,-3.827734947E0,-6.673920631E0,3.468966246E0,8.439579269E0
5.195247251E0,-2.755872011E0,-4.966278553E0,4.757643700E0,7.409043581E0
5.205298032E0,-1.736112475E0,-2.148722172E0,4.773240089E0,5.514971845E0
5.215247251E0,1.022044346E-1,-1.196112633E-1,4.528198242E0,4.530930580E0
5.225229855E0,2.367890477E-1,1.766353130E0,3.622869968E0,4.037481795E0
5.235243501E0,3.656332493E-1,2.591253281E0,3.323004246E0,4.229732669E0
5.245236105E0,2.872191668E-1,2.538853645E0,3.062862635E0,3.988658948E0
5.255237876E0,1.782291293E0,1.385215282E0,2.821399450E0,3.613264243E0
5.265238397E0,1.901736259E0,-1.082139015E-1,2.573554039E0,3.201795034E0
5.275240741E0,2.540607214E0,-2.045619488E0,1.583354473E0,3.625776536E0
5.285240480E0,2.573172569E0,-2.020368576E0,1.307697058E0,3.523234004E0
5.295241522E0,2.521093607E0,-2.077497005E0,-3.007128835E-1,3.280599796E0
5.305260793E0,2.301021099E0,-2.055429459E0,-1.437752247E0,3.403912437E0
5.315238918E0,2.621346116E-1,-2.035933495E0,-2.448317528E0,3.194995848E0
5.325225428E0,2.470077574E-1,-9.112386703E-1,-3.298906803E0,3.431348837E0
5.335237355E0,-1.194746137E0,2.912144661E-1,-3.477635384E0,3.688654505E0
5.345237876E0,-2.325215101E0,1.258838654E0,-3.567715645E0,4.440708834E0
5.355238918E0,-3.180225134E0,1.394601345E0,-3.488001823E0,4.921879878E0
5.365238657E0,-3.318813086E0,2.017554760E0,-2.612591028E0,4.680884466E0
5.375238397E0,-3.373073578E0,1.994627953E0,-7.196170688E-1,3.984220721E0
5.385236314E0,-3.258562803E0,1.925110817E0,-8.721526861E-1,3.883932737E0
5.395246157E0,-2.171432018E0,1.825077057E0,-8.212580085E-1,2.953047238E0
5.405263449E0,8.350794762E-2,1.030514240E0,-7.678847909E-1,1.287858777E0
5.415243605E0,1.830455661E-1,9.206190109E-1,-7.143965960E-1,1.179579391E0
5.425235324E0,1.760671735E0,1.255989075E-1,-6.612814665E-1,1.884949130E0
5.435235064E0,2.762485981E0,-5.920410156E-3,-8.408759236E-1,2.887635047E0
5.445243866E0,2.974163532E0,-8.812870979E-1,2.444293499E-1,3.111601095E0
5.455238918E0,3.793854237E0,-9.941191673E-1,2.162327170E-1,3.927895044E0
5.465238137E0,3.812776327E0,-2.095533371E0,-7.859890461E-1,4.421120018E0
5.475238137E0,3.728213072E0,-2.071110249E0,-7.665662169E-1,4.333208296E0
5.485239178E0,2.739776611E0,-2.125775337E0,-9.076800346E-1,3.584575248E0
5.495239439E0,2.564066648E0,-3.737868309E0,-1.920869827E0,4.922990775E0
5.505257668E0,2.380611658E0,-3.858636379E0,-2.036075592E0,4.970109696E0
5.515238918E0,1.654536366E0,-4.728508472E0,-2.737661839E0,5.708859370E0
5.525236053E0,1.600652337E0,-4.834845066E0,-2.812073469E0,5.817694725E0
5.535236314E0,1.592445135E0,-5.695740700E0,-2.869790554E0,6.573662712E0
5.545238397E0,1.646232128E0,-5.828109741E0,-2.884508610E0,6.708005165E0
5.555239439E0,2.530590773E0,-6.692209244E0,-2.867902040E0,7.708074749E0
5.565249074E0,2.636755943E0,-6.725262165E0,-2.832609415E0,7.759208026E0
5.575235584E0,3.735119343E0,-6.722373486E0,-2.835351467E0,8.196379672E0
5.585226991E0,3.855948210E0,-6.686029911E0,-2.818709850E0,8.216839891E0
5.595243293E0,4.906508446E0,-6.652187824E0,-2.799062252E0,8.726979859E0
5.605255064E0,4.974783421E0,-6.669595718E0,-2.819100142E0,8.785175168E0
5.615236314E0,5.002356529E0,-6.727090359E0,-2.877154589E0,8.863144705E0
5.625240480E0,4.938544750E0,-6.790272236E0,-3.573426247E0,9.125042270E0
5.635239439E0,4.702475548E0,-6.870350361E0,-3.609791279E0,9.074446729E0
5.645239439E0,3.060686111E0,-7.525475025E0,-3.663374424E0,8.911839653E0
5.655238657E0,-5.987696052E-1,-7.666909695E0,-3.627978802E0,8.503073532E0
5.665236574E0,-2.232701302E0,-8.268474579E0,-3.528560638E0,9.263010695E0
5.675239959E0,-4.101449490E0,-8.275110245E0,-3.367747784E0,9.830618628E0
5.685241001E0,-5.732133389E0,-8.262724876E0,-2.508881807E0,1.036457734E1
5.695236834E0,-6.908069611E0,-8.244876862E0,-2.372856140E0,1.101498373E1
5.705261574E0,-7.068470001E0,-8.196670532E0,-1.599956870E0,1.094113970E1
5.715237095E0,-7.077598572E0,-8.128450394E0,-1.433610916E0,1.087287210E1
5.725237616E0,-6.850551128E0,-8.046751976E0,-1.354504228E0,1.065433948E1
5.735237876E0,-5.411474705E0,-7.950663567E0,-1.397278190E0,9.718513053E0
5.745238397E0,-4.059115410E0,-7.810129166E0,-1.524649024E0,8.933033647E0
5.755243397E0,-2.741409540E0,-6.813180923E0,-2.209971905E0,7.669337415E0
5.765230428E0,-1.529922485E0,-6.640847206E0,-2.149657249E0,7.145805813E0
5.775235064E0,-2.078213915E-2,-5.509424210E0,-3.202724159E-1,5.518764485E0
5.785234803E0,1.298584789E-1,-5.356577873E0,-3.025406897E-1,5.366686185E0
5.795237616E0,2.707211077E-1,-4.367842674E0,-2.868211269E-1,4.385613515E0
5.805257928E0,1.356333017E0,-4.203510284E0,-2.710803747E-1,4.425225704E0
5.815236834E0,1.415282845E0,-2.899549484E0,1.145831943E0,3.423936855E0
5.825237616E0,1.399901509E0,-1.578464508E0,1.807575107E0,2.778237248E0
5.835238397E0,1.365295887E0,4.865169525E-1,2.761180401E0,3.118468985E0
5.845237095E0,4.063841105E-1,1.751147747E0,2.697309494E0,3.241472657E0
5.855239699E0,2.206829339E-1,3.063910484E0,2.619602680E0,4.037148327E0
5.865236053E0,2.299960256E-1,4.298500538E0,2.542102098E0,4.999228753E0
5.875237616E0,2.329312116E-1,5.413659573E0,2.459936142E0,5.950903523E0
5.885240220E0,2.304132879E-1,6.291370392E0,2.369479895E0,6.726727783E0
5.895236574E0,2.163514793E-1,6.416440964E0,2.222565889E0,6.793917996E0
5.905259491E0,-1.008467674E0,8.025322914E0,2.020610332E0,8.337006720E0
5.915239439E0,-2.028342247E0,8.031821251E0,1.076454282E0,8.353626679E0
5.925237355E0,-2.247489929E0,8.036909103E0,8.488820791E-1,8.388308513E0
5.935247095E0,-3.374621153E0,8.040446281E0,-1.227569580E-1,8.720774828E0
5.945237772E0,-3.568881035E0,8.042470932E0,-3.672324419E-1,8.806424371E0
5.955229803E0,-4.396683693E0,7.843578815E0,-1.611546278E0,9.135077314E0
5.965235793E0,-4.559087753E0,7.843226910E0,-2.779370070E0,9.488223621E0
5.975239439E0,-4.689019680E0,7.844528198E0,-4.219708443E0,1.006625390E1
5.985239439E0,-4.752084732E0,7.854295254E0,-6.149878025E0,1.104958203E1
5.995243866E0,-4.864109993E0,6.675876617E0,-8.643951416E0,1.195595210E1
6.005262616E0,-5.479659557E0,5.202105999E0,-1.151282310E1,1.377075421E1
6.015239439E0,-5.280380249E0,3.107784271E0,-1.294869137E1,1.432512991E1
6.025239178E0,-2.185853004E0,-1.966941833E0,-1.542587852E1,1.570364740E1
6.035238397E0,3.418296576E-3,-5.776133060E0,-1.538782787E1,1.643620916E1
6.045237876E0,1.091210485E0,-7.930307388E0,-1.519151783E1,1.717156748E1
6.055236834E0,2.256726027E0,-9.370628357E0,-1.473344135E1,1.760612911E1
6.065236574E0,3.487746477E0,-1.005618668E1,-1.311230659E1,1.688857159E1
6.075237876E0,4.508418083E0,-9.987694740E0,-1.153949928E1,1.591351387E1
6.085238137E0,4.563297272E0,-8.488165855E0,-8.880492210E0,1.310480002E1
6.095237616E0,4.304282188E0,-6.496841908E0,-8.510914803E0,1.153999440E1
6.105266782E0,2.434813738E0,-4.371566296E0,-5.254080296E0,7.255637089E0
6.115247928E0,8.761722594E-2,-1.942869186E0,-3.191202641E0,3.737136838E0
6.125239803E0,-1.113541961E0,-1.987275124E0,-1.481057644E0,2.717125293E0
6.135267616E0,-2.666392088E0,-2.032924175E0,-5.306544304E-1,3.394704935E0
6.145237407E0,-3.864787817E0,-4.199357986E0,5.730631351E-1,5.735816744E0
6.155240220E0,-4.665072918E0,-5.915763378E0,2.676371813E0,7.995131503E0
6.165238657E0,-4.881065845E0,-6.968743801E0,4.047360897E0,9.421747406E0
6.175240220E0,-5.613311768E0,-7.019711018E0,4.750473022E0,1.016624836E1
6.185243084E0,-5.639067650E0,-6.926371098E0,4.681800365E0,1.008429250E1
6.195247512E0,-5.517039299E0,-5.903164387E0,4.614800453E0,9.304915670E0
6.205266522E0,-3.923233271E0,-1.965265751E0,5.860272408E0,7.320985006E0
6.215232668E0,-2.920651436E0,-1.791796684E-1,5.846007824E0,6.537439685E0
6.225251678E0,-2.026810884E0,1.822857857E0,5.605421066E0,6.233098624E0
6.235248032E0,-2.765811682E-1,2.777581215E0,4.681332588E0,5.450351305E0
6.245248293E0,-1.616352946E-1,2.759974003E0,3.827755928E0,4.721789693E0
6.255249074E0,-5.057636648E-2,1.551763535E0,3.552232027E0,3.876709998E0
6.265246209E0,1.525794864E0,-1.488914490E-1,2.783528805E0,3.177774573E0
6.275246991E0,1.737604856E0,-1.690254211E0,2.555252314E0,3.522150525E0
6.285247251E0,2.777435064E0,-3.248757362E0,9.136760235E-1,4.370740648E0
6.295258137E0,2.815347672E0,-4.022854805E0,8.207675815E-1,4.978273066E0
6.305288345E0,2.806818247E0,-4.040802002E0,7.275241017E-1,4.973489802E0
6.315294803E0,2.688428164E0,-3.923785210E0,6.353170872E-1,4.798683586E0
6.325242564E0,1.665152669E0,-2.672432899E0,5.482423306E-1,3.196122755E0
6.335248293E0,-2.321850657E-1,-1.653428078E0,2.827518582E-1,1.693423434E0
6.345252720E0,-2.575455010E-1,4.682750702E-1,-1.442036629E0,1.537881941E0
6.355248814E0,-1.597900629E0,1.992173672E0,-1.553063154E0,2.988987708E0
6.365250376E0,-2.932427406E0,3.062026024E0,-1.638483644E0,4.545301147E0
6.375252199E0,-3.972940683E0,3.167691231E0,-1.686705709E0,5.353830550E0
6.385247772E0,-4.204257011E0,3.124771595E0,-1.550660610E0,5.463014083E0
6.395247772E0,-4.130372524E0,2.962712765E0,4.486179724E-2,5.083272243E0
6.405291001E0,-3.369000673E0,1.814807892E0,4.927546158E-2,3.827025123E0
6.415243345E0,-2.233156204E0,1.078201294E0,5.473557115E-2,2.480423481E0
6.425246991E0,-3.364861012E-1,9.372329712E-1,-1.385884285E-1,1.005403049E0
6.435247251E0,-2.240457833E-1,1.154203415E-1,-1.309197247E-1,2.840041242E-1
6.445251157E0,1.514075041E0,5.145931244E-2,-1.228781417E-1,1.519924448E0
6.455246730E0,2.293876886E0,-9.880065918E-3,-1.144956127E-1,2.296753803E0
6.465246991E0,2.467109203E0,-9.347534180E-2,-1.076612025E-1,2.471225687E0
6.475269855E0,2.605268240E0,-1.692123413E0,-3.017102480E-1,3.121174990E0
6.485251053E0,2.619554996E0,-1.669063568E0,-2.993470132E-1,3.120488777E0
6.495307824E0,2.560901642E0,-1.646201134E0,-2.962827086E-1,3.058754458E0
6.505254699E0,2.385702610E0,-1.623478889E0,-2.954515219E-1,2.900784764E0
6.515236053E0,1.604720354E0,-3.020445824E0,-2.951129079E-1,3.432974223E0
6.525235272E0,1.464852333E0,-3.717262268E0,-4.934666157E-1,4.025834128E0
6.535236574E0,1.338341713E0,-4.433917046E0,-4.892990887E-1,4.657273076E0
6.545239178E0,1.264619708E0,-5.120909691E0,-1.517908335E0,5.488809049E0
6.555237616E0,1.279839873E0,-5.277437210E0,-1.588998318E0,5.658113578E0
6.565239439E0,3.013055325E0,-6.532856941E0,-1.717315674E0,7.396343375E0
6.575235272E0,4.024635792E0,-6.626864433E0,-2.472674847E0,8.138006290E0
6.585236574E0,4.961832047E0,-6.673796654E0,-2.645348549E0,8.726809725E0
6.595236834E0,5.728519440E0,-6.694160461E0,-3.654878139E0,9.538650506E0
6.605235793E0,5.805103779E0,-6.712853432E0,-3.755867958E0,9.636813540E0
6.615236834E0,6.424185753E0,-6.717718124E0,-4.481317997E0,1.031892002E1
6.625234230E0,6.300930023E0,-6.699117661E0,-4.562976837E0,1.026648208E1
6.635236834E0,5.470839977E0,-6.656449318E0,-4.640945911E0,9.786561528E0
6.645235272E0,4.279861927E0,-6.636215210E0,-4.630003452E0,9.153879090E0
6.655258762E0,2.766391754E0,-6.672582626E0,-4.495787144E0,8.508136358E0
6.665251001E0,1.098003030E0,-6.790892601E0,-3.480661392E0,7.709528954E0
6.675240741E0,-1.497715712E0,-7.725047112E0,-2.524508476E0,8.263936609E0
6.685238189E0,-1.546047330E0,-7.831801414E0,-1.766707897E0,8.176101304E0
6.695239959E0,-4.140012741E0,-8.579946518E0,-1.618144631E0,9.663000559E0
6.705237095E0,-5.829955101E0,-8.674262047E0,-1.460840344E0,1.055297366E1
6.715241001E0,-7.226598740E0,-8.760019302E0,-2.557871342E-1,1.135900940E1
6.725237355E0,-8.124578476E0,-8.796842575E0,-2.007555366E-1,1.197637330E1
6.735238918E0,-8.085058212E0,-8.755341530E0,-1.662440300E-1,1.191854893E1
6.745242043E0,-6.989211559E0,-8.530600548E0,-1.830779791E0,1.117908666E1
6.755236574E0,-5.731229305E0,-7.454064369E0,-1.915453076E0,9.595781649E0
6.765240741E0,-4.175900459E0,-6.736429214E0,-1.865031123E0,8.142233373E0
6.775240741E0,-2.461878777E0,-5.931527138E0,-1.203382254E0,6.533910785E0
6.785236314E0,-8.790927529E-1,-5.203294754E0,-1.418366134E-1,5.278939097E0
6.795237095E0,5.719384551E-1,-5.011790276E0,-1.142449528E-1,5.045612676E0
6.805236314E0,1.485974073E0,-3.771178246E0,8.334206343E-1,4.138175233E0
6.815239959E0,1.692289591E0,-2.864878654E0,1.752689004E0,3.760756906E0
6.825237876E0,1.809851766E0,-1.178980827E0,2.781298399E0,3.521530916E0
6.835287043E0,1.829190135E0,-1.155340195E0,3.609349728E0,4.208105627E0
6.845246887E0,1.738177896E0,6.407117844E-1,3.656224728E0,4.098750205E0
6.855320689E0,9.727624655E-1,2.037157059E0,3.643876076E0,4.286503068E0
6.865234022E0,7.850772142E-1,3.491167068E0,3.587922573E0,5.067324947E0
6.875238657E0,-5.828384757E-1,4.912034035E0,3.516596794E0,6.069121193E0
6.885235793E0,-5.916727781E-1,6.214958191E0,3.412347078E0,7.114765954E0
6.895240741E0,-1.757157445E0,7.279331684E0,3.264977932E0,8.169232091E0
6.905236834E0,-2.548405170E0,8.406580925E0,3.088371992E0,9.311445286E0
6.915236574E0,-3.308547258E0,8.408263206E0,2.869656563E0,9.480522343E0
6.925239439E0,-4.590018272E0,8.447835922E0,1.823831320E0,9.785732481E0
6.935235532E0,-4.741415501E0,8.449215889E0,7.967725992E-1,9.721374217E0
6.945241782E0,-5.498898029E0,8.249182701E0,-1.463545561E-1,9.915054938E0
6.955241522E0,-5.546038151E0,8.250875473E0,-1.439435720E0,1.004527055E1
6.965236314E0,-5.509758949E0,8.253775597E0,-3.137505531E0,1.040798714E1
6.975236053E0,-5.419760227E0,8.258585930E0,-5.637817383E0,1.137378685E1
6.985236574E0,-5.391113758E0,6.684463501E0,-8.212401390E0,1.188232706E1
6.995238137E0,-5.317183495E0,5.069538593E0,-1.151010704E1,1.365486089E1
7.005236834E0,-5.094912529E0,2.185342789E0,-1.296282768E1,1.409853745E1
7.015281782E0,-3.695732594E0,-1.622825623E0,-1.493327045E1,1.546914894E1
7.025236001E0,-2.251567841E0,-4.914706230E0,-1.607757950E1,1.696208883E1
7.035267199E0,6.706225872E-2,-7.615201950E0,-1.608217430E1,1.779415995E1
7.045236105E0,1.038076580E-1,-9.362600327E0,-1.588128471E1,1.843595034E1
7.055242564E0,3.442691267E-1,-1.026218700E1,-1.537999344E1,1.849257152E1
7.065238397E0,2.565491438E0,-1.027307224E1,-1.394514084E1,1.750956061E1
7.075238918E0,3.512229204E0,-1.011849022E1,-1.229563236E1,1.630650709E1
7.085243866E0,3.397862911E0,-8.050081253E0,-8.994872093E0,1.254021549E1
7.095242564E0,2.268825531E0,-5.666201591E0,-5.616534233E0,8.294508217E0
7.105238137E0,-9.444940090E-1,-2.857339859E0,-1.415880680E0,3.325834948E0
7.115237616E0,-2.791841984E0,-3.725963593E0,-1.027860403E0,4.767985252E0
7.125236834E0,-4.295150280E0,-5.640096664E0,9.337902069E-1,7.150592315E0
7.135237355E0,-5.345785141E0,-7.469491005E0,3.763938665E0,9.926628276E0
7.145237095E0,-5.521255016E0,-8.421756744E0,6.014720917E0,1.172975325E1
7.155236834E0,-5.599549770E0,-8.396060944E0,6.705946922E0,1.211686928E1
7.165236574E0,-5.584382057E0,-8.191685677E0,6.574436188E0,1.189589208E1
7.175235272E0,-5.425564289E0,-6.332765579E0,6.463192940E0,1.055052277E1
7.185236314E0,-4.153242588E0,-4.314652443E0,6.420277119E0,8.779841000E0
7.195309491E0,-2.998595476E0,-1.443179131E0,7.566705704E0,8.266158481E0
7.205237876E0,-1.923563600E0,1.743475914E0,7.247213364E0,7.698175545E0
7.215261209E0,-1.083685517E0,4.094724655E0,5.367278576E0,6.837311139E0
7.225237980E0,-8.268587589E-1,4.998950005E0,3.700441599E0,6.274270044E0
7.235236053E0,4.593506455E-1,4.894409180E0,2.532254696E0,5.529788249E0
7.245238137E0,5.766534805E-1,3.072708607E0,2.201336622E0,3.823604365E0
7.255236314E0,1.673542023E0,1.023561478E0,6.491858959E-1,2.066364762E0
7.265237876E0,1.792600155E0,-1.271788597E0,5.184880495E-1,2.258249634E0
7.275238397E0,2.539889574E0,-2.737029076E0,3.923260570E-1,3.754502223E0
7.285238918E0,2.615965366E0,-4.022085190E0,1.574750841E-1,4.800546060E0
7.295237355E0,2.516157627E0,-3.932717323E0,1.149912104E-1,4.670175342E0
7.305238137E0,1.720229626E0,-2.620328903E0,7.905830443E-2,3.135532449E0
7.315241782E0,4.743201137E-1,-1.187105179E0,-1.604525924E0,2.051512056E0
7.325225949E0,2.399360985E-1,1.328534603E0,-1.711265445E0,2.179679551E0
7.335237616E0,-1.069406271E0,3.203014374E0,-1.782727480E0,3.818513863E0
7.345240220E0,-2.041502953E0,4.486691475E0,-1.797436595E0,5.246800264E0
7.355236053E0,-2.809399366E0,4.632827759E0,-1.709266663E0,5.681321181E0
7.365235272E0,-2.957166910E0,4.680235863E0,-2.272824198E-2,5.536240641E0
7.375336522E0,-3.025802135E0,4.582720280E0,-2.068745196E-1,5.495416344E0
7.385233345E0,-2.934710026E0,3.618055344E0,-1.863802671E-1,4.662358310E0
7.395259178E0,-2.025753021E0,2.571166039E0,-1.643647552E-1,3.277435869E0
7.405234282E0,-1.101354480E0,1.516891003E0,8.718138337E-1,2.067365320E0
7.415238137E0,1.751527190E-1,5.188732147E-1,9.370800853E-1,1.085369510E0
7.425238397E0,5.019040406E-2,-2.541837692E-1,1.589060187E0,1.610043709E0
7.435237095E0,1.522096753E0,-1.317064285E0,1.635310411E0,2.593391023E0
7.445245949E0,1.682063103E0,-1.295287132E0,1.655752063E0,2.692326119E0
7.455236314E0,2.435890436E0,-1.275198936E0,1.555094719E0,3.158799476E0
7.465237616E0,2.441875219E0,-2.333166122E0,-4.912680984E-1,3.412881933E0
7.475244907E0,2.374724627E0,-3.212517738E0,-5.127333999E-1,4.027714341E0
7.485250897E0,2.244702101E0,-3.329268456E0,-5.330021381E-1,4.050531724E0
7.495245168E0,2.118185043E0,-4.307783127E0,-1.727738857E0,5.101841325E0
7.505246991E0,2.003752470E0,-4.437016487E0,-1.907703400E0,5.228907298E0
7.515243605E0,1.911982894E0,-5.188486099E0,-2.712248802E0,6.158925243E0
7.525246470E0,1.854089737E0,-5.244970322E0,-2.770099163E0,6.214564490E0
7.535245689E0,1.844476581E0,-5.348993301E0,-2.726524830E0,6.280745246E0
7.545247772E0,2.467351913E0,-6.250809669E0,-2.671901226E0,7.231839541E0
7.555373501E0,3.135023355E0,-6.337466240E0,-2.666779995E0,7.556690104E0
7.565242251E0,3.960945129E0,-6.399017334E0,-2.672255993E0,7.986079216E0
7.575251105E0,4.848330021E0,-6.436461449E0,-2.669875383E0,8.488967813E0
7.585240272E0,5.670153618E0,-6.480862617E0,-2.622224808E0,9.001571266E0
7.595237147E0,5.768454552E0,-6.547768593E0,-2.576689243E0,9.098772935E0
7.605246470E0,6.489042759E0,-7.131850243E0,-2.561097622E0,9.976481586E0
7.615243345E0,6.318964005E0,-7.162221909E0,-2.582795143E0,9.894319558E0
7.625248814E0,5.075868130E0,-7.205430031E0,-2.598380327E0,9.188810561E0
7.635249334E0,3.427525520E0,-7.273522377E0,-2.535715580E0,8.431008983E0
7.645250637E0,-1.296499014E0,-8.165147781E0,-2.294923544E0,8.580047905E0
7.655247512E0,-3.436594725E0,-8.233917236E0,-1.616905928E0,9.067632609E0
7.665248553E0,-5.783377647E0,-8.337129593E0,-1.551087260E0,1.026455350E1
7.675249074E0,-7.672694683E0,-8.998373985E0,-1.487538099E0,1.191863028E1
7.685250116E0,-8.858998299E0,-9.006784439E0,-1.430108309E0,1.271413491E1
7.695247772E0,-8.986146927E0,-8.978343010E0,-1.378667831E0,1.277740994E1
7.705249334E0,-8.898139000E0,-8.891041756E0,-1.396095991E0,1.265608886E1
7.715238918E0,-7.827917099E0,-8.757903099E0,-1.493229866E0,1.184089896E1
7.725234751E0,-6.556792736E0,-7.974095345E0,-2.316918373E0,1.058044603E1
7.735373032E0,-5.163049221E0,-7.806952477E0,-2.339264154E0,9.647680603E0
7.745239959E0,-3.709255457E0,-6.764813423E0,-2.250110149E0,8.036434059E0
7.755252459E0,-2.486061573E0,-6.565367699E0,-1.167247415E0,7.116672094E0
7.765247303E0,-7.280618548E-1,-5.382147789E0,-9.645710886E-2,5.432024748E0
7.775242303E0,-5.318766832E-1,-4.577611923E0,-5.744222179E-2,4.608765923E0
7.785238918E0,-3.456246555E-1,-3.600815773E0,1.748977065E0,4.017990967E0
7.795238397E0,-1.761651486E-1,-2.325269699E0,2.600426435E0,3.492868589E0
7.805245428E0,-2.762459219E-1,-8.194265366E-1,3.470225811E0,3.576344340E0
7.815237876E0,-2.213068902E-1,9.011964798E-1,3.572505474E0,3.691060443E0
7.825241522E0,-1.287553906E-1,4.267361164E0,3.646748781E0,5.614777460E0
7.835243866E0,-7.716695964E-2,5.821641445E0,3.590753078E0,6.840392644E0
7.845241001E0,-2.296947688E-1,7.116038322E0,3.523272276E0,7.943815747E0
7.855242824E0,-1.854004562E-1,8.904004097E0,3.422969341E0,9.541089110E0
7.865235793E0,-1.146827459E0,8.915408134E0,3.296435595E0,9.574246866E0
7.875236834E0,-2.072488785E0,8.925242424E0,3.122136831E0,9.680025851E0
7.885237355E0,-2.223345041E0,8.933533669E0,2.896845341E0,9.651062113E0
7.895236314E0,-3.215882778E0,8.740704536E0,2.045291662E0,9.535462014E0
7.905243866E0,-3.337278128E0,8.746030807E0,1.827284098E0,9.537790486E0
7.915361418E0,-4.046607494E0,8.749206543E0,7.519216537E-1,9.668972723E0
7.925243762E0,-4.126770020E0,8.750136375E0,-2.634755373E-1,9.678044056E0
7.935247564E0,-4.163354874E0,8.749433517E0,-1.315250874E0,9.778343190E0
7.945242147E0,-4.129934311E0,8.547452927E0,-3.752390623E0,1.020763167E1
7.955244647E0,-4.131873608E0,8.543579102E0,-6.588217735E0,1.155291030E1
7.965235532E0,-4.115235329E0,7.213688374E0,-9.226581573E0,1.241379351E1
7.975237095E0,-4.002504826E0,4.809499264E0,-1.154890442E1,1.313501128E1
7.985239178E0,-3.678723335E0,1.268911362E0,-1.396437454E1,1.449644431E1
7.995238397E0,-1.864271760E0,-2.686772346E0,-1.544957447E1,1.579188419E1
8.005243084E0,5.825620294E-1,-8.692611694E0,-1.638633156E1,1.855836034E1
8.015236314E0,7.899684310E-1,-1.018916607E1,-1.608462143E1,1.905671015E1
8.025241262E0,2.436060429E0,-1.080640697E1,-1.461734104E1,1.834065106E1
8.035237616E0,3.339105606E0,-1.068232822E1,-1.278160477E1,1.698914898E1
8.045238918E0,3.396503210E0,-8.840456963E0,-9.599803925E0,1.348503425E1
8.055241001E0,2.438938141E0,-6.309174538E0,-6.851566792E0,9.627983699E0
8.065238918E0,9.780625701E-1,-3.696249962E0,-3.803629160E0,5.393186902E0
8.075237876E0,-1.157413721E0,-1.141979218E0,-1.677452445E0,2.336144208E0
8.085236314E0,-2.804013014E0,-1.284425735E0,-4.856128693E-1,3.122188065E0
8.095233293E0,-3.974179268E0,-2.984495163E0,5.145292282E-1,4.996604103E0
8.105263762E0,-4.196784019E0,-5.007871628E0,2.491465092E0,6.992794338E0
8.115248605E0,-4.994473457E0,-6.713871956E0,5.188126564E0,9.845684283E0
8.125247564E0,-4.988509655E0,-7.578886986E0,6.464272499E0,1.114053749E1
8.135236105E0,-4.250893593E0,-7.551803589E0,6.416419983E0,1.078286971E1
8.145238137E0,-3.342565298E0,-6.811833382E0,6.263458252E0,9.838939275E0
8.155243084E0,-2.297325134E0,-5.482077599E0,6.185236931E0,8.578346779E0
8.165237616E0,-1.350852251E0,-3.479901314E0,6.788994789E0,7.747578022E0
8.175238657E0,-5.115580559E-1,-1.053030968E0,7.218399048E0,7.312718419E0
8.185237616E0,6.761314869E-1,3.788331509E0,4.656353951E0,6.040715315E0
8.195238657E0,7.729933858E-1,3.907926083E0,3.480585814E0,5.289979456E0
8.205245689E0,8.664125800E-1,3.782909870E0,3.129762650E0,4.985628555E0
8.215235897E0,9.273790121E-1,2.041554928E0,2.256675005E0,3.181282828E0
8.225239699E0,7.686299682E-1,3.302507401E-1,1.994764566E0,2.163086511E0
8.235236834E0,2.206108570E0,-1.007436752E0,4.491774440E-1,2.466496343E0
8.245237355E0,2.242954016E0,-2.298502922E0,3.187709749E-1,3.227316739E0
8.255244387E0,2.270718575E0,-2.439167023E0,2.176560760E-1,3.339621652E0
8.265235532E0,2.207167625E0,-2.489511490E0,1.529245824E-1,3.330561861E0
8.275358293E0,2.040278435E0,-2.376946449E0,-1.779257298E0,3.602550075E0
8.285242512E0,6.428424716E-1,-9.557161331E-1,-1.999076486E0,2.307151180E0
8.295247512E0,6.540595889E-1,5.740871429E-1,-3.020496130E0,3.143368713E0
8.305256522E0,-7.477858067E-1,2.227485657E0,-3.075838804E0,3.870614979E0
8.315238397E0,-1.768030763E0,3.558944702E0,-3.050143719E0,5.009530604E0
8.325233241E0,-2.657877207E0,4.356167793E0,-2.924394131E0,5.881546576E0
8.335238397E0,-2.812048435E0,4.403032780E0,-1.721975446E0,5.500864795E0
8.345236834E0,-2.890146971E0,4.368968010E0,-1.997119486E-1,5.242205247E0
8.355244387E0,-2.844997168E0,4.244579792E0,-1.705655456E-1,5.112686094E0
8.365237095E0,-9.937225580E-1,2.374413013E0,1.052560687E0,2.780864197E0
8.375240220E0,6.210901141E-1,1.406069756E0,1.701021791E0,2.292653532E0
8.385241522E0,1.752449989E0,4.294986725E-1,1.726685524E0,2.497397240E0
8.395233709E0,3.083058357E0,-9.922876358E-1,1.742551923E0,3.677821473E0
8.405244647E0,4.141973495E0,-9.750947952E-1,1.703940630E0,4.583684977E0
8.415237355E0,4.867721081E0,-1.059597969E0,1.530545712E0,5.211528236E0
8.425235793E0,4.970744610E0,-2.097524643E0,-4.523376226E-1,5.414103890E0
8.435236834E0,4.937392235E0,-2.126463890E0,-4.723214805E-1,5.396552449E0
8.445237876E0,4.777910709E0,-2.156889915E0,-1.674822450E0,5.503238600E0
8.455347668E0,3.935863733E0,-2.227765083E0,-1.893278122E0,4.902903491E0
8.465234022E0,3.635247231E0,-2.923523903E0,-2.887842894E0,5.486497154E0
8.475267355E0,2.742489815E0,-3.009322166E0,-3.003021002E0,5.059190194E0
8.485234074E0,2.569014788E0,-3.698123932E0,-3.111287594E0,5.473213689E0
8.495239178E0,2.449952364E0,-3.796432495E0,-3.155139923E0,5.510905026E0
8.505242564E0,2.434099436E0,-4.687669754E0,-3.175597429E0,6.163076084E0
8.515239178E0,3.378104925E0,-4.833976746E0,-3.147280931E0,6.684631727E0
8.525236053E0,4.080864429E0,-5.776847839E0,-3.135811090E0,7.736842809E0
8.535237616E0,4.747087479E0,-5.784075737E0,-3.129828691E0,8.110869207E0
8.545233970E0,5.473577976E0,-5.583690643E0,-3.715262175E0,8.656837187E0
8.555243084E0,5.407018185E0,-5.485383987E0,-3.692324638E0,8.541577394E0
8.565238137E0,5.255828857E0,-5.414889336E0,-3.661563635E0,8.387598688E0
8.575237355E0,4.401098251E0,-5.390082359E0,-3.579809189E0,7.825451264E0
8.585238918E0,3.018197775E0,-5.441224098E0,-3.429601431E0,7.104829588E0
8.595236834E0,1.311068416E0,-5.585033417E0,-2.699461699E0,6.340235967E0
8.605241782E0,-1.479172468E0,-6.782504082E0,-1.958764076E0,7.212979240E0
8.615236314E0,-2.659130573E0,-7.637896538E0,-1.761841774E0,8.277229329E0
8.625235272E0,-4.690273762E0,-8.357291222E0,-1.058964133E0,9.641804269E0
8.635307355E0,-6.441777229E0,-8.468231201E0,-9.452761412E-1,1.068180605E1
8.645241314E0,-7.715868473E0,-9.154311180E0,-8.379361033E-1,1.200159058E1
8.655252095E0,-8.478680611E0,-9.159883499E0,-7.700424194E-1,1.250537708E1
8.665242876E0,-8.489381790E0,-9.098346710E0,-7.772378922E-1,1.246810390E1
8.675238657E0,-8.278398514E0,-8.966425896E0,-8.912246823E-1,1.223613324E1
8.685238918E0,-7.166443825E0,-8.170689583E0,-1.916338682E0,1.103587057E1
8.695240480E0,-5.978494167E0,-8.010573387E0,-2.013386011E0,1.019634257E1
8.705251678E0,-4.695235252E0,-7.068908691E0,-2.057797432E0,8.732080762E0
8.715248293E0,-3.498800039E0,-6.885609627E0,-1.948987842E0,7.965662261E0
8.725252199E0,-6.320497990E-1,-4.937854767E0,5.278261900E-1,5.006046058E0
8.735251678E0,-4.392405152E-1,-4.180353165E0,5.546888113E-1,4.239807129E0
8.745254282E0,-4.563812613E-1,-3.305692673E0,3.818532228E-1,3.358824167E0
8.755246730E0,-2.845717967E-1,-2.316046715E0,2.203574657E0,3.209485124E0
8.765247251E0,-1.497231424E-1,-5.458106995E-1,2.933879852E0,2.987972109E0
8.775244647E0,-4.854727536E-2,-5.233697891E-1,3.056472778E0,3.101338198E0
8.785248032E0,9.312533736E-1,1.439416885E0,3.083526134E0,3.528071320E0
8.795247772E0,9.285384417E-1,2.834274292E0,3.072042942E0,4.281675167E0
8.805247512E0,-1.083568186E-1,4.172838688E0,3.058500528E0,5.174818779E0
8.815292772E0,-6.788268685E-2,5.443522453E0,3.031155109E0,6.230926581E0
8.825234699E0,-3.065651655E-2,6.599433899E0,2.980737209E0,7.241426788E0
8.835252564E0,-1.375141382E0,7.539278984E0,2.897237539E0,8.193029158E0
8.845243657E0,-2.139965534E0,9.091164589E0,2.799179077E0,9.750083568E0
8.855248814E0,-2.860772848E0,9.106557846E0,2.667730808E0,9.911115213E0
8.865236834E0,-3.030138731E0,9.120892525E0,2.497227669E0,9.930184651E0
8.875244647E0,-4.048095226E0,9.134143829E0,2.287503481E0,1.024950392E1
8.885245949E0,-4.159675121E0,9.146249771E0,1.321270823E0,1.013422610E1
8.895246991E0,-4.224712849E0,8.958201408E0,4.860362411E-1,9.916340169E0
8.905246991E0,-4.241126537E0,9.008955956E0,-2.171062946E0,1.019126862E1
8.915246730E0,-4.100292206E0,9.018177032E0,-4.464835167E0,1.086621674E1
8.925246209E0,-3.983426571E0,9.025448799E0,-7.298562527E0,1.227173289E1
8.935245689E0,-3.830762863E0,8.830451012E0,-9.690594673E0,1.365866883E1
8.945238918E0,-3.550822020E0,5.779263020E0,-1.178886127E1,1.360093630E1
8.955237876E0,-1.889018893E0,2.470569611E0,-1.345129585E1,1.380613873E1
8.965237355E0,-3.055810332E-1,-9.230298996E-1,-1.437188148E1,1.440473330E1
8.975235532E0,9.751121998E-1,-4.906829834E0,-1.436235619E1,1.520871783E1
8.985236834E0,2.450278282E0,-7.659066200E0,-1.416113377E1,1.628505045E1
8.995266939E0,3.356879711E0,-9.537591934E0,-1.367090321E1,1.700376122E1
9.005255949E0,4.294249058E0,-1.056460953E1,-1.192125797E1,1.649751318E1
9.015298293E0,5.060380459E0,-1.060467148E1,-1.048596954E1,1.574871629E1
9.025235324E0,5.004013538E0,-9.621913910E0,-8.410301208E0,1.372423204E1
9.035237095E0,3.794815779E0,-7.439559937E0,-5.748892307E0,1.013890732E1
9.045240220E0,1.181902528E0,-4.924362183E0,-3.305217743E0,6.047371397E0
9.055240741E0,-1.237217188E-1,-2.859229088E0,-1.616179705E0,3.286720992E0
9.065237095E0,-2.222576618E0,-1.170584679E0,-1.231104374E0,2.797451214E0
9.075240480E0,-4.070852280E0,-3.069056511E0,-2.173254490E-1,5.102761654E0
9.085240741E0,-6.020122051E0,-6.311177254E0,4.700492859E0,9.907949382E0
9.095238397E0,-6.116622448E0,-7.000015259E0,6.235597610E0,1.119356786E1
9.105236574E0,-6.097177029E0,-6.954233170E0,6.287667751E0,1.118354561E1
9.115234491E0,-5.253663063E0,-6.767170906E0,6.299872875E0,1.063409497E1
9.125236834E0,-4.047335625E0,-5.189702034E0,6.966234207E0,9.583441547E0
9.135236053E0,-2.466070652E0,-3.304531097E0,7.738506794E0,8.768461532E0
9.145236314E0,-7.364752293E-1,-1.022091866E0,8.279105186E0,8.374404470E0
9.155236834E0,1.220474005E0,2.122933388E0,7.161782742E0,7.568852952E0
9.165235793E0,1.372714162E0,3.797711849E0,5.531409264E0,6.848609195E0
9.175242043E0,2.625686169E0,3.880282402E0,4.349524975E0,6.392901288E0
9.185239126E0,2.851594448E0,3.093164444E0,3.974158764E0,5.787330564E0
9.195231053E0,3.581572533E0,1.380421162E0,2.864231825E0,4.789263862E0
9.205235584E0,3.632800102E0,-8.537864685E-1,2.594801426E0,4.545237327E0
9.215244647E0,3.623124123E0,-2.253471375E0,2.299260378E0,4.846829884E0
9.225238137E0,3.568121910E0,-3.300849915E0,6.352396607E-1,4.902105012E0
9.235238918E0,3.395522118E0,-3.367273331E0,5.122618675E-1,4.809419129E0
9.245238918E0,2.490699053E0,-3.304180145E0,4.187469780E-1,4.158910583E0
9.255242043E0,1.160182714E0,-6.869974136E-1,-1.721452951E0,2.186638891E0
9.265241522E0,-6.006202698E-1,8.298387527E-1,-1.961507559E0,2.212891540E0
9.275239959E0,-1.750964165E0,2.669723511E0,-2.794876814E0,4.243186955E0
9.285236834E0,-2.832515717E0,4.154671669E0,-2.747843504E0,5.730190737E0
9.295237876E0,-3.065474510E0,4.951999187E0,-1.860230684E0,6.113909398E0
9.305238137E0,-3.216369152E0,4.967812538E0,-8.710566163E-1,5.981883613E0
9.315237876E0,-3.157262564E0,4.858937263E0,7.173743844E-2,5.795060352E0
9.325226470E0,-2.104686975E0,3.902481556E0,1.287734151E0,4.617069287E0
9.335236574E0,-6.013841629E-1,2.960220337E0,2.115972996E0,3.688076609E0
9.345250116E0,7.838526368E-1,1.877436638E0,2.277442932E0,3.053840139E0
9.355239230E0,2.959572792E0,7.650403976E-1,3.019696236E0,4.296850390E0
9.365226626E0,4.554794312E0,-8.128347397E-1,3.001000166E0,5.514784994E0
9.375234126E0,5.700880051E0,-7.947902679E-1,2.895769596E0,6.443384706E0
9.385235845E0,5.852201939E0,-7.761297226E-1,2.156337023E0,6.284937091E0
9.395239178E0,5.908072472E0,-7.567787170E-1,1.946320653E0,6.266274686E0
9.405240220E0,5.797364235E0,-7.331066132E-1,9.446932673E-1,5.919402229E0
9.415239439E0,4.832993031E0,-8.020973206E-1,-2.303232849E-1,4.904511246E0
9.425239178E0,3.780101061E0,-7.706308365E-1,-2.792597115E-1,3.867948022E0
9.435240220E0,1.846884370E0,-7.230253220E-1,-1.700870752E0,2.612797123E0
9.445238657E0,1.561172009E0,-2.055003166E0,-2.558025360E0,3.633701941E0
9.455238137E0,1.338908911E0,-2.881511688E0,-2.709442616E0,4.175747354E0
9.465237876E0,1.201603174E0,-3.702053070E0,-2.824547291E0,4.809065868E0
9.475237095E0,1.163287401E0,-4.537467957E0,-2.879712105E0,5.498599353E0
9.485236314E0,1.820686936E0,-5.263664246E0,-2.900393724E0,6.279597596E0
9.495238918E0,1.891491771E0,-5.371830940E0,-2.869963169E0,6.377381701E0
9.505236314E0,2.977362156E0,-5.435991287E0,-2.847728252E0,6.820868191E0
9.515235793E0,3.642137051E0,-5.412015915E0,-2.811709881E0,7.103575931E0
9.525253501E0,4.272503853E0,-5.322134018E0,-2.766298294E0,7.364224734E0
9.535232668E0,4.325650692E0,-5.228515625E0,-2.713537216E0,7.308345488E0
9.545237668E0,4.873919487E0,-5.156011581E0,-2.700026035E0,7.591421947E0
9.555224855E0,4.796940327E0,-5.106757164E0,-2.732359886E0,7.520332159E0
9.565235376E0,4.594720840E0,-5.086754799E0,-3.325164795E0,7.618612400E0
9.575239178E0,3.374501228E0,-5.135936737E0,-3.222865582E0,6.939161856E0
9.585238918E0,2.142829895E0,-5.282282829E0,-3.049376011E0,6.464744844E0
9.595242303E0,6.816887856E-1,-6.555377007E0,-1.923284769E0,6.865616622E0
9.605239178E0,-1.356927395E0,-7.348010063E0,-1.736713767E0,7.671419592E0
9.615237355E0,-4.690507412E0,-8.206487656E0,-9.989868999E-1,9.505013112E0
9.625236574E0,-6.037844181E0,-9.079008102E0,-8.503521681E-1,1.093650078E1
9.635240741E0,-7.026885986E0,-9.116987228E0,6.176154613E-1,1.152727338E1
9.645237616E0,-7.120007515E0,-9.089241028E0,4.856360555E-1,1.155615212E1
9.655237095E0,-7.038278103E0,-8.985719681E0,5.439150929E-1,1.142700138E1
9.665236574E0,-6.166827202E0,-8.271227837E0,5.786115527E-1,1.033333242E1
9.675233970E0,-4.997479439E0,-8.091587067E0,-9.738186002E-1,9.560172837E0
9.685235532E0,-3.613934517E0,-6.955186844E0,-1.010269761E0,7.902897678E0
9.695236834E0,-2.334638357E0,-6.134730339E0,-9.394072294E-1,6.630832416E0
9.705261053E0,-7.169095278E-1,-5.282820702E0,5.192651749E-1,5.356471801E0
9.715234907E0,-5.328165889E-1,-4.495624542E0,5.493592024E-1,4.560299231E0
9.725240532E0,-3.580457270E-1,-3.721198082E0,5.427962542E-1,3.777583842E0
9.735225741E0,-1.924036294E-1,-2.838854790E0,5.379706025E-1,2.895777623E0
9.745232616E0,-2.566985190E-1,-1.748575211E0,1.925462842E0,2.613583087E0
9.755238657E0,-1.590753794E-1,-3.278188705E-1,2.049202204E0,2.081345685E0
9.765237876E0,-1.059104502E-1,7.433395386E-1,3.066239357E0,3.156832984E0
9.775241522E0,-5.507096648E-2,2.115554810E0,3.110132217E0,3.761851588E0
9.785240480E0,-5.626127124E-3,3.443615437E0,3.116622686E0,4.644551205E0
9.795241262E0,-1.183577999E-1,5.943249702E0,3.023453236E0,6.669145002E0
9.805240220E0,-7.348405570E-2,6.986739159E0,2.949340820E0,7.584097524E0
9.815236574E0,-1.586018562E0,7.753074646E0,2.842447281E0,8.408634128E0
9.825237355E0,-1.662221909E0,7.865540504E0,2.731898785E0,8.490758510E0
9.835241001E0,-1.771069050E0,9.306755066E0,2.604424238E0,9.825243053E0
9.845237876E0,-2.532829523E0,9.321126938E0,2.437351227E0,9.961893083E0
9.855241782E0,-2.620723248E0,9.334462166E0,2.254302979E0,9.954007042E0
9.865236053E0,-2.724067926E0,9.346689224E0,2.066053629E0,9.952372738E0
9.875236834E0,-3.439019918E0,9.357707977E0,1.170791268E0,1.003814270E1
9.885237459E0,-3.460420847E0,9.168291092E0,9.203383923E-1,9.842717955E0
9.895248137E0,-3.474674940E0,9.177202225E0,-8.178569674E-1,9.846994294E0
9.905243918E0,-3.459936142E0,9.184452057E0,-1.985253453E0,1.001331858E1
9.915251887E0,-3.429223061E0,9.189698219E0,-4.312707901E0,1.071492294E1
9.925239959E0,-4.115693569E0,9.192863464E0,-7.066545963E0,1.230381014E1
9.935235845E0,-4.035428524E0,6.021650791E0,-9.892172813E0,1.226376959E1
9.945248293E0,-3.739315510E0,2.686756134E0,-1.250318146E1,1.332406415E1
9.955250897E0,-1.879203796E0,-7.571821213E-1,-1.442832756E1,1.456987879E1
9.965246209E0,-2.406290174E-1,-4.768291473E0,-1.556529808E1,1.628106293E1
9.975251939E0,2.248390436E0,-9.034833908E0,-1.558192730E1,1.815158235E1
9.985246730E0,3.226171732E0,-9.139163971E0,-1.509234715E1,1.793631636E1
9.995248814E0,4.406506538E0,-9.078881264E0,-1.305739307E1,1.650269368E1
1.000524595E1,4.572080612E0,-7.596802711E0,-1.068608379E1,1.388552193E1
1.001524933E1,4.364525795E0,-5.114410400E0,-7.695035934E0,1.021860349E1
1.002524647E1,1.114647865E0,-2.431959152E0,-4.769598484E0,5.468631902E0
1.003524855E1,-1.392736435E-1,-8.454036713E-1,-2.896336794E0,3.020409134E0
1.004524699E1,-2.202624083E0,-8.980112076E-1,-2.440722466E0,3.408093768E0
1.005525142E1,-3.579555035E0,-9.542417526E-1,-2.041747808E0,4.229955754E0
1.006523501E1,-4.315122604E0,-4.439704895E0,-3.666141033E-1,6.202069699E0
1.007525355E1,-4.454172134E0,-6.773357391E0,1.740013599E0,8.291300687E0
1.008524288E1,-4.492435932E0,-8.229630470E0,3.070812941E0,9.866037219E0
1.009524860E1,-4.382478714E0,-8.301051140E0,4.392839909E0,1.036390912E1
1.010524053E1,-3.137471914E0,-8.181606293E0,4.391202927E0,9.801279237E0
1.011524803E1,-2.134830713E0,-6.591782570E0,5.046806812E0,8.572010186E0
1.012524933E1,-1.325817823E0,-4.123100281E0,6.328220367E0,7.668384566E0
1.013524595E1,-1.161396742E0,-9.551296234E-1,7.501971245E0,7.651188636E0
1.014525246E1,-1.023913980E0,2.601940155E0,7.363273621E0,7.876312006E0
1.015524907E1,-8.504223824E-1,6.315887928E0,5.210818291E0,8.232028049E0
1.016524621E1,-7.030719519E-1,6.301428795E0,4.329663754E0,7.677779838E0
1.017525480E1,8.131647110E-2,4.929266453E0,4.104933262E0,6.415197364E0
1.018523996E1,1.228576779E0,2.857623100E0,3.891825914E0,4.982140066E0
1.019523762E1,1.314346910E0,4.743661880E-1,3.668227434E0,3.925356492E0
1.020523371E1,1.397943258E0,-7.273273468E-1,2.838414192E0,3.246512829E0
1.021523866E1,2.950504303E0,-3.333694458E0,2.618369102E0,5.164770192E0
1.022524647E1,3.089911938E0,-4.251803398E0,1.374809146E0,5.432815854E0
1.023523579E1,3.152338028E0,-4.259098053E0,1.287197113E0,5.452891680E0
1.024523329E1,3.079936028E0,-3.538213730E0,1.204055190E0,4.843006425E0
1.025525699E1,2.922112465E0,-2.076664925E0,-3.248810768E-3,3.584869457E0
1.026523866E1,1.185659766E0,-6.552600861E-1,-7.987103462E-1,1.572607096E0
1.027523970E1,1.176269531E0,1.829817295E0,-9.822008014E-1,2.386746689E0
1.028524444E1,1.168084264E0,3.578727722E0,-1.083316565E0,3.917306184E0
1.029523736E1,-7.377265692E-1,4.742235184E0,-1.038434148E0,4.910334053E0
1.030523683E1,-9.382023811E-1,4.834840298E0,-3.599711061E-1,4.938166017E0
1.031523605E1,-1.714728355E0,4.826305866E0,5.642923713E-1,5.152858190E0
1.032523715E1,-1.718528628E0,4.674900055E0,5.751811266E-1,5.013867220E0
1.033524074E1,-8.839482069E-1,2.668092728E0,6.332889199E-1,2.881169570E0
1.034523814E1,-7.550715208E-1,1.884104252E0,6.517029405E-1,2.131829861E0
1.035524100E1,9.516186118E-1,1.723303318E0,4.696406722E-1,2.023836621E0
1.036524022E1,1.042814732E0,7.610521317E-1,4.897322357E-1,1.380760868E0
1.037524282E1,1.132825255E0,6.768016815E-1,5.100825429E-1,1.414757144E0
1.038523710E1,2.446322918E0,5.679702759E-1,5.289124250E-1,2.566482886E0
1.039523631E1,2.607817650E0,-6.172704697E-1,5.480334759E-1,2.735338447E0
1.040523631E1,3.500604153E0,-7.005720139E-1,3.631334901E-1,3.588439286E0
1.041523579E1,3.563106060E0,-6.728181839E-1,3.776497841E-1,3.645686281E0
1.042525131E1,4.268623829E0,-1.698764801E0,3.923081160E-1,4.610949674E0
1.043525543E1,4.322573185E0,-2.748059273E0,-8.060548306E-1,5.185189784E0
1.044524626E1,4.945309162E0,-3.826300621E0,-9.176501036E-1,6.319710505E0
1.045523428E1,4.941195965E0,-4.745661736E0,-1.027155995E0,6.927609422E0
1.046523610E1,5.474861145E0,-5.405945778E0,-1.650789738E0,7.869146146E0
1.047524569E1,5.366696835E0,-5.506568909E0,-1.710679650E0,7.877192452E0
1.048523689E1,5.201530933E0,-6.224885941E0,-1.803310633E0,8.310057657E0
1.049523944E1,5.017594337E0,-6.244124413E0,-1.935073137E0,8.240743332E0
1.050524126E1,4.791903019E0,-6.233139038E0,-2.742825031E0,8.326910950E0
1.051523814E1,4.607931614E0,-6.123941422E0,-2.767997265E0,8.148466184E0
1.052524282E1,4.408038139E0,-6.080305099E0,-2.687812090E0,7.976543372E0
1.053523710E1,4.166857719E0,-6.083588600E0,-2.575228691E0,7.810541359E0
1.054524074E1,3.335340500E0,-6.171200752E0,-2.459067106E0,7.433385905E0
1.055523657E1,2.300671339E0,-6.950730324E0,-2.331796408E0,7.683945284E0
1.056523762E1,8.820486069E-1,-7.097647667E0,-1.511319160E0,7.310177683E0
1.057524074E1,-1.107297778E0,-8.088827133E0,-1.318619013E0,8.270065832E0
1.058523501E1,-2.947527409E0,-8.188905716E0,-5.024421215E-1,8.717714307E0
1.059523605E1,-5.146169662E0,-8.300082207E0,-4.233992100E-1,9.775156967E0
1.060537381E1,-7.157402992E0,-8.984906197E0,-3.669009209E-1,1.149310982E1
1.061524637E1,-8.636346817E0,-8.984183311E0,-3.346914649E-1,1.246651734E1
1.062526074E1,-9.453271866E0,-8.890844345E0,-3.367434144E-1,1.298171246E1
1.063523486E1,-9.411289215E0,-8.124869347E0,-3.469868302E-1,1.243809738E1
1.064523506E1,-8.539908409E0,-7.950942993E0,-4.391605854E-1,1.167648886E1
1.065523710E1,-7.174255848E0,-6.999118805E0,-1.109564424E0,1.008408371E1
1.066524074E1,-5.576800346E0,-6.833917618E0,-1.202927351E0,8.902256249E0
1.067524881E1,-3.907026529E0,-5.879175186E0,-1.265329242E0,7.171514154E0
1.068523579E1,-2.326161623E0,-5.695777893E0,-1.212626934E0,6.270835493E0
1.069523683E1,-4.471269250E-1,-4.422026634E0,7.097243071E-1,4.500883317E0
1.070523605E1,-2.614558339E-1,-3.211529732E0,7.359202504E-1,3.305126470E0
1.071523892E1,-8.507221192E-2,-2.289793968E0,2.433538914E0,3.342529782E0
1.072524282E1,6.333129108E-2,-1.162064552E0,3.363586426E0,3.559230046E0
1.073523736E1,-3.545280918E-2,-1.930074692E-1,4.172272682E0,4.176884978E0
1.074523762E1,1.277944446E-2,1.640159607E0,4.306601048E0,4.608372753E0
1.075523866E1,6.053574011E-2,3.148736954E0,4.863216400E0,5.793883217E0
1.076523814E1,1.063252464E-1,4.661425591E0,4.748752594E0,6.655136722E0
1.077524178E1,1.516523957E-1,6.098505020E0,4.577271461E0,7.626675289E0
1.078536329E1,-6.279885769E-3,7.338562965E0,4.377739906E0,8.545124488E0
1.079524142E1,3.438271582E-2,8.301844597E0,4.173663616E0,9.292000531E0
1.080524730E1,7.333942503E-2,9.564808846E0,3.944449902E0,1.034647921E1
1.081524595E1,-1.442432284E0,9.581305504E0,3.075229645E0,1.016558230E1
1.082524183E1,-1.582864761E0,9.596146584E0,2.867449522E0,1.013971187E1
1.083523944E1,-2.612612247E0,9.409800529E0,2.620314121E0,1.011118860E1
1.084524256E1,-2.757860422E0,9.421663284E0,1.585239887E0,9.944170084E0
1.085524308E1,-3.717324018E0,9.431541443E0,1.325344801E0,1.022394301E1
1.086523683E1,-3.813075542E0,9.439203262E0,-6.401426792E-1,1.020038656E1
1.087524178E1,-3.862456560E0,9.286190033E0,-2.305501938E0,1.031829614E1
1.088523553E1,-3.755927563E0,9.291230202E0,-4.620947838E0,1.103571971E1
1.089523970E1,-3.642415762E0,9.293513298E0,-7.530986786E0,1.250409309E1
1.090523970E1,-3.460462570E0,7.929981232E0,-1.083609486E1,1.386651922E1
1.091523710E1,-2.161689520E0,5.116028786E0,-1.269787407E1,1.385938880E1
1.092524152E1,-5.036661625E-1,1.452278614E0,-1.450248909E1,1.458372321E1
1.093523579E1,8.448808789E-1,-2.225841522E0,-1.554006767E1,1.572138345E1
1.094523736E1,2.898495913E0,-5.313724518E0,-1.556581688E1,1.670124552E1
1.095523657E1,4.098180294E0,-7.513969421E0,-1.540124702E1,1.761968297E1
1.096535683E1,4.432518482E0,-8.784020424E0,-1.491201401E1,1.786545260E1
1.097526090E1,5.682739258E0,-8.926771164E0,-1.322417545E1,1.693692963E1
1.098525340E1,5.794486046E0,-8.884038925E0,-1.132120609E1,1.551360447E1
1.099523428E1,5.592209816E0,-7.110668182E0,-8.282712936E0,1.226530661E1
1.100523428E1,3.540187120E0,-4.711707115E0,-5.427332878E0,8.011806972E0
1.101524048E1,1.152279735E0,-2.504476547E0,-2.490439177E0,3.715163342E0
1.102524282E1,-1.560275912E0,-8.996887207E-1,-5.418167114E-1,1.880815266E0
1.103523736E1,-4.152857780E0,-9.799556732E-1,-1.615290642E-1,4.269968677E0
1.104523814E1,-6.245330334E0,-3.479724884E0,1.397514343E-1,7.150675962E0
1.105523996E1,-7.630008221E0,-7.403787613E0,5.434694290E0,1.194022607E1
1.106523710E1,-7.732019424E0,-7.531430244E0,6.868237495E0,1.279371925E1
1.107524439E1,-7.601529121E0,-7.494513512E0,6.787660599E0,1.265003218E1
1.108523579E1,-6.072866917E0,-7.283037186E0,6.601201057E0,1.155414206E1
1.109523631E1,-4.412823200E0,-5.550207138E0,6.545457363E0,9.649912951E0
1.110523918E1,-2.519202709E0,-3.305739403E0,8.013717651E0,9.027400838E0
1.111523631E1,-6.554490328E-1,-7.837553024E-1,9.253980637E0,9.310211782E0
1.112524256E1,1.161467552E0,3.021638870E0,8.840025902E0,9.414104646E0
1.113523397E1,1.343369484E0,4.840638161E0,6.602443695E0,8.296305329E0
1.114536465E1,1.516124964E0,4.950799465E0,4.836204052E0,7.085049039E0
1.115523798E1,3.272799969E0,4.780557156E0,3.509070873E0,6.773368789E0
1.116525189E1,3.456504822E0,2.710327625E0,1.338178515E0,4.591734221E0
1.117526084E1,4.319297791E0,6.946640015E-1,1.187834382E0,4.533193355E0
1.118523663E1,4.352782249E0,-5.637569427E-1,1.045698047E0,4.511986215E0
1.119524621E1,4.359851837E0,-2.642767906E0,9.104146361E-1,5.178936672E0
1.120524517E1,4.324417114E0,-3.558117867E0,-1.028095961E0,5.693660284E0
1.121523710E1,4.118780136E0,-3.596040726E0,-1.232294798E0,5.604855857E0
1.122524751E1,2.980110645E0,-3.478111267E0,-1.327692509E0,4.768761353E0
1.123525194E1,1.134708643E0,-4.009962082E-1,-2.066297531E0,2.391222940E0
1.124524751E1,-8.730121851E-1,1.801478386E0,-2.110463381E0,2.908870972E0
1.125524986E1,-2.215925694E0,3.776061535E0,-2.129282951E0,4.868553510E0
1.126524699E1,-3.380782366E0,5.148594856E0,-2.025148392E0,6.483744628E0
1.127525012E1,-4.237968445E0,5.926389217E0,-1.314570189E0,7.403415460E0
1.128524543E1,-4.379087448E0,5.954662323E0,-4.805271029E-1,7.407112565E0
1.129524777E1,-4.349834442E0,5.865148544E0,7.438020110E-1,7.339909301E0
1.130524439E1,-3.598889828E0,4.963729858E0,6.305403709E-1,6.163457087E0
1.131528501E1,-2.378473282E0,3.856395721E0,2.252453327E0,5.059888250E0
1.132562699E1,-8.656663895E-1,2.507238865E0,2.455901623E0,3.614841325E0
1.133525345E1,9.570335746E-1,1.079173088E0,3.360830545E0,3.657281746E0
1.134523579E1,2.328151703E0,-4.972400665E-1,3.422564983E0,4.169111308E0
1.135525558E1,3.697232485E0,-5.865497589E-1,3.386932611E0,5.048255261E0
1.136524496E1,4.585526943E0,-5.764198303E-1,3.267197132E0,5.659849315E0
1.137524699E1,4.761085510E0,-1.830405235E0,2.414482594E0,5.643407194E0
1.138524673E1,4.787982941E0,-1.834934235E0,6.576566696E-1,5.169552841E0
1.139524803E1,4.611629009E0,-1.793003082E0,6.091969609E-1,4.985288669E0
1.140525168E1,3.366865635E0,-1.727601051E0,3.605741262E-1,3.801368608E0
1.141526418E1,2.286255360E0,-1.750593185E0,-1.282817841E0,3.152326392E0
1.142523553E1,9.234896898E-1,-2.378617287E0,-1.453985929E0,2.936788805E0
1.143524439E1,8.326702714E-1,-3.032139778E0,-1.611362696E0,3.533228149E0
1.144523866E1,2.253247023E0,-3.743099213E0,-1.698360085E0,4.687466356E0
1.145524282E1,3.375576735E0,-4.481952667E0,-1.778060794E0,5.885908442E0
1.146523553E1,4.764898777E0,-5.234003067E0,-2.455996752E0,7.492060365E0
1.147523710E1,6.166732311E0,-5.896067619E0,-2.472386599E0,8.882842803E0
1.148523840E1,7.348151684E0,-5.980157852E0,-2.531897068E0,9.806534753E0
1.149523683E1,8.128142357E0,-6.024371147E0,-3.260059357E0,1.062956880E1
1.150538767E1,8.108530998E0,-6.014124870E0,-3.241435051E0,1.060305966E1
1.151527637E1,8.014666557E0,-5.956206322E0,-3.195896387E0,1.048451370E1
1.152524584E1,7.729207993E0,-5.883717537E0,-3.156620979E0,1.021386529E1
1.153523564E1,6.165528774E0,-5.812401772E0,-3.076025486E0,9.014415800E0
1.154523767E1,4.446033001E0,-5.772887230E0,-2.908313274E0,7.845490585E0
1.155524491E1,2.450846672E0,-5.799676895E0,-1.982479095E0,6.600994233E0
1.156523605E1,3.462834358E-1,-5.908270836E0,-1.228028536E0,6.044471075E0
1.157524074E1,-1.308568120E0,-6.751458168E0,-1.022966862E0,6.952769169E0
1.158523996E1,-3.933286190E0,-6.907814026E0,-2.182148099E-1,7.952122520E0
1.159523605E1,-7.325750828E0,-8.140497208E0,-9.916502237E-2,1.095190183E1
1.160524360E1,-8.498447418E0,-8.950734138E0,9.350509644E-1,1.237794694E1
1.161526366E1,-9.208887100E0,-8.937599182E0,9.841782451E-1,1.287062110E1
1.162524074E1,-9.210488319E0,-8.829430580E0,1.028408766E0,1.280037359E1
1.163523475E1,-9.023053169E0,-8.062431335E0,-1.468608975E-1,1.210123364E1
1.164523866E1,-7.820758343E0,-7.872035027E0,-2.555629015E-1,1.109948237E1
1.165524230E1,-6.363519192E0,-6.844568253E0,-3.594243526E-1,9.352629413E0
1.166523683E1,-4.740552902E0,-6.652049065E0,-4.316605926E-1,8.179787861E0
1.167523892E1,-3.002425909E0,-5.607316017E0,-3.983594775E-1,6.373009064E0
1.168536819E1,-1.391786575E0,-5.453357697E0,-2.485003471E-1,5.633642912E0
1.169524272E1,-2.287257612E-1,-4.634414673E0,7.828469872E-1,4.705631120E0
1.170525189E1,1.154686093E0,-4.489656448E0,1.834041715E0,4.985381030E0
1.171527611E1,1.435788512E0,-3.300059319E0,2.747102022E0,4.527521361E0
1.172523480E1,1.641779661E0,-2.231156349E0,3.418032169E0,4.399595779E0
1.173523944E1,1.736635685E0,-6.704044342E-2,3.523663521E0,3.928944201E0
1.174524022E1,1.709651351E0,-4.504585266E-2,4.420848370E0,4.740130502E0
1.175524543E1,1.502516389E0,2.522095680E0,4.378701210E0,5.271768812E0
1.176523762E1,2.926015854E-1,4.400710583E0,4.295570850E0,6.156606066E0
1.177524335E1,-1.061726093E0,7.928288460E0,4.175422668E0,9.023257431E0
1.178523814E1,-1.232822418E0,9.693313599E0,4.031956673E0,1.057056546E1
1.179524048E1,-2.177119017E0,9.711898804E0,3.841727734E0,1.066863148E1
1.180524308E1,-2.325214863E0,1.114286995E1,3.641772032E0,1.195126263E1
1.181526236E1,-3.039203644E0,1.123206329E1,3.407329798E0,1.212459900E1
1.182523683E1,-3.099555492E0,1.129936790E1,2.515903950E0,1.198385297E1
1.183523657E1,-3.182535887E0,1.134747791E1,2.285173416E0,1.200482433E1
1.184523736E1,-3.243525982E0,1.136335182E1,1.330714464E0,1.189188910E1
1.185524152E1,-3.873675585E0,1.134095860E1,3.793804646E-1,1.199027247E1
1.186536069E1,-3.845885992E0,1.127413273E1,-7.671427131E-1,1.193672551E1
1.187524204E1,-3.804545403E0,1.112897110E1,-2.982580662E0,1.213360420E1
1.188541220E1,-3.790779591E0,9.348055840E0,-5.905646801E0,1.168900432E1
1.189524079E1,-4.780146599E0,9.343072891E0,-8.833743095E0,1.371779245E1
1.190524803E1,-4.752229691E0,7.061602592E0,-1.109522915E1,1.398406336E1
1.191526626E1,-4.500596523E0,3.304673195E0,-1.411923695E1,1.518318431E1
1.192523970E1,-2.830583096E0,-5.992975235E-1,-1.590817547E1,1.616914979E1
1.193523788E1,-1.014075518E0,-4.844474792E0,-1.688027763E1,1.759093682E1
1.194524204E1,1.434185505E0,-7.710181236E0,-1.667236900E1,1.842475701E1
1.195524673E1,3.509233475E0,-1.059294605E1,-1.528742504E1,1.892698048E1
1.196524230E1,5.070797443E0,-1.065781307E1,-1.315734673E1,1.767534269E1
1.197524204E1,5.321211815E0,-1.048232937E1,-9.118235588E0,1.487739038E1
1.198524360E1,5.085536480E0,-7.670373917E0,-5.998308182E0,1.098530921E1
1.199524048E1,1.817626715E0,-4.989193916E0,-2.647047758E0,5.933185034E0
1.200524256E1,-8.447554111E-1,-3.285818100E0,-1.245120049E0,3.613936389E0
1.201526444E1,-3.828164101E0,-3.433378220E0,-1.685615540E0,5.411490195E0
1.202523683E1,-5.676023960E0,-5.124451637E0,-1.167862654E0,7.735706545E0
1.203523683E1,-6.650810719E0,-6.560320854E0,1.742317200E0,9.502987012E0
1.204533579E1,-6.797732830E0,-7.466571808E0,3.441334009E0,1.066778543E1
1.205523538E1,-6.789268494E0,-7.465724945E0,5.156776428E0,1.133241187E1
1.206540574E1,-5.748280525E0,-7.324800491E0,5.102550507E0,1.061750691E1
1.207523767E1,-4.328914642E0,-6.024804115E0,5.058094025E0,8.978979996E0
1.208523710E1,-2.665463924E0,-4.232844353E0,6.320615768E0,8.060511953E0
1.209523736E1,-8.511903286E-1,-7.229890823E-1,8.723857880E0,8.795051705E0
1.210524465E1,3.281079531E-1,2.045482635E0,9.356762886E0,9.583353575E0
1.211526366E1,1.426101327E0,4.413149834E0,8.244639397E0,9.459584305E0
1.212523892E1,1.542819738E0,5.465029716E0,6.654664516E0,8.748222812E0
1.213524022E1,2.960169554E0,3.981584072E0,4.486891747E0,6.689380618E0
1.214523605E1,4.048586845E0,1.949698448E0,3.538309574E0,5.719441767E0
1.215524881E1,4.773184299E0,-5.885314941E-1,3.219156265E0,5.787281291E0
1.216524126E1,5.484408855E0,-2.494639397E0,1.543285012E0,6.219621760E0
1.217523657E1,5.529538631E0,-4.147032738E0,1.415056467E0,7.055215291E0
1.218523683E1,5.440472603E0,-5.044159889E0,1.290086150E0,7.530379367E0
1.219523657E1,5.194014549E0,-5.013888359E0,1.166796565E0,7.312884372E0
1.220524282E1,3.631085634E0,-4.224051476E0,-3.256469369E-1,5.579734732E0
1.221525980E1,2.301550865E0,-2.657650948E0,-1.304342866E0,3.749874032E0
1.222536782E1,9.684461355E-1,-2.722787857E-1,-2.114674807E0,2.341767109E0
1.223523683E1,-6.364414692E-1,1.815006256E0,-2.251596212E0,2.961248209E0
1.224542387E1,-2.293295383E0,4.035761833E0,-2.328119755E0,5.192948958E0
1.225524704E1,-3.702568531E0,5.671065331E0,-2.307478666E0,7.155029944E0
1.226523527E1,-4.631645679E0,6.502530098E0,-2.176988125E0,8.274920946E0
1.227523788E1,-4.784145355E0,6.540713310E0,-8.359266520E-1,8.146640458E0
1.228523428E1,-4.759751320E0,6.491263390E0,7.518114448E-1,8.084364754E0
1.229523918E1,-3.775803089E0,6.310720444E0,8.249806166E-1,7.400167194E0
1.230524387E1,-2.423584700E0,4.766892433E0,2.402918100E0,5.862682122E0
1.231526600E1,6.089907289E-1,1.600384235E0,3.273705482E0,3.694488733E0
1.232522647E1,2.473236799E0,-3.412523270E-1,3.385138512E0,4.206247277E0
1.233524204E1,3.998714447E0,-3.282279968E-1,3.369777679E0,5.239546970E0
1.234523710E1,5.066921711E0,-2.077937126E0,3.228393793E0,6.357204166E0
1.235524282E1,5.276490211E0,-2.212925911E0,2.033338308E0,6.072302258E0
1.236523657E1,5.322769642E0,-2.286016464E0,5.811660290E-1,5.821984360E0
1.237523892E1,5.156709194E0,-2.302333832E0,5.260611773E-1,5.671783771E0
1.238523840E1,3.865944386E0,-2.287290573E0,-1.096320152E0,4.623758432E0
1.239523762E1,2.761010170E0,-2.274011612E0,-1.316286445E0,3.811419155E0
1.240525808E1,1.738449097E0,-2.288625717E0,-2.100474596E0,3.559776182E0
1.241528845E1,1.417582870E0,-2.327371597E0,-2.202606201E0,3.503951173E0
1.242523215E1,3.019007146E-1,-2.978838921E0,-2.230554819E0,3.733630962E0
1.243523366E1,2.041679621E-1,-3.726753235E0,-2.141246796E0,4.302942257E0
1.244523663E1,2.013402939E0,-4.819956779E0,-2.041351795E0,5.608287787E0
1.245524100E1,3.492569208E0,-5.830995560E0,-1.943670511E0,7.069399122E0
1.246524881E1,5.147639275E0,-5.958169937E0,-1.961262345E0,8.114464190E0
1.247524881E1,6.648674011E0,-6.559329987E0,-2.531247377E0,9.676615589E0
1.248524907E1,7.761787891E0,-6.571681023E0,-2.512958050E0,1.047603460E1
1.249524933E1,9.049167633E0,-6.672510147E0,-2.308698177E0,1.147780091E1
1.250524933E1,8.946736336E0,-6.729452133E0,-1.538453221E0,1.130028563E1
1.251528371E1,6.379576683E0,-6.766043663E0,-1.467392564E0,9.414435004E0
1.252524855E1,3.911919117E0,-6.787428856E0,-1.452526927E0,7.967567767E0
1.253525064E1,9.505678415E-1,-6.823209763E0,-1.470467806E0,7.044291750E0
1.254524647E1,-1.634357333E0,-6.895631790E0,-1.485941768E0,7.240779282E0
1.255524673E1,-5.045175552E0,-6.984827995E0,-1.478328943E0,8.742258000E0
1.256524725E1,-7.749190331E0,-7.049067497E0,-1.468751788E0,1.057811586E1
1.257525116E1,-1.000698566E1,-7.056785583E0,-1.468017340E0,1.233260150E1
1.258523564E1,-1.188429070E1,-6.975771904E0,-1.449996352E0,1.385641542E1
1.259526251E1,-1.188124847E1,-6.149117470E0,-1.377716780E0,1.344893358E1
1.260523871E1,-1.178947163E1,-5.989266396E0,-1.203681350E0,1.327824544E1
1.261524642E1,-1.020366192E1,-5.167001724E0,-1.596657038E-1,1.143844904E1
1.262524178E1,-8.252959251E0,-5.042723656E0,1.002280593E0,9.723423505E0
1.263523782E1,-5.964423180E0,-4.914525032E0,8.614597321E-1,7.776182420E0
1.264523475E1,-3.654215336E0,-4.794535637E0,9.187663198E-1,6.097949921E0
1.265523814E1,-9.330497980E-1,-4.691776276E0,9.764147401E-1,4.882287608E0
1.266523892E1,-6.979297400E-1,-4.620143890E0,1.003044963E0,4.779009802E0
1.267523918E1,1.167547703E0,-4.540925980E0,8.405553102E-1,4.763371665E0
1.268523710E1,1.388766766E0,-4.413710594E0,2.166908741E0,5.109306003E0
1.269523657E1,1.448678374E0,-3.217607498E0,2.265545368E0,4.193371300E0
1.270523840E1,1.319854021E0,-1.962933540E0,3.227159739E0,4.001210154E0
1.271526340E1,-1.648030430E-1,1.136236191E-1,3.317863703E0,3.323896797E0
1.272523631E1,-3.060686886E-1,1.485945702E0,3.913176060E0,4.196982195E0
1.273523631E1,-2.484980822E-1,3.539128304E0,3.848274469E0,5.234156746E0
1.274523631E1,-1.923562288E-1,5.658186913E0,3.707349777E0,6.767312792E0
1.275524334E1,-1.393343508E-1,7.708024979E0,3.569106817E0,8.495386195E0
1.276523387E1,-8.905924857E-2,9.901894569E0,3.441873074E0,1.048341251E1
1.277525991E1,-1.171748042E0,9.720930099E0,3.294333220E0,1.033063923E1
1.278523829E1,-1.199937582E0,1.136600304E1,3.078158379E0,1.183642405E1
1.279524840E1,-1.232362986E0,1.140098763E1,2.104171038E0,1.165884956E1
1.280523803E1,-1.262044549E0,1.135839558E1,1.876082540E0,1.158126039E1
1.281525975E1,-1.309132576E0,1.121367836E1,1.036134124E0,1.133728294E1
1.282523866E1,-1.396645546E0,9.583362579E0,8.476929665E-1,9.721627460E0
1.283523918E1,-2.061929226E0,9.595326424E0,6.405321956E-1,9.835248995E0
1.284524048E1,-2.088612556E0,9.606174469E0,-5.054301023E-1,9.843594360E0
1.285524152E1,-2.195953369E0,8.440990448E0,-5.089905262E-1,8.736795883E0
1.286523710E1,-2.199843168E0,8.357268333E0,-7.501830459E-1,8.674446297E0
1.287524074E1,-2.165029526E0,8.262611389E0,-2.470014334E0,8.891516779E0
1.288523840E1,-2.123167753E0,8.142308235E0,-3.955084324E0,9.297726427E0
1.289523683E1,-2.087465286E0,7.358540535E0,-5.849518776E0,9.629252309E0
1.290523683E1,-2.087596893E0,7.182893753E0,-7.631099701E0,1.068577120E1
1.291526288E1,-2.059248447E0,5.349733353E0,-9.330718040E0,1.095091093E1
1.292523762E1,-1.902382135E0,3.151486397E0,-1.055973244E1,1.118297248E1
1.293523605E1,-1.058873415E0,-3.709659576E-1,-1.234412289E1,1.239500700E1
1.294523553E1,6.871901155E-1,-2.264706612E0,-1.318743420E1,1.339811729E1
1.295524923E1,8.402169943E-1,-4.581582069E0,-1.311408424E1,1.391675481E1
1.296524887E1,7.939320207E-1,-6.322121620E0,-1.284492874E1,1.433847078E1
1.297524105E1,9.474503398E-1,-7.452851295E0,-1.240829849E1,1.450546539E1
1.298523689E1,2.159040213E0,-7.579978943E0,-1.192813587E1,1.429678148E1
1.299523579E1,2.208461285E0,-7.570655823E0,-1.138212872E1,1.384720134E1
1.300523996E1,1.147127628E0,-6.454216003E0,-9.666009903E0,1.167923600E1
1.301525819E1,-2.381590605E-1,-4.754387856E0,-7.295730591E0,8.711406802E0
1.302523736E1,-2.521116972E0,-3.236459732E0,-3.659575462E0,5.497562637E0
1.303523710E1,-8.870014191E0,-4.898788452E0,-3.240101576E0,1.063830523E1
1.304523631E1,-1.036615372E1,-7.924483299E0,-9.809551239E-1,1.308498572E1
1.305523918E1,-1.048980999E1,-1.025229645E1,2.667158604E0,1.490836782E1
1.306523762E1,-1.042168236E1,-1.143825054E1,6.299210548E0,1.670703720E1
1.307523683E1,-8.931073189E0,-1.143283558E1,8.716351509E0,1.692479191E1
1.308523657E1,-7.110977173E0,-1.126788330E1,9.747938156E0,1.650919407E1
1.309523683E1,-4.273117065E0,-9.610313416E0,1.064187431E1,1.496219042E1
1.310523736E1,-6.795426607E-1,-7.226571083E0,1.342092514E1,1.525799264E1
1.311526027E1,3.795158625E0,-2.679594994E0,1.464439392E1,1.536364968E1
1.312523673E1,7.055197716E0,2.092060089E0,1.291216660E1,1.486191698E1
1.313524944E1,8.780860901E0,5.494389534E0,1.068502712E1,1.488158725E1
1.314524720E1,9.035794258E0,7.114996910E0,7.864341259E0,1.393257415E1
1.315523558E1,9.128036499E0,7.134961605E0,5.393532276E0,1.277962902E1
1.316523506E1,8.984052658E0,5.674093246E0,3.193188906E0,1.109526889E1
1.317523605E1,7.922685623E0,3.420530319E0,1.441177964E0,8.749055325E0
1.318523944E1,6.825697422E0,8.606023788E-1,1.106116772E-1,6.880626185E0
1.319523866E1,5.455485344E0,-1.646045685E0,-1.627201438E-1,5.700724917E0
1.320523605E1,3.952721834E0,-3.796056747E0,-3.200643659E-1,5.489671933E0
1.321526111E1,8.527826667E-1,-5.284368515E0,6.069596410E-1,5.387038972E0
1.322523736E1,6.789399981E-1,-5.099391937E0,-5.883225799E-1,5.177922470E0
1.323523814E1,-1.468526363E0,-3.139107704E0,-2.370779514E0,4.198947769E0
1.324523579E1,-2.793724298E0,-2.032070160E-1,-3.542641878E0,4.516248446E0
1.325523683E1,-4.033221722E0,1.398939133E0,-4.250672340E0,6.024294440E0
1.326523683E1,-4.984159470E0,3.472402573E0,-4.228912830E0,7.401562603E0
1.327523605E1,-5.127299786E0,5.088536739E0,-4.074393272E0,8.293557125E0
1.328523553E1,-5.115688324E0,6.024730206E0,-2.725587845E0,8.360410886E0
1.329523762E1,-4.984377861E0,6.063583374E0,-1.455850124E0,7.983142588E0
1.330523501E1,-3.791989565E0,5.960518837E0,6.284329295E-1,7.092383070E0
1.331528897E1,-2.521937370E0,4.915424824E0,2.005424976E0,5.877354731E0
1.332557699E1,-1.162064791E0,3.742818356E0,3.593511581E0,5.317180579E0
1.333524491E1,5.477184653E-1,2.423045158E0,4.646484375E0,5.268867089E0
1.334523506E1,1.701065302E0,1.128644943E0,4.762299061E0,5.181404724E0
1.335523527E1,3.032028913E0,-3.381309509E-1,4.741552353E0,5.638248894E0
1.336523866E1,4.238191128E0,-3.241529465E-1,3.589362621E0,5.563349998E0
1.337524048E1,5.161799431E0,-3.017511368E-1,1.931599736E0,5.519629032E0
1.338524074E1,5.258744240E0,-1.790639877E0,8.312966824E-1,5.617102129E0
1.339523579E1,5.172874451E0,-1.970260620E0,-2.204719543E0,5.958300534E0
1.340523762E1,4.368476868E0,-2.798184395E0,-2.998383522E0,5.991972112E0
1.341526288E1,3.454441309E0,-2.855422020E0,-3.177097321E0,5.493682467E0
1.342524074E1,2.530075073E0,-2.926055908E0,-3.342790127E0,5.112467984E0
1.343523657E1,2.214194298E0,-3.523923874E0,-3.467271805E0,5.416887448E0
1.344523683E1,1.191673279E0,-3.601327896E0,-3.486021042E0,5.151891936E0
1.345523631E1,1.082300067E0,-4.251625061E0,-3.406347275E0,5.554357825E0
1.346523683E1,1.687309742E0,-4.313110352E0,-3.286238194E0,5.678846409E0
1.347523710E1,2.620366812E0,-4.345985413E0,-3.162034035E0,5.979328614E0
1.348523496E1,3.871217251E0,-4.332248688E0,-3.027042389E0,6.551159235E0
1.349524147E1,5.194576263E0,-4.307624817E0,-2.839131117E0,7.321196597E0
1.350525392E1,6.419825554E0,-4.297092438E0,-2.064925671E0,7.996441808E0
1.351524683E1,7.341898441E0,-4.333127022E0,-1.803086281E0,8.713815619E0
1.352523746E1,7.360480309E0,-4.453076363E0,-4.292339087E-1,8.613408223E0
1.353523454E1,7.243800163E0,-5.434471130E0,1.267705679E0,9.144025096E0
1.354523762E1,6.086764336E0,-6.235454559E0,1.375467300E0,8.821649729E0
1.355524048E1,4.187751293E0,-7.147552490E0,1.452763796E0,8.410427465E0
1.356524048E1,1.709671736E0,-8.073841095E0,1.520825863E0,8.391829287E0
1.357523944E1,-3.731292963E0,-9.582592010E0,1.382349491E0,1.037590993E1
1.358523657E1,-6.199409962E0,-9.657957077E0,1.349027395E0,1.155546164E1
1.359523918E1,-8.130113602E0,-9.647542953E0,1.315691352E0,1.268482857E1
1.360523527E1,-9.452503204E0,-9.542493820E0,1.282620788E0,1.349274328E1
1.361523657E1,-9.620257378E0,-8.700703621E0,1.251119018E0,1.303138114E1
1.362523736E1,-9.555288315E0,-7.916391373E0,1.021771550E0,1.245057445E1
1.363523683E1,-8.588859558E0,-7.045766830E0,-4.624153376E-1,1.111868547E1
1.364525897E1,-7.071757793E0,-6.152521133E0,-6.178653240E-1,9.393882698E0
1.365524673E1,-5.239192009E0,-5.229801178E0,-7.171998620E-1,7.437360346E0
1.366523610E1,-3.375220537E0,-4.459610939E0,-7.098550200E-1,5.637742239E0
1.367525939E1,-7.862159014E-1,-4.297302246E0,-6.420226693E-1,4.415556040E0
1.368523855E1,-5.528540611E-1,-3.521546364E0,7.638894916E-1,3.645608805E0
1.369524704E1,1.159755707E0,-3.418131828E0,7.638081908E-1,3.689452730E0
1.370523543E1,2.005710840E0,-2.689154625E0,2.264852762E0,4.047713750E0
1.371524621E1,2.231797457E0,-1.997578621E0,3.276000977E0,4.438853752E0
1.372524204E1,2.361041784E0,-1.101979256E0,4.212605476E0,4.953273815E0
1.373524595E1,2.340910196E0,1.260070801E-1,4.309408188E0,4.905786100E0
1.374524803E1,2.188154936E0,1.547430992E0,4.356884480E0,5.115174197E0
1.375525298E1,4.655406624E-2,4.909446239E0,4.367099762E0,6.570874370E0
1.376524777E1,-1.496707499E-1,6.649189949E0,4.236242771E0,7.885422064E0
1.377524855E1,-1.464269459E-1,8.234319687E0,4.038297653E0,9.172421136E0
1.378524803E1,-1.652794361E0,9.882523537E0,3.802979708E0,1.071721304E1
1.379525116E1,-1.833651781E0,9.897466660E0,2.986534357E0,1.049959583E1
1.380524777E1,-2.848783255E0,9.910487175E0,2.780774355E0,1.068016985E1
1.381524543E1,-3.013177872E0,1.106703949E1,2.519613028E0,1.174338340E1
1.382524699E1,-3.826107502E0,1.107322025E1,1.375270367E0,1.179604484E1
1.383524387E1,-3.918824911E0,1.107256126E1,5.321826935E-1,1.175763667E1
1.384523548E1,-4.537384510E0,1.106034660E1,-6.653265953E-1,1.197337816E1
1.385525725E1,-4.541201591E0,1.100466537E1,-2.042191744E0,1.207873003E1
1.386523506E1,-4.511147499E0,1.089736748E1,-3.931406736E0,1.243217715E1
1.387524584E1,-4.457510471E0,1.072851944E1,-6.479885101E0,1.330261027E1
1.388523730E1,-5.263760090E0,9.539544106E0,-8.979976654E0,1.411913782E1
1.389523683E1,-5.809880733E0,8.177620888E0,-1.100973701E1,1.489437836E1
1.390523866E1,-5.640077114E0,5.366134167E0,-1.297279167E1,1.512941471E1
1.391523866E1,-4.546690464E0,1.583206177E0,-1.446890450E1,1.524887318E1
1.392523736E1,-2.945955515E0,-2.403737068E0,-1.533850861E1,1.580273559E1
1.393523814E1,-1.018906832E-1,-7.857806206E0,-1.507248116E1,1.699809367E1
1.394523683E1,1.368865490E0,-9.128819466E0,-1.445618057E1,1.715197640E1
1.395523814E1,3.142826080E0,-9.284609795E0,-1.284164238E1,1.615515750E1
1.396523918E1,5.321350098E0,-9.277243614E0,-1.145886040E1,1.567448556E1
1.397523944E1,6.817576408E0,-7.578249931E0,-9.331963539E0,1.382008551E1
1.398523683E1,6.833210468E0,-4.959200859E0,-6.411724091E0,1.060172836E1
1.399523814E1,6.011045933E0,-2.281369209E0,-3.322487116E0,7.237143035E0
1.400523657E1,4.614996433E0,-7.396526337E-1,-7.143750191E-1,4.728171926E0
1.401524022E1,3.048215389E0,-8.025245667E-1,1.337693572E0,3.424191413E0
1.402523689E1,1.190832615E0,-8.674345016E-1,2.307508945E0,2.737722131E0
1.403525454E1,-3.799215555E-1,-3.940152168E0,3.774055481E0,5.469244397E0
1.404524288E1,-1.932742357E0,-6.093342781E0,6.212280273E0,8.913851326E0
1.405524262E1,-3.342812538E0,-7.524834633E0,7.422588825E0,1.108568251E1
1.406523131E1,-4.206614017E0,-7.602049828E0,7.311820507E0,1.135559255E1
1.407523944E1,-4.340068340E0,-7.526072502E0,6.236700535E0,1.069459649E1
1.408524074E1,-4.387266636E0,-7.242842674E0,5.239264488E0,9.957749290E0
1.409523840E1,-4.300043106E0,-5.065570831E0,4.943946838E0,8.282088438E0
1.410523657E1,-3.135762691E0,-2.130498886E0,4.893074036E0,6.189847064E0
1.411523814E1,-2.087468624E0,3.893611908E0,4.573493004E0,6.358818853E0
1.412523788E1,-1.944673538E0,5.444852829E0,2.594932795E0,6.337338062E0
1.413523996E1,-1.805744171E0,5.516683102E0,2.446437597E0,6.299171483E0
1.414524256E1,-1.656121850E0,5.346283913E0,2.105919600E0,5.979999048E0
1.415523683E1,-1.457893252E0,3.356864929E0,3.956699371E0,5.389755542E0
1.416523579E1,-3.283278942E-1,1.532488823E0,3.903515339E0,4.206394323E0
1.417523605E1,1.363820553E0,-3.432092667E-1,3.745672941E0,4.000982990E0
1.418523918E1,1.473938942E0,-1.793623924E0,3.475499630E0,4.179555056E0
1.419523892E1,2.854924440E0,-2.762338638E0,1.369559526E0,4.201999716E0
1.420525387E1,3.609408617E0,-2.827034950E0,1.283323646E0,4.760974349E0
1.421524048E1,3.764834881E0,-2.746200562E0,1.199981809E0,4.812021981E0
1.422524678E1,3.831547499E0,-1.762784958E0,-2.258627415E-1,4.223645466E0
1.423522590E1,3.757107258E0,-2.367181778E-1,-1.138075352E0,3.932824170E0
1.424523637E1,3.553899288E0,9.815320969E-1,-1.309323668E0,3.912535479E0
1.425524022E1,1.383074880E0,2.421503067E0,-1.377570271E0,3.110349350E0
1.426523579E1,1.373846054E0,3.532843590E0,-1.321224451E0,4.014233533E0
1.427524413E1,-2.937818766E-1,4.263267517E0,-5.760087371E-1,4.312023165E0
1.428523788E1,-1.072310925E0,4.362340450E0,-4.538831711E-1,4.515071966E0
1.429523996E1,-1.239294171E0,4.454319477E0,8.132755756E-1,4.694489238E0
1.430523657E1,-1.223281741E0,4.408576965E0,8.287808299E-1,4.649607160E0
1.431523970E1,-1.096549630E0,4.248908043E0,8.493410349E-1,4.469566069E0
1.432522543E1,1.257656336E0,2.831090927E0,2.087750435E0,3.735703036E0
1.433523631E1,1.075869918E0,1.704562664E0,2.156516314E0,2.951879497E0
1.434523996E1,2.486179352E0,-2.982873917E-1,2.204782963E0,3.336334973E0
1.435523657E1,3.666913509E0,-2.744436264E-1,2.159593344E0,4.264436352E0
1.436523657E1,4.654210567E0,-1.502918243E0,1.998495340E0,5.283410156E0
1.437523944E1,4.792133331E0,-2.192557335E0,7.700359821E-1,5.325861897E0
1.438527147E1,5.514723778E0,-2.339478493E0,5.883283615E-1,6.019258112E0
1.439523694E1,5.444841862E0,-3.282942772E0,-9.391090274E-1,6.426969885E0
1.440523168E1,5.246140003E0,-3.339493752E0,-1.114125729E0,6.317869862E0
1.441523355E1,4.403273582E0,-3.363040924E0,-2.011335850E0,5.894432492E0
1.442523819E1,4.105900288E0,-3.386260986E0,-2.127372026E0,5.731569801E0
1.443523392E1,3.805206299E0,-3.427610397E0,-2.234010696E0,5.587388639E0
1.444523762E1,3.544555902E0,-4.050774574E0,-2.306128263E0,5.855841422E0
1.445523657E1,3.379512548E0,-4.162726402E0,-2.343880653E0,5.851766629E0
1.446523814E1,3.333616972E0,-4.913871765E0,-2.318233252E0,6.374428857E0
1.447523736E1,5.130428314E0,-5.014834404E0,-2.219779253E0,7.509812163E0
1.448523762E1,5.715052128E0,-5.112309456E0,-2.140979767E0,7.961238795E0
1.449523710E1,5.677198410E0,-5.840907097E0,-2.055088282E0,8.400605058E0
1.450523631E1,5.540046215E0,-5.921379089E0,-1.947008133E0,8.339405438E0
1.451523814E1,5.245953560E0,-6.007635117E0,-1.835036755E0,8.184074067E0
1.452524361E1,3.538263559E0,-6.623779297E0,-1.722504497E0,7.704594923E0
1.453523397E1,1.684592843E0,-6.710206032E0,-1.587598085E0,7.098252300E0
1.454523449E1,-1.289777517E0,-7.369029999E0,-1.443002939E0,7.618949183E0
1.455523762E1,-2.829089403E0,-7.463198662E0,-1.314643383E0,8.088965839E0
1.456525376E1,-5.158463955E0,-7.553689003E0,-1.193501353E0,9.224554917E0
1.457523595E1,-7.092670918E0,-7.646133423E0,-1.087542176E0,1.048580398E1
1.458523168E1,-8.511309624E0,-7.715559959E0,-1.014869094E0,1.153265868E1
1.459523949E1,-9.332581520E0,-7.729526520E0,-9.844017029E-1,1.215778371E1
1.460523585E1,-9.362169266E0,-7.656725883E0,-9.542016983E-1,1.213203056E1
1.461523840E1,-9.131237984E0,-7.506641388E0,-9.795774221E-1,1.186122860E1
1.462523710E1,-7.698738575E0,-6.606003761E0,-1.051740885E0,1.019882445E1
1.463523918E1,-6.125568867E0,-6.429720879E0,-1.113164783E0,8.950030187E0
1.464523892E1,-4.443168640E0,-5.361660957E0,-1.142052293E0,7.056446643E0
1.465524100E1,-6.214661002E-1,-3.897211075E0,-2.429459095E-1,3.953921723E0
1.466523683E1,-6.148080230E-1,-3.734677315E0,1.265423179E0,3.990877018E0
1.467523892E1,8.647595644E-1,-2.788117409E0,1.307072043E0,3.198412906E0
1.468523840E1,1.124693871E0,-2.626404762E0,2.655413389E0,3.900533110E0
1.469523736E1,1.321169257E0,-1.453506470E0,3.488531590E0,4.003501207E0
1.470523631E1,1.423637271E0,1.657934189E-1,4.179118633E0,4.418061010E0
1.471523579E1,1.421765566E0,8.675384521E-2,4.290611267E0,4.520872548E0
1.472523736E1,1.352049112E0,1.779010773E0,4.898862839E0,5.384400918E0
1.473523553E1,1.201560140E0,3.207387447E0,4.819971561E0,5.912969378E0
1.474525480E1,-4.663246870E-2,4.686113358E0,4.665900230E0,6.613052090E0
1.475523585E1,-3.583563119E-2,6.128356934E0,4.509878635E0,7.609010987E0
1.476522543E1,-2.260422856E-1,7.413025856E0,4.344406605E0,8.595226361E0
1.477525600E1,-2.161770463E-1,8.459408760E0,4.157088757E0,9.428134281E0
1.478523402E1,-2.082694918E-1,9.883903503E0,3.931284428E0,1.063907524E1
1.479524387E1,-1.625850797E0,9.904839516E0,3.120071411E0,1.051114086E1
1.480523970E1,-1.751211882E0,9.923789978E0,2.899142504E0,1.048586562E1
1.481524230E1,-2.440664053E0,9.742471695E0,2.147111416E0,1.027047629E1
1.482523970E1,-2.560142994E0,9.759423256E0,1.920189619E0,1.027072552E1
1.483523657E1,-3.320618153E0,9.774642944E0,-7.110525668E-2,1.032352680E1
1.484523840E1,-3.462243080E0,9.827965736E0,-1.235914379E-1,1.042071555E1
1.485523736E1,-3.429390907E0,9.642024994E0,-2.935158014E0,1.064633836E1
1.486523683E1,-3.349506855E0,9.654671669E0,-5.545156479E0,1.162672102E1
1.487523788E1,-3.288958073E0,9.667316437E0,-8.164144516E0,1.307392473E1
1.488524829E1,-3.244503021E0,8.048197746E0,-1.031094933E1,1.347649668E1
1.489524777E1,-3.054166079E0,6.477048397E0,-1.175522327E1,1.376464168E1
1.490524621E1,-2.053797007E0,4.076996803E0,-1.317015648E1,1.393890264E1
1.491524413E1,-6.650066972E-1,1.108550072E0,-1.407510757E1,1.413434719E1
1.492524751E1,6.514648795E-1,-1.920718193E0,-1.400079155E1,1.414693355E1
1.493525444E1,2.212805986E0,-4.473260880E0,-1.365816498E1,1.454139071E1
1.494525673E1,3.309339285E0,-6.330867767E0,-1.244120026E1,1.434625655E1
1.495529725E1,4.678341866E0,-7.669933319E0,-1.096017456E1,1.417180956E1
1.496523610E1,5.972231865E0,-7.892623901E0,-9.256043434E0,1.355121417E1
1.497524751E1,6.001746178E0,-7.948552132E0,-7.549625874E0,1.249789138E1
1.498524491E1,4.954658031E0,-6.749383926E0,-4.216485023E0,9.374516817E0
1.499524569E1,2.826458216E0,-4.891179085E0,-1.490844965E0,5.842526645E0
1.500525194E1,7.929115295E-1,-3.536252975E0,-4.935202599E-1,3.657506808E0
1.501524595E1,-3.156875134E0,-3.723479271E0,-1.172090769E0,5.020354097E0
1.502525012E1,-6.724992752E0,-7.168853760E0,1.388769150E0,9.927067618E0
1.503524986E1,-7.683870316E0,-8.081892014E0,3.998885632E0,1.184693749E1
1.504524960E1,-7.765184879E0,-8.090125084E0,3.777243376E0,1.183282670E1
1.505525038E1,-7.686219692E0,-7.996201515E0,3.735349655E0,1.170342039E1
1.506524803E1,-6.178434372E0,-7.264901161E0,3.691969633E0,1.022655758E1
1.507524751E1,-4.472792149E0,-5.738809586E0,5.433008194E0,9.080604776E0
1.508524413E1,-2.316780090E0,-2.636907578E0,7.904749393E0,8.649035468E0
1.509524647E1,-1.004091263E0,1.219361305E0,9.059455872E0,9.196128639E0
1.510525871E1,-6.941720247E-1,4.331754684E0,8.743721962E0,9.782568538E0
1.511528022E1,2.324870825E-1,6.244227409E0,6.872817993E0,9.288705688E0
1.512523418E1,1.434953213E0,6.414680958E0,5.397542477E0,8.505332874E0
1.513525553E1,1.597180128E0,6.358268738E0,4.195070267E0,7.783134346E0
1.514523610E1,1.494470835E0,4.873226643E0,3.859030247E0,6.393269542E0
1.515524366E1,2.717974186E0,2.683713913E0,2.074144363E0,4.346467403E0
1.516523918E1,2.870640755E0,-3.997850418E-1,1.981420040E0,3.510901850E0
1.517524126E1,3.729097843E0,-1.812303543E0,1.891950846E0,4.557421734E0
1.518523657E1,3.797761917E0,-3.527056694E0,1.806178451E0,5.488661503E0
1.519523631E1,4.372669697E0,-4.619294167E0,1.523355126E0,6.540545063E0
1.520524439E1,4.103143692E0,-4.503785133E0,3.572992086E-1,6.103075570E0
1.521523814E1,2.685180187E0,-2.739704132E0,-5.564558506E-1,3.876314549E0
1.522524022E1,1.321138859E0,-1.631841660E-1,-1.493368506E0,2.000546538E0
1.523524126E1,1.067766666E0,1.340259552E0,-1.672323704E0,2.394386746E0
1.524523996E1,-6.445006132E-1,3.213383198E0,-1.762534857E0,3.721255398E0
1.525524048E1,-1.657787085E0,4.639792442E0,-1.698373199E0,5.211564395E0
1.526523631E1,-1.900045395E0,5.410075188E0,-5.986870527E-1,5.765198368E0
1.527523631E1,-2.761218309E0,5.446015835E0,1.287640214E0,6.240307071E0
1.528523814E1,-2.792794704E0,5.367963791E0,1.124396563E0,6.154592200E0
1.529531548E1,-2.131399870E0,4.583092213E0,2.526821613E0,5.650878436E0
1.530523689E1,-1.227341175E0,3.769302368E0,3.324634552E0,5.173702891E0
1.531526230E1,7.724548578E-1,2.829456329E0,3.475275755E0,4.547532430E0
1.532524288E1,8.016253114E-1,1.867068291E0,4.156585693E0,4.626635037E0
1.533523793E1,2.109826565E0,8.804845810E-1,4.111092567E0,4.704009282E0
1.534523944E1,2.983313560E0,-2.379589081E-1,3.972404242E0,4.973608318E0
1.535524335E1,3.119287014E0,-2.071990967E-1,2.787477970E0,4.188426480E0
1.536523788E1,3.771457672E0,-1.771459579E-1,1.008095860E0,3.907880618E0
1.537523657E1,3.722290039E0,-1.477813721E-1,9.619609714E-1,3.847421394E0
1.538523996E1,2.866644859E0,-1.735669136E0,-6.990804672E-1,3.423289879E0
1.539523631E1,2.694711685E0,-2.476900101E0,-1.481442928E0,3.948566617E0
1.540524334E1,2.552905560E0,-2.582033157E0,-1.651693106E0,3.989023958E0
1.541523710E1,2.497939348E0,-3.410482407E0,-1.821298003E0,4.603066114E0
1.542523736E1,3.055487633E0,-3.527177811E0,-1.907051802E0,5.041213600E0
1.543523657E1,3.829599380E0,-4.549463272E0,-1.927503824E0,6.251297343E0
1.544523657E1,4.750583172E0,-5.275684357E0,-1.854927778E0,7.337686486E0
1.545524152E1,5.707783699E0,-5.387996674E0,-1.822598815E0,8.057987922E0
1.546523397E1,6.519718170E0,-5.463477135E0,-1.832925320E0,8.701489680E0
1.547535913E1,6.547131538E0,-5.476248741E0,-2.406100273E0,8.868119879E0
1.548524246E1,6.526174545E0,-5.428924561E0,-2.417961597E0,8.826704615E0
1.549524746E1,6.373461246E0,-5.360548973E0,-2.438050747E0,8.677590967E0
1.550525840E1,6.048571587E0,-5.314218521E0,-2.406464577E0,8.403404577E0
1.551524360E1,4.417061806E0,-5.330888748E0,-2.319684029E0,7.301352192E0
1.552524439E1,2.874756098E0,-5.435096741E0,-2.168355703E0,6.519682942E0
1.553524282E1,1.044729710E0,-6.376959801E0,-1.241811395E0,6.580210635E0
1.554523710E1,-1.435198069E0,-7.175521851E0,-1.091476917E0,7.398596433E0
1.555524178E1,-3.183655262E0,-8.005471230E0,-9.731018543E-1,8.670072529E0
1.556524282E1,-6.998037338E0,-8.879316330E0,-9.074854851E-2,1.130588433E1
1.557523657E1,-8.601335526E0,-8.968214989E0,6.430375576E-2,1.242642297E1
1.558523657E1,-9.697371483E0,-8.947810173E0,1.192278504E0,1.324854138E1
1.559523736E1,-9.760313988E0,-8.789097786E0,1.241268516E0,1.319290402E1
1.560524335E1,-9.597672462E0,-7.625794411E0,1.284943938E0,1.232554818E1
1.561523710E1,-8.543379784E0,-6.778372765E0,1.124708056E0,1.096360541E1
1.562523710E1,-6.910920143E0,-5.938272476E0,1.140458107E0,9.182839535E0
1.563523631E1,-4.965034962E0,-5.106509209E0,1.153605223E0,7.215179380E0
1.564523736E1,-2.960941315E0,-4.342554092E0,1.135671496E0,5.377239000E0
1.565525215E1,-3.474736810E-1,-4.159843445E0,1.119480610E0,4.321836679E0
1.566525746E1,-3.037240505E-1,-3.149711609E0,9.054533243E-1,3.291318465E0
1.567523428E1,1.932393074E0,-3.005741119E0,2.018899918E0,4.104214851E0
1.568523517E1,2.211743116E0,-1.997105598E0,2.642771721E0,3.983024071E0
1.569523918E1,2.379549742E0,-1.118248940E0,3.323662996E0,4.237861887E0
1.570524335E1,2.394035339E0,2.706117630E-1,3.438564777E0,4.198614493E0
1.571523762E1,2.241776228E0,1.928787231E-1,4.230679035E0,4.791806335E0
1.572523840E1,2.731218934E-1,2.623775482E0,4.178743839E0,4.941729801E0
1.573523866E1,3.098453879E-1,4.128080845E0,4.051487923E0,5.792375162E0
1.574524126E1,3.850607872E-1,7.004492760E0,3.886659622E0,8.019807582E0
1.575524334E1,-1.603049636E0,8.241791725E0,3.726907492E0,9.186225472E0
1.576523710E1,-1.704801559E0,9.935139656E0,3.524474859E0,1.067872986E1
1.577523788E1,-1.798916578E0,9.952805519E0,3.310330868E0,1.064202655E1
1.578523657E1,-1.885488629E0,9.968940735E0,2.581548452E0,1.046896552E1
1.579524413E1,-1.971309662E0,9.983595848E0,2.397244215E0,1.045490448E1
1.580524230E1,-2.610710859E0,9.797174454E0,2.165065289E0,1.036763937E1
1.581523579E1,-2.661671162E0,9.809057236E0,1.143192410E0,1.022785345E1
1.582523631E1,-2.659153461E0,9.816852570E0,8.543879986E-1,1.020645239E1
1.583523840E1,-2.662335873E0,9.822098732E0,-5.770595074E-1,1.019287268E1
1.584524788E1,-2.649958372E0,9.824697495E0,-1.960303307E0,1.036290255E1
1.585524965E1,-2.622670889E0,9.626811981E0,-3.926453352E0,1.072245063E1
1.586523111E1,-3.196573734E0,9.626424789E0,-6.661563396E0,1.213517881E1
1.587523683E1,-3.191002369E0,8.423133850E0,-9.245843887E0,1.290803274E1
1.588523949E1,-3.103055477E0,6.069535255E0,-1.085242844E1,1.281574869E1
1.589524074E1,-2.804793835E0,2.604947090E0,-1.397376251E1,1.448856986E1
1.590524491E1,-1.097414255E0,-1.325819969E0,-1.539621735E1,1.549211494E1
1.591523892E1,1.365024567E0,-4.895347595E0,-1.612339211E1,1.690536877E1
1.592523892E1,1.603043795E0,-9.371554375E0,-1.589269066E1,1.851954095E1
1.593523762E1,3.709134579E0,-1.037836647E1,-1.521304989E1,1.878576740E1
1.594524204E1,4.858051300E0,-1.044471836E1,-1.251716232E1,1.701094226E1
1.595523918E1,4.963733673E0,-9.432614326E0,-8.668830872E0,1.373904996E1
1.596523605E1,4.665409088E0,-7.144495010E0,-5.263587952E0,1.002572736E1
1.597523840E1,1.671264887E0,-4.674038887E0,-2.615817547E0,5.610906101E0
1.598523605E1,1.588166714E0,-3.021387100E0,-1.049114704E0,3.570951579E0
1.599523866E1,-1.306223154E0,-3.110323906E0,-5.469465256E-1,3.417526039E0
1.600524256E1,-2.845037699E0,-4.169651985E0,2.186050892E0,5.500823183E0
1.601526418E1,-3.955222368E0,-5.352993965E0,5.076684952E0,8.370845744E0
1.602523272E1,-4.134249210E0,-6.057623863E0,6.968130112E0,1.011640552E1
1.603522517E1,-4.237914085E0,-6.058842659E0,7.051661015E0,1.021740736E1
1.604523751E1,-4.254980087E0,-5.915668488E0,7.033299446E0,1.012755105E1
1.605524730E1,-4.161571503E0,-4.594869614E0,7.867572784E0,1.001649668E1
1.606523710E1,-2.955361366E0,-2.758584976E0,8.618459702E0,9.519548283E0
1.607523637E1,-1.896798491E0,-4.517841339E-1,9.573932648E0,9.770472853E0
1.608524256E1,-8.986768723E-1,3.186732292E0,9.161205292E0,9.741178841E0
1.609523866E1,-1.272872686E-1,5.496614456E0,7.073666573E0,8.959114427E0
1.610524699E1,1.421739340E0,6.506507874E0,4.499511719E0,8.037511628E0
1.611524725E1,1.526169181E0,4.894289970E0,4.110334396E0,6.571005671E0
1.612524491E1,2.623890400E0,2.631089687E0,3.061920166E0,4.814850868E0
1.613524933E1,3.407989502E0,-2.956762314E-1,2.785537481E0,4.411466416E0
1.614524673E1,4.165606022E0,-1.955151558E0,1.319164991E0,4.786970589E0
1.615524673E1,4.325582504E0,-3.555818558E0,1.179497480E0,5.722387956E0
1.616525324E1,5.057594299E0,-4.374976158E0,1.055966854E0,6.770136075E0
1.617524777E1,4.981425285E0,-4.335293770E0,9.709916115E-1,6.674743040E0
1.618524699E1,4.760017395E0,-3.406414986E0,-5.629609227E-1,5.880336186E0
1.619527277E1,3.469489574E0,-1.751008034E0,-8.042433262E-1,3.968651455E0
1.620523626E1,2.317133427E0,-5.668449402E-2,-2.005956888E0,3.065319475E0
1.621522892E1,1.095326185E0,2.643801689E0,-2.104045391E0,3.551961969E0
1.622525194E1,-6.080274582E-1,4.244293213E0,-2.126487255E0,4.785986869E0
1.623523590E1,-1.951059103E0,5.139977455E0,-2.052891731E0,5.868591341E0
1.624524777E1,-2.867617130E0,5.199955940E0,-1.203130245E0,6.058901895E0
1.625524777E1,-3.054351330E0,5.160012722E0,-4.467238784E-1,6.012849205E0
1.626524907E1,-3.142051697E0,5.025088310E0,6.230486035E-1,5.959210598E0
1.627524569E1,-3.043653488E0,3.908217430E0,6.919139624E-1,5.001673217E0
1.628525324E1,4.964840114E-1,1.991272449E0,2.207093239E0,3.013788796E0
1.629524673E1,5.954236388E-1,1.024361610E0,2.294084549E0,2.581989531E0
1.630524855E1,2.409393311E0,-7.468318939E-2,2.367621660E0,3.378814293E0
1.631524647E1,3.385103703E0,-5.781745911E-2,2.324816465E0,4.106950393E0
1.632522517E1,3.565168858E0,-1.406650543E-1,2.181911469E0,4.182218705E0
1.633524725E1,3.688674688E0,-1.237440109E-1,5.799716115E-1,3.736040766E0
1.634524595E1,3.662187099E0,-1.010446548E-1,5.978218913E-1,3.712036555E0
1.635523710E1,3.568465233E0,-1.935879707E0,6.128490567E-1,4.105746988E0
1.636523605E1,3.351947308E0,-2.025754929E0,6.269922256E-1,3.966403035E0
1.637524256E1,2.505828619E0,-2.625616074E0,-1.308918953E0,3.858277551E0
1.638523657E1,2.339902639E0,-2.674481392E0,-1.449079037E0,3.837684866E0
1.639522850E1,2.228129864E0,-2.776313782E0,-2.161963463E0,4.164920998E0
1.640523100E1,2.217917204E0,-3.811087608E0,-2.206190586E0,4.930600611E0
1.641523506E1,3.153917551E0,-4.516633987E0,-2.243848562E0,5.948279992E0
1.642523496E1,3.968766212E0,-4.643927574E0,-2.323558331E0,6.535754882E0
1.643523532E1,4.810232162E0,-4.720705986E0,-2.962516546E0,7.362058323E0
1.644523736E1,5.469472885E0,-4.717668533E0,-3.006455660E0,7.823701532E0
1.645523814E1,5.497248650E0,-4.661762238E0,-3.589926243E0,8.052287893E0
1.646524152E1,6.045469761E0,-4.586179733E0,-3.542901039E0,8.374538611E0
1.647523918E1,5.788499832E0,-4.462233543E0,-3.474023342E0,8.092409819E0
1.648523631E1,4.543172359E0,-4.459506035E0,-3.298779011E0,7.170045476E0
1.649523892E1,3.161158800E0,-4.541489601E0,-2.302482128E0,5.993285969E0
1.650523475E1,1.501903772E0,-5.420323372E0,-1.391273737E0,5.794071367E0
1.651523683E1,-1.434755445E0,-6.456297874E0,-5.282900333E-1,6.634862153E0
1.652523866E1,-1.513144851E0,-7.486756325E0,-3.148463964E-1,7.644622676E0
1.653523736E1,-4.276752472E0,-8.454242706E0,1.216180921E0,9.552168731E0
1.654523579E1,-6.057334900E0,-9.134242058E0,1.313127160E0,1.103856816E1
1.655523762E1,-7.628514290E0,-9.204892159E0,1.399726391E0,1.203675637E1
1.656525423E1,-8.599367142E0,-9.190901756E0,1.255635142E0,1.264904779E1
1.657525866E1,-8.598634720E0,-9.059893608E0,1.281460166E0,1.255628653E1
1.658523683E1,-8.359441757E0,-7.967942238E0,1.300573349E0,1.162152576E1
1.659523584E1,-6.975996971E0,-6.949732780E0,1.786005497E-2,9.847011650E0
1.660523689E1,-5.410563469E0,-5.846708298E0,-6.897056103E-2,7.966363782E0
1.661524230E1,-3.681869745E0,-4.692862511E0,-6.322264671E-2,5.965158880E0
1.662523970E1,-9.894638658E-1,-3.555933952E0,-2.639675140E-2,3.691124734E0
1.663523866E1,-7.966339588E-1,-2.586622238E0,4.037249088E-2,2.706819204E0
1.664523892E1,1.007095337E0,-1.699795723E0,1.166190982E0,2.294242342E0
