"Time (s)","Linear Acceleration x (m/s^2)","Linear Acceleration y (m/s^2)","Linear Acceleration z (m/s^2)","Absolute acceleration (m/s^2)"
8.669333900E-2,0.000000000E0,0.000000000E0,0.000000000E0,0.000000000E0
9.668917300E-2,2.733588219E-2,-1.610946655E-2,6.251266003E-1,6.259313315E-1
1.066936000E-1,3.376293182E-2,-5.242919922E-2,4.434177279E-1,4.477812389E-1
1.167008910E-1,1.486206055E-2,-1.245136261E-1,2.125632912E-1,2.467948069E-1
1.266928180E-1,-5.281972885E-2,-1.208319664E0,2.020506263E-1,1.226234394E0
1.366943810E-1,-6.064062119E-1,-9.902658463E-1,2.017088532E-1,1.178576006E0
1.466925580E-1,-6.300821304E-1,-8.316564560E-1,2.071790099E-1,1.063757065E0
1.566925580E-1,-1.406242013E0,-7.101993561E-1,2.162816375E-1,1.590181584E0
1.666904750E-1,-2.264364719E0,-1.626990318E0,5.002813041E-2,2.788717966E0
1.766962040E-1,-1.985786200E0,-1.531503677E0,1.182073876E-1,2.510542438E0
1.868004750E-1,-1.783637404E0,-1.383489609E0,1.450234354E-1,2.261954395E0
1.966882870E-1,-1.609511375E0,-1.218344688E0,1.707908511E-1,2.025848011E0
2.066917250E-1,-1.643117785E0,-1.916332245E-1,1.002008468E-2,1.654285269E0
2.166725060E-1,-2.392987490E0,-1.601915359E-1,4.668541253E-2,2.398797612E0
2.266963600E-1,-1.305178165E0,-1.314287186E-1,8.126757294E-2,1.314293715E0
2.366832350E-1,-1.190755963E0,-1.048746109E-1,1.141341850E-1,1.200801841E0
2.466826620E-1,-1.086825013E0,-8.015918732E-2,1.455711722E-1,1.099456716E0
2.566857870E-1,-1.181202769E0,-1.517295837E-1,-1.366940886E-2,1.190986441E0
2.666839640E-1,-1.084142566E0,-1.251440048E-1,2.501405776E-2,1.091628063E0
2.766933390E-1,-9.944215417E-1,-1.001367569E-1,6.191815063E-2,1.001366781E0
2.866852660E-1,-9.110386968E-1,-7.649421692E-2,9.728550911E-2,9.194059726E-1
2.966800580E-1,-8.331674933E-1,-5.403709412E-2,1.313165724E-1,8.451817093E-1
3.066831830E-1,-9.517855048E-1,-1.284523010E-1,-2.748828381E-2,9.608076012E-1
3.166829230E-1,-8.753141165E-1,-1.072693825E0,1.201124489E-2,1.384554482E0
3.266855270E-1,-8.031866550E-1,-1.112764359E0,5.001081154E-2,1.373264141E0
3.366855270E-1,-7.349204421E-1,-1.166440010E0,8.667707443E-2,1.381377309E0
3.466795370E-1,-6.701018810E-1,-1.797378540E0,1.221528947E-1,1.922115365E0
3.566787560E-1,-8.014776707E-1,-1.786570549E0,-3.654202819E-2,1.958452477E0
3.668161520E-1,-7.360951304E-1,-1.824012756E0,3.342706710E-3,1.966944267E0
3.767024540E-1,-6.736404300E-1,-2.403095245E0,4.194455221E-2,2.496080434E0
3.867403180E-1,-6.138391495E-1,-2.409269810E0,7.938378304E-2,2.487505036E0
3.966855790E-1,-5.564501286E-1,-2.440745354E0,1.157660931E-1,2.506047968E0
4.066829230E-1,-6.953780055E-1,-3.086249828E0,-4.293290526E-2,3.163910841E0
4.166878700E-1,-6.366529465E-1,-3.061872959E0,-2.849109471E-3,3.127363284E0
4.266892250E-1,-5.800792575E-1,-3.042232990E0,3.611892089E-2,3.097253314E0
4.366842250E-1,-5.254824758E-1,-2.998196125E0,1.124079585E0,3.244821528E0
4.466837040E-1,-4.727066755E-1,-2.914518833E0,1.149116516E0,3.168334010E0
4.566873500E-1,-1.650354385E0,-2.741728306E0,1.840769529E0,3.691771412E0
4.666829230E-1,-1.700919032E0,-2.577868938E0,1.858952165E0,3.604751998E0
4.766899540E-1,-2.325499296E0,-1.784282684E0,1.903442860E0,3.494954419E0
4.866847450E-1,-2.382797956E0,-1.634397507E0,2.542223930E0,3.848621029E0
4.966839640E-1,-3.096799612E0,-7.481670380E-1,2.587034702E0,4.103982250E0
5.066837040E-1,-3.144599438E0,-5.748977661E-1,3.330568552E0,4.616459677E0
5.166790160E-1,-3.851585388E0,1.128114700E0,3.391821861E0,5.254693932E0
5.266863080E-1,-3.870842457E0,1.123685837E0,4.199525356E0,5.820833652E0
5.366816200E-1,-4.469393730E0,2.243264198E0,4.234349728E0,6.552666037E0
5.467927140E-1,-4.449160576E0,2.875890732E0,4.913557053E0,7.225567122E0
5.566815680E-1,-4.451157093E0,2.941672325E0,4.879545689E0,7.230228327E0
5.668330790E-1,-4.443518162E0,2.977492332E0,4.816068649E0,7.197557327E0
5.766765680E-1,-4.418153763E0,2.973207474E0,4.717957497E0,7.114714913E0
5.866824020E-1,-4.344068050E0,2.891279221E0,4.561555862E0,6.930960586E0
5.966847450E-1,-4.209145546E0,2.723640442E0,4.360320091E0,6.644359622E0
6.066876100E-1,-4.007863998E0,1.805541039E0,3.406003475E0,5.560918265E0
6.166876100E-1,-2.875618458E0,6.656322479E-1,3.202993393E0,4.355618725E0
6.266909950E-1,-2.012626886E0,6.736030579E-1,2.127158880E0,3.004864883E0
6.366850060E-1,6.471800208E-1,6.032037735E-1,1.057751417E0,1.378961505E0
6.466800580E-1,6.757270098E-1,6.128168106E-1,9.504199028E-1,1.317364576E0
6.566863080E-1,2.160351753E0,1.983193398E0,8.177237511E-1,3.044478261E0
6.666878700E-1,3.037862778E0,2.845012665E0,-8.020162582E-2,4.162828320E0
6.766904750E-1,3.123028755E0,3.922803879E0,-1.915398836E-1,5.017806932E0
6.866805790E-1,3.113705635E0,4.867420197E0,-1.440185905E0,5.954920452E0
6.966818810E-1,2.984419346E0,4.923136711E0,-1.378644466E0,5.919855950E0
7.066821410E-1,2.090052128E0,4.909698486E0,-1.318361998E0,5.496502113E0
7.166847450E-1,4.840052426E-1,4.802952766E0,-2.751249313E0,5.556256756E0
7.267932870E-1,5.162993073E-1,4.596688271E0,-3.609467268E0,5.867227794E0
7.366871930E-1,3.511355519E-1,3.235904694E0,-4.451397419E0,5.514464103E0
7.468382870E-1,3.855479062E-1,1.775815964E0,-5.125171661E0,5.437789448E0
7.566827140E-1,4.195542634E-1,4.479217529E-2,-5.183870316E0,5.201013706E0
7.666706830E-1,4.531715512E-1,-1.787257195E0,-5.959935188E0,6.238628069E0
7.766870890E-1,4.864158034E-1,-3.100908756E0,-5.983607292E0,6.756906961E0
7.866824020E-1,2.043325424E0,-3.960499763E0,-6.564931393E0,7.934674622E0
7.966824020E-1,2.898208857E0,-3.986516953E0,-6.515839100E0,8.169950500E0
8.066847450E-1,3.013932467E0,-3.911059380E0,-6.458903790E0,8.130043822E0
8.166839640E-1,3.761529446E0,-1.989556313E0,-6.353743553E0,7.647057946E0
8.266717250E-1,3.629217386E0,2.558641434E-1,-6.199602604E0,7.188307015E0
8.366831830E-1,2.809465885E0,2.724151611E-1,-5.435290813E0,6.124515883E0
8.466813600E-1,2.070857286E0,1.764144897E0,-5.244173050E0,5.907792151E0
8.566821410E-1,1.228360653E0,1.900042534E0,-4.133589268E0,4.712280951E0
8.666811000E-1,2.045863271E-1,2.548004150E0,-3.261790037E0,4.144086746E0
8.766857870E-1,4.405553639E-2,2.479475021E0,-2.385318041E0,3.440854462E0
8.866803180E-1,8.306664973E-2,2.315066338E0,-1.647481918E0,2.842644699E0
8.966811000E-1,-1.159054756E0,1.565580368E-1,-1.510497808E0,1.910372209E0
9.068019850E-1,-1.160305023E0,1.745281219E-1,-1.423969746E0,1.845117245E0
9.166824540E-1,-1.140471935E0,1.923179626E-1,-1.376361251E0,1.797785506E0
9.266951100E-1,-1.083033562E0,1.110563278E-1,-1.367349982E0,1.747839002E0
9.366556830E-1,-1.007691622E0,1.295995712E-1,-1.406319022E0,1.734926986E0
9.466808910E-1,-9.218084812E-1,1.479558945E-1,-1.491634607E0,1.759714643E0
9.566816200E-1,-8.657329679E-1,1.661300659E-1,-2.140344858E0,2.314771886E0
9.666805790E-1,-8.355330229E-1,1.841287613E-1,-2.185491085E0,2.346995977E0
9.766876100E-1,-8.326314688E-1,1.030206680E-1,-2.202473879E0,2.356857995E0
9.866831830E-1,-8.582320213E-1,1.217250824E-1,-2.170808792E0,2.337475136E0
9.966842250E-1,-9.106321931E-1,1.600580215E-1,-2.041652918E0,2.241253265E0
1.006684745E0,-9.140506983E-1,1.782207489E-1,-1.919915438E0,2.133852526E0
1.016681360E0,-8.965153694E-1,9.722900391E-2,-1.220207691E0,1.517267312E0
1.026687610E0,-8.462865353E-1,1.160564423E-1,-1.161032200E0,1.441411033E0
1.036708964E0,-7.629392147E-1,1.347093582E-1,-1.093858957E0,1.340429138E0
1.046683964E0,3.149701357E-1,1.531925201E-1,-1.058701038E0,1.115133186E0
1.056684485E0,3.515238166E-1,1.715116501E-1,-1.065907121E0,1.135404434E0
1.066681620E0,1.896822602E-1,9.063148499E-2,-1.095252633E0,1.115245155E0
1.076686048E0,2.274948061E-1,1.095771790E-1,-1.138906956E0,1.166563371E0
1.086799173E0,2.649712563E-1,1.283550262E-1,-1.204649448E0,1.240106880E0
1.096688495E0,3.021210432E-1,1.469678879E-1,-1.250602722E0,1.294945502E0
1.106692818E0,3.389532566E-1,1.654224396E-1,-1.274506330E0,1.329142686E0
1.116677766E0,1.773114949E-1,8.463859558E-2,-1.279281139E0,1.294280994E0
1.126683756E0,2.153359354E-1,1.036872864E-1,-1.272338986E0,1.294591486E0
1.136705579E0,2.530356050E-1,1.225738525E-1,-1.269840240E0,1.300594327E0
1.146683443E0,2.904192209E-1,1.413002014E-1,-1.261484146E0,1.302171771E0
1.156686308E0,-8.836277723E-1,1.598730087E-1,-1.252929926E0,1.541489805E0
1.166686308E0,-9.630404711E-1,7.917213440E-2,-1.249085546E0,1.579218122E0
1.176693339E0,-1.660464764E0,1.181449890E-1,-1.338805199E0,2.136235200E0
1.186693339E0,-1.721888065E0,1.369638443E-1,-1.398879051E0,2.222728099E0
1.196695683E0,-1.763735414E0,1.556339264E-1,-1.459334493E0,2.294480702E0
1.206691516E0,-1.783708215E0,7.499885559E-2,-1.495753050E0,2.329059254E0
1.216693079E0,-1.779830694E0,9.420681000E-2,-1.521023035E0,2.343114017E0
1.226691777E0,-1.755274057E0,1.181368828E0,-1.546338081E0,2.620645109E0
1.236731620E0,-1.717672348E0,1.811217308E0,-1.561949611E0,2.944587071E0
1.246692298E0,-1.673661470E0,1.867886543E0,-1.569136977E0,2.958434334E0
1.256694381E0,-1.619273186E0,1.934762001E0,-1.559285164E0,2.965926478E0
1.266678704E0,-1.585137129E0,2.010452271E0,-1.554129839E0,2.994978732E0
1.276699641E0,-1.588090181E0,2.616477013E0,-1.538465977E0,3.425618184E0
1.286685579E0,-1.623249531E0,2.636842728E0,-1.513704062E0,3.446618429E0
1.296697662E0,-1.642541051E0,2.627754211E0,-1.510280848E0,3.447315120E0
1.306680110E0,-1.648050547E0,2.554174423E0,-1.525397658E0,3.400987446E0
1.316692558E0,-1.626995325E0,2.419811249E0,-1.537136555E0,3.296268960E0
1.326690735E0,-1.563428164E0,1.507702827E0,-1.541074038E0,2.663153136E0
1.336734225E0,-1.438664436E0,1.381015778E0,-1.528506279E0,2.512626391E0
1.346692818E0,5.724318027E-1,-4.095268250E-2,-1.491887093E0,1.598462508E0
1.356693339E0,4.490804672E-1,-1.002054214E-1,-1.416477323E0,1.489336227E0
1.366691516E0,1.906955719E0,-7.961559296E-2,-1.367768407E0,2.348107572E0
1.376692818E0,2.662392378E0,1.952057838E0,-1.319405913E0,3.555234865E0
1.386693079E0,3.417429209E0,2.783633232E0,-1.271391392E0,4.587360073E0
1.396693860E0,4.072267532E0,3.576140404E0,-1.209113359E0,5.552845951E0
1.406692037E0,4.157337666E0,3.710618973E0,-1.139371872E0,5.687733985E0
1.416680058E0,4.737639904E0,4.445487976E0,-1.053465962E0,6.581594468E0
1.426680579E0,4.698719025E0,4.400606155E0,5.926449299E-1,6.464868368E0
1.436706100E0,4.597666740E0,4.275135994E0,6.282207966E-1,6.309515718E0
1.446684016E0,3.908782244E0,3.294057846E0,4.649692774E-1,5.132795744E0
1.456690683E0,3.748365402E0,2.441165924E0,5.014867187E-1,4.501224632E0
1.466689485E0,2.685063839E0,1.619550705E0,5.377779007E-1,3.181464659E0
1.476672245E0,2.504307032E0,8.942241669E-1,5.738474727E-1,2.720384438E0
1.486683808E0,1.265578628E0,7.404155731E-1,6.096998453E-1,1.587966746E0
1.496686308E0,9.319913387E-2,-3.598537445E-1,4.466817379E-1,5.811242302E-1
1.506682923E0,1.323111355E-1,-3.375883102E-1,4.834372103E-1,6.043042612E-1
1.516685266E0,1.711700112E-1,-3.154850006E-1,5.199707150E-1,6.318223665E-1
1.526684225E0,2.097807229E-1,-2.935419083E-1,5.562866926E-1,6.630457661E-1
1.536710006E0,8.919773996E-2,-1.639756203E0,4.334536791E-1,1.698422425E0
1.546681360E0,1.283642054E-1,-1.674962044E0,4.703991115E-1,1.744491485E0
1.556682923E0,1.672849357E-1,-1.709162712E0,5.071272850E-1,1.790642206E0
1.566686308E0,2.059646547E-1,-1.742473602E0,5.436424017E-1,1.836894868E0
1.576687610E0,2.444079071E-1,-1.774993896E0,5.799484253E-1,1.883262789E0
1.586682141E0,8.387704194E-2,-1.806812286E0,4.173072577E-1,1.856273510E0
1.596681881E0,1.231028065E-1,-1.862381935E0,4.544491172E-1,1.920974954E0
1.606683443E0,1.620897502E-1,-1.933698654E0,4.913780093E-1,2.001728233E0
1.616681360E0,2.008422911E-1,-2.554480553E0,5.280979276E-1,2.616217870E0
1.626687298E0,2.393647283E-1,-2.610259056E0,5.646126270E-1,2.681330869E0
1.636777870E0,7.888080180E-2,-2.705624580E0,4.021455050E-1,2.736484525E0
1.646690527E0,1.181603149E-1,-3.455284595E0,4.394658208E-1,3.485123198E0
1.656669329E0,1.572075337E-1,-3.499480247E0,4.765774608E-1,3.535279662E0
1.666693287E0,1.960266531E-1,-3.540288448E0,5.134841800E-1,3.582699366E0
1.676681933E0,2.346217185E-1,-3.568382740E0,5.501896143E-1,3.618164084E0
1.686683704E0,1.777160168E0,-3.590291023E0,3.878808022E-1,4.024790604E0
1.696685006E0,1.812401056E0,-3.606818199E0,4.253638685E-1,4.058924677E0
1.706683443E0,1.851541042E0,-3.623545170E0,4.626424313E-1,4.095402526E0
1.716680891E0,1.884645581E0,-3.687820435E0,5.395057797E-1,4.176478781E0
1.726681620E0,1.848453403E0,-3.708579540E0,3.773247004E-1,4.160855215E0
1.736686048E0,1.766920328E0,-3.728975773E0,4.149399996E-1,4.147221113E0
1.746682923E0,9.011610597E-2,-3.710032940E0,1.741201520E0,4.099298484E0
1.756688652E0,1.293809861E-1,-3.578837395E0,1.882215619E0,4.045683153E0
1.766682402E0,1.684294045E-1,-2.377070904E0,2.899111271E0,3.752823032E0
1.776682662E0,-1.866292357E0,-1.027176857E0,3.013322353E0,3.690291461E0
1.786684745E0,-3.377056360E0,7.896804810E-2,3.921845436E0,5.176061943E0
1.796680318E0,-4.762994766E0,2.224845886E0,4.030358315E0,6.624186479E0
1.806700110E0,-5.868494034E0,3.482364655E0,4.912843227E0,8.408454935E0
1.816681100E0,-6.675509453E0,4.469039917E0,4.994170666E0,9.459201069E0
1.826838704E0,-6.748997211E0,4.594864845E0,5.585981369E0,9.892670729E0
1.836667870E0,-6.740254402E0,4.633069038E0,5.607228756E0,9.916520178E0
1.846686620E0,-6.606298447E0,4.526695251E0,5.622095585E0,9.784789616E0
1.856684225E0,-5.422142506E0,3.398459435E0,5.621659279E0,8.517758445E0
1.866682402E0,-4.025111198E0,1.929562569E0,5.583523273E0,7.148458856E0
1.876683704E0,-2.616981983E0,-1.000013351E-1,5.478456974E0,6.072238943E0
1.886688131E0,-1.343679070E0,-7.958030701E-2,4.738822937E0,4.926281488E0
1.896683704E0,4.320077598E-1,-1.711965561E0,3.454944849E0,3.879961430E0
1.906686568E0,4.695621133E-1,-1.689074516E0,2.752134323E0,3.263082076E0
1.916683964E0,1.459877729E0,-1.541203499E0,2.005032063E0,2.920052188E0
1.926684745E0,1.523242354E0,-5.355834961E-2,1.159727216E0,1.915229224E0
1.936660162E0,1.606752634E0,-3.338623047E-2,4.738698900E-2,1.607797933E0
1.946684745E0,1.668708205E0,1.334009171E0,8.694340289E-2,2.138159652E0
1.956681620E0,1.653293371E0,2.470029831E0,-1.388426423E0,3.280572247E0
1.966681360E0,1.531483293E0,3.712391853E0,-2.168277502E0,4.563849436E0
1.976680579E0,2.997592092E-1,4.536014557E0,-2.999949694E0,5.446556876E0
1.986703495E0,3.380688429E-1,4.589433670E0,-3.144038200E0,5.573344432E0
1.996678495E0,3.761972189E-1,4.550214767E0,-3.767349005E0,5.919366292E0
2.006670735E0,4.141470194E-1,4.420610428E0,-3.651856184E0,5.748857965E0
2.016667766E0,2.529011965E-1,3.625241280E0,-2.934468746E0,4.670914276E0
2.026691829E0,2.914724052E-1,2.838110924E0,-2.854422569E0,4.035784680E0
2.036683495E0,3.298633099E-1,1.677989960E0,-2.783049345E0,3.266469618E0
2.046681881E0,1.696182132E0,-1.808223724E-1,-2.738805294E0,3.226574808E0
2.056687350E0,2.663665056E0,-1.600484848E-1,-2.742629051E0,3.826583484E0
2.066684485E0,3.468498230E0,-2.233487129E0,-2.669382572E0,4.913710212E0
2.076681360E0,4.160556793E0,-2.962817669E0,-4.413659096E0,6.750474649E0
2.086682402E0,4.027107716E0,-2.906482220E0,-4.947707653E0,7.010352806E0
2.096686568E0,3.203728676E0,-2.191476822E0,-4.860612869E0,6.220289829E0
2.106680839E0,2.320498228E0,-1.185353279E0,-4.739097118E0,5.408217444E0
2.116683704E0,1.359025240E0,-1.052656174E-1,-4.521161079E0,4.722174071E0
2.126682402E0,-2.969410419E-1,-6.652450562E-2,-3.567704201E0,3.580658146E0
2.136682923E0,-3.451582193E-1,1.464609146E0,-2.430779457E0,2.858828941E0
2.146688912E0,-1.883874297E0,1.564377785E0,-1.357422471E0,2.799795704E0
2.156680579E0,-2.124773979E0,1.607007980E0,-4.577442408E-1,2.703085071E0
2.166691256E0,-3.142205715E0,1.555920601E0,-1.792420149E-1,3.510907770E0
2.176676725E0,-3.280514717E0,5.476093292E-2,6.623241901E-1,3.347155345E0
2.186671516E0,-3.356167793E0,1.062822342E-1,8.190277815E-1,3.456293488E0
2.196666204E0,-3.337571144E0,1.527309418E-1,9.469320774E-1,3.472662990E0
2.206680370E0,-3.241378307E0,9.124660492E-2,1.033853292E0,3.403485258E0
2.216680214E0,-3.036307812E0,-1.305071831E0,1.063377142E0,3.471764473E0
2.226682923E0,-2.131782293E0,-1.309444427E0,1.072873950E0,2.722168064E0
2.236687350E0,-2.021670341E0,-1.284003258E0,1.062610626E0,2.620106234E0
2.246683964E0,-1.920876265E0,-1.226543427E0,1.088083625E0,2.525490126E0
2.256688391E0,-1.823945045E0,-1.103560448E0,1.174888611E0,2.434129092E0
2.266688391E0,-1.756760478E0,-1.047930717E0,1.215321064E0,2.379363666E0
2.276682662E0,-1.712887526E0,-9.925498962E-1,1.220626593E0,2.325740366E0
2.286684225E0,-1.679604530E0,-9.433040619E-1,1.201259375E0,2.270224222E0
2.296684225E0,-1.626601338E0,-8.896665573E-1,1.175024271E0,2.194998983E0
2.306681360E0,-1.560787559E0,-8.371791840E-1,1.147498131E0,2.110374078E0
2.316683443E0,-1.484042645E0,-7.856626511E-1,1.123928666E0,2.020609814E0
2.326682662E0,-1.393231034E0,2.376480103E-1,1.123638868E0,1.805584005E0
2.336681360E0,-1.290382028E0,2.597513199E-1,1.143057346E0,1.743311969E0
2.346703235E0,-1.181968212E0,1.821765900E-1,1.194286585E0,1.690135382E0
2.356681360E0,-1.068540812E0,2.044839859E-1,1.248679996E0,1.656138550E0
2.366669954E0,-9.661361575E-1,2.265253067E-1,1.290607929E0,1.628005410E0
2.376663704E0,-8.927350044E-1,2.481203079E-1,1.291588902E0,1.589572700E0
2.386681881E0,-8.431104422E-1,2.682466507E-1,1.243516207E0,1.526146795E0
2.396681620E0,-8.285775185E-1,1.889505386E-1,1.158178806E0,1.436530946E0
2.406684745E0,-8.543065190E-1,2.096881866E-1,1.044984102E0,1.365943095E0
2.416687350E0,-9.007285833E-1,2.304935455E-1,2.986547947E-1,9.765418280E-1
2.426693079E0,-9.534001350E-1,2.513551712E-1,2.288284302E-1,1.012182637E0
2.436692037E0,-1.091878533E0,1.596007347E0,8.102107048E-2,1.935459273E0
2.446691516E0,-1.143869042E0,2.252132416E0,5.470490456E-2,2.526564749E0
2.456697766E0,-1.195566058E0,2.331974030E0,6.647157669E-2,2.621430820E0
2.466694641E0,-1.233436704E0,2.431076050E0,1.299529076E-1,2.729172882E0
2.476694902E0,-1.269371033E0,3.062851906E0,2.392704487E-1,3.324096112E0
2.486688912E0,-1.328614712E0,3.078482628E0,3.335194588E-1,3.369496635E0
2.496691516E0,-1.998760462E0,3.081761360E0,4.319765568E-1,3.698499724E0
2.506690735E0,-2.038029671E0,3.063480377E0,5.356495380E-1,3.718251926E0
2.516692298E0,-2.081843853E0,3.012569427E0,6.317934990E-1,3.716020911E0
2.526724068E0,-2.085764170E0,2.903856277E0,6.868610382E-1,3.640682839E0
2.536677193E0,-2.031023502E0,2.066276550E0,7.137434483E-1,2.983954584E0
2.546674641E0,-1.889746547E0,1.906189919E0,7.226228714E-1,2.779727654E0
2.556706360E0,-8.826847076E-1,1.886005402E-1,7.382059097E-1,1.166040489E0
2.566696256E0,8.046193123E-1,2.119026184E-1,7.737984657E-1,1.136256583E0
2.576681673E0,8.635216951E-1,2.341890335E-1,8.218729496E-1,1.214903028E0
2.586689693E0,2.073986292E0,1.562356949E-1,8.623838425E-1,2.251562707E0
2.596694381E0,3.034474373E0,1.781797409E-1,9.119726419E-1,3.173559018E0
2.606686568E0,3.827047348E0,2.010345459E-1,9.839739799E-1,3.956628753E0
2.616693600E0,4.809153557E0,2.694120407E0,1.137655020E0,5.628543475E0
2.626695943E0,4.805712700E0,3.596424103E0,1.210036397E0,6.123179645E0
2.636683183E0,4.740930080E0,4.309691429E0,1.296805382E0,6.536938308E0
2.646684485E0,4.617181301E0,4.414152145E0,1.380598068E0,6.535224048E0
2.656698808E0,4.430669308E0,4.468375206E0,2.835035324E0,6.901784754E0
2.666687089E0,4.195703983E0,4.470359802E0,2.862794161E0,6.766360845E0
2.676681360E0,3.316297531E0,4.396160126E0,2.683388948E0,6.125735010E0
2.686693079E0,3.034949303E0,4.246708870E0,2.696985245E0,5.875302793E0
2.696680058E0,2.020992517E0,3.238802910E0,2.704389334E0,4.678458797E0
2.706685527E0,1.723517299E0,3.064549446E0,2.710163116E0,4.439252111E0
2.716687402E0,4.772344232E-1,1.902913094E0,2.671941280E0,3.314830485E0
2.726672506E0,-7.961419225E-1,1.207285881E0,2.437056065E0,2.833835461E0
2.736711308E0,-8.636498451E-1,1.052225113E0,2.405800819E0,2.764226171E0
2.746680891E0,-9.005895257E-1,-2.484035492E-2,2.376931190E0,2.541944221E0
2.756685058E0,-9.270711541E-1,-1.173114777E-2,2.351754665E0,2.527913873E0
2.766686048E0,-9.218844771E-1,2.393722534E-4,2.332517624E0,2.508088817E0
2.776687089E0,-1.109015107E0,-8.711051941E-2,2.117037535E0,2.391516396E0
2.786690214E0,-1.059480786E0,-7.627201080E-2,2.109672308E0,2.361997926E0
2.796682662E0,-9.796013832E-1,-1.068620682E0,2.106819153E0,2.557392417E0
2.806683443E0,-8.624991775E-1,-1.142545700E0,2.148212671E0,2.581498245E0
2.816682402E0,-9.843791723E-1,-1.197846413E0,1.950000644E0,2.491252876E0
2.826669433E0,-9.065446854E-1,-1.290342331E0,1.952707171E0,2.509954560E0
2.836688131E0,-8.274162412E-1,-2.068949699E0,3.707103729E-1,2.258892799E0
2.846683964E0,-7.462996244E-1,-2.216193199E0,2.666813135E-1,2.353634285E0
2.856683704E0,-6.675541997E-1,-3.277774334E0,1.415685415E-1,3.348055383E0
2.866680579E0,-7.899862528E-1,-3.434555531E0,3.612136841E-2,3.524422609E0
2.876680318E0,4.375044107E-1,-4.548352718E0,-4.331421852E-2,4.569551256E0
2.886687089E0,5.748209357E-1,-4.672630310E0,-8.400869370E-2,4.708603889E0
2.896690631E0,1.291515112E0,-5.446297169E0,-9.231197834E-2,5.598096608E0
2.906683391E0,1.406648278E0,-5.490908623E0,-1.087439060E-2,5.668232100E0
2.916694381E0,1.532863855E0,-5.521248817E0,1.107600927E-1,5.731154151E0
2.926681464E0,1.635190964E0,-5.509737968E0,7.976374626E-1,5.802351893E0
2.936662975E0,1.675227404E0,-5.450752258E0,9.388602972E-1,5.779147488E0
2.946681360E0,1.667582750E0,-5.341097832E0,2.058961630E0,5.962170852E0
2.956682923E0,1.607143641E0,-4.683426380E0,2.134799480E0,5.392101832E0
2.966681620E0,1.497336864E0,-4.550479889E0,2.010728598E0,5.195374327E0
2.976681881E0,1.335188150E0,-3.783973694E0,2.065213203E0,4.512902601E0
2.986690995E0,-6.645808816E-1,-2.495997429E0,4.544840336E0,5.227546709E0
2.996683183E0,-6.718824506E-1,-1.325866699E0,5.677166939E0,5.868523919E0
3.006682662E0,-2.196205139E0,1.315460205E-1,6.512397766E0,6.874005094E0
3.016682402E0,-3.792705297E0,2.374264717E0,6.611866474E0,7.983641067E0
3.026685266E0,-5.603284836E0,4.187024117E0,7.634544373E0,1.035443092E1
3.036686568E0,-7.165979862E0,5.442235947E0,7.669193745E0,1.182310163E1
3.046683183E0,-8.304790497E0,6.198497772E0,8.524864197E0,1.341880134E1
3.056681881E0,-8.988712311E0,6.225050926E0,8.403541565E0,1.379013121E1
3.066682141E0,-9.001495361E0,6.148293495E0,8.169709206E0,1.362250271E1
3.076704433E0,-8.857573509E0,5.280410767E0,7.819669247E0,1.294166038E1
3.086718912E0,-8.504241943E0,3.763773918E0,6.826207161E0,1.153625716E1
3.096703600E0,-6.619584084E0,1.922945023E0,6.431209087E0,9.427463144E0
3.106682193E0,-4.771793842E0,-1.943559647E-1,5.110232830E0,6.994445674E0
3.116680110E0,-3.035254955E0,-1.668806076E-1,4.092335224E0,5.097825945E0
3.126682662E0,-1.403920650E0,-1.311197281E-1,2.962942600E0,3.281343388E0
3.136687610E0,8.732424378E-1,-8.916282654E-2,1.630114794E0,1.851425560E0
3.146682402E0,1.088932037E0,1.830462456E0,3.607991934E-1,2.160218008E0
3.156686048E0,2.688543797E0,3.002424240E0,-8.973908424E-1,4.128938046E0
3.166685006E0,2.968952656E0,4.103790283E0,-2.191454887E0,5.518899264E0
3.176684225E0,3.029652119E0,4.175528526E0,-3.373922586E0,6.164185595E0
3.186694902E0,2.974130392E0,4.136632919E0,-4.587197781E0,6.855623019E0
3.196680579E0,2.901640892E0,3.955024719E0,-5.435688972E0,7.321779497E0
3.206684485E0,2.768534899E0,2.436142921E0,-5.457419395E0,6.586577585E0
3.216681360E0,2.646065950E0,1.174716949E0,-5.447645187E0,6.169154157E0
3.226681360E0,2.556544065E0,-1.212053299E-1,-6.146538734E0,6.658118856E0
3.236686829E0,2.568657875E0,-1.311885834E0,-6.149861336E0,6.792631461E0
3.246682141E0,3.474133492E0,-2.181348801E0,-6.720020771E0,7.873154722E0
3.256696673E0,4.211939335E0,-2.348077297E0,-6.512643814E0,8.103605951E0
3.266701412E0,4.871504307E0,-3.252526283E0,-6.229843616E0,8.551107117E0
3.276750683E0,4.909745693E0,-3.209749222E0,-5.928433895E0,8.339929333E0
3.286688443E0,4.904361725E0,-3.054359913E0,-5.636125088E0,8.071417745E0
3.296684745E0,4.808431149E0,-1.744773865E0,-4.792885303E0,7.009778562E0
3.306688652E0,4.569422722E0,-1.385498047E-1,-4.471029282E0,6.394444690E0
3.316683704E0,3.342951775E0,-1.012935638E-1,-3.333010197E0,4.721709852E0
3.326684745E0,2.271368980E0,-5.922889709E-2,-2.372352123E0,3.284917001E0
3.336690475E0,1.151684999E0,-1.293087006E-2,-1.389353871E0,1.804674410E0
3.346687610E0,-2.744505405E-1,1.024869919E0,-2.416803837E-1,1.088159390E0
3.356686048E0,-1.651504278E0,6.939888000E-3,-5.348479748E-2,1.652384691E0
3.366688652E0,-1.853956342E0,5.580329895E-2,5.838429928E-2,1.855714647E0
3.376686568E0,-2.033987522E0,1.003856659E-1,7.142794132E-2,2.037715503E0
3.386689954E0,-2.155858040E0,3.789615631E-2,-5.502934456E-1,2.225305121E0
3.396682662E0,-2.223174095E0,7.219314575E-2,-5.906589031E-1,2.301432781E0
3.406682141E0,-2.222304821E0,1.035223007E-1,-6.395456791E-1,2.314816248E0
3.416681881E0,-2.203243971E0,1.347246170E-1,-6.474204063E-1,2.300345170E0
3.426681360E0,-2.142048597E0,1.638145447E-1,-6.191127300E-1,2.235734325E0
3.436721725E0,-2.088646650E0,9.333419800E-2,-5.698862076E-1,2.167008628E0
3.446679225E0,-2.047905207E0,1.230497360E-1,-4.634618759E-1,2.103295957E0
3.456705266E0,-2.024193764E0,1.529798508E-1,-3.024394512E-1,2.052372493E0
3.466681152E0,-2.000325441E0,1.827192307E-1,5.756596327E-1,2.089514824E0
3.476683964E0,-1.972117424E0,2.125473022E-1,7.134909630E-1,2.107959403E0
3.486692818E0,-1.926425815E0,1.427259445E-1,8.469002247E-1,2.109200584E0
3.496683704E0,-1.845438600E0,1.729326248E-1,9.322355986E-1,2.074756017E0
3.506683183E0,-1.741329312E0,2.032070160E-1,9.757366180E-1,2.006385510E0
3.516684485E0,-1.618429303E0,2.263793945E-1,9.670597315E-1,1.898885348E0
3.526683704E0,9.532070160E-2,1.688337326E-1,9.110003710E-1,9.314035330E-1
3.536687870E0,1.872317791E-1,1.906156540E-1,9.049066305E-1,9.435285245E-1
3.546684745E0,2.767263651E-1,2.125091553E-1,9.191982746E-1,9.831902615E-1
3.556682662E0,3.637168407E-1,2.343616486E-1,9.410721064E-1,1.035776053E0
3.566682662E0,4.490967989E-1,2.560882568E-1,9.593925476E-1,1.089817962E0
3.576685266E0,3.301304579E-1,1.779088974E-1,9.797840118E-1,1.049101713E0
3.586688131E0,3.495279253E-1,1.973419189E-1,9.933056831E-1,1.071340181E0
3.596680579E0,-1.071542025E0,2.165384293E-1,9.796912670E-1,1.467953058E0
3.606681620E0,-1.214074135E0,2.355365753E-1,9.277942181E-1,1.546045146E0
3.616806360E0,-2.102405071E0,1.319345474E0,8.338952065E-1,2.618427158E0
3.626682402E0,-2.222168922E0,1.390812874E0,7.376320362E-1,2.723324474E0
3.636686933E0,-2.918938398E0,1.501672745E0,6.682033539E-1,3.349883301E0
3.646666933E0,-2.974016666E0,2.263714790E0,6.420600414E-1,3.792284388E0
3.656688391E0,-3.012472630E0,2.321022034E0,6.436481476E-1,3.856995925E0
3.666681933E0,-2.977740765E0,2.401394844E0,6.640241146E-1,3.882597749E0
3.676694641E0,-2.918968201E0,2.469375610E0,6.894855499E-1,3.885045892E0
3.686695683E0,-2.823788643E0,2.525715828E0,7.331655025E-1,3.858828112E0
3.696693860E0,-2.735808134E0,2.554300308E0,7.761967182E-1,3.822509327E0
3.706695162E0,-2.639316082E0,2.488139153E0,8.844004869E-1,3.733495687E0
3.716691777E0,-2.539982319E0,2.367202759E0,8.952043056E-1,3.585603133E0
3.726691777E0,-2.425381184E0,1.309362411E0,8.693202734E-1,2.890090232E0
3.736692818E0,-2.274084330E0,1.793594360E-1,8.408724070E-1,2.431192249E0
3.746731360E0,-2.073215008E0,2.056493759E-1,8.348569870E-1,2.244437195E0
3.756692037E0,-1.001279950E0,2.315597534E-1,8.608818054E-1,1.340633783E0
3.766694381E0,-1.797592640E-1,-8.642177582E-1,9.201242924E-1,1.275074288E0
3.776691777E0,1.261696696E0,-8.082790375E-1,9.755563736E-1,1.787988757E0
3.786695423E0,1.363253832E0,2.146186829E-1,9.834326506E-1,1.694597878E0
3.796679225E0,3.051642418E0,2.424049377E-1,9.609208107E-1,3.208527763E0
3.806701829E0,4.209100246E0,2.573459625E0,9.268434048E-1,5.019786651E0
3.816683495E0,5.204489708E0,4.073355675E0,8.781731129E-1,6.667092889E0
3.826668183E0,5.950947762E0,5.303353310E0,8.407161236E-1,8.015368936E0
3.836683756E0,5.999159813E0,6.235612869E0,8.143417835E-1,8.691141401E0
3.846736308E0,6.020029068E0,6.346476555E0,8.109601736E-1,8.784996929E0
3.856692558E0,5.915637970E0,6.379807472E0,8.437712193E-1,8.741205057E0
3.866683964E0,5.670748711E0,6.304630280E0,9.555684328E-1,8.533397033E0
3.876680839E0,5.270173550E0,6.095875740E0,2.498184681E0,8.436548879E0
3.886687610E0,2.807007790E0,3.718721390E0,2.545054913E0,5.309000472E0
3.896684485E0,1.530707359E0,2.955487251E0,3.568864346E0,4.880037154E0
3.906683964E0,3.381793201E-2,2.776665688E0,3.543870449E0,4.502225422E0
3.916685266E0,-1.089758798E-1,1.665418625E0,3.508726120E0,3.885441278E0
3.926684225E0,-1.899030209E0,1.500199318E0,3.388129950E0,4.163692866E0
3.936659537E0,-2.733182430E0,-4.361057281E-2,2.277149439E0,3.557751768E0
3.946704277E0,-2.973190069E0,-3.408908844E-2,2.242293596E0,3.724097451E0
3.956681360E0,-3.846470594E0,-1.232576370E-1,2.015916824E0,4.344473400E0
3.966684745E0,-3.892746687E0,-1.127262115E-1,1.995764017E0,4.375986515E0
3.976704068E0,-3.851755142E0,-1.585031509E0,1.979174852E0,4.611450494E0
3.986686725E0,-3.759377241E0,-1.696555138E0,1.968910217E0,4.570319903E0
3.996696516E0,-3.568179131E0,-2.409057617E0,1.961316586E0,4.730985485E0
4.006666985E0,-2.595862150E0,-2.500839710E0,7.938686609E-1,3.690924953E0
4.016687402E0,-2.394275427E0,-3.137478828E0,6.627167463E-1,4.001939743E0
4.026683495E0,-1.470471621E0,-3.242655277E0,-4.053485394E-2,3.560722273E0
4.036682923E0,-1.260181069E0,-4.021170616E0,-1.537449360E-1,4.216812417E0
4.046707141E0,6.346476078E-2,-4.127624035E0,-2.782319784E-1,4.137477611E0
4.056689173E0,-1.370492578E-2,-4.934829712E0,-9.656410217E-1,5.028438594E0
4.066685527E0,1.175877094E0,-5.727852821E0,-1.002283096E0,5.932584284E0
4.076683183E0,2.195968866E0,-5.794960022E0,-9.482947588E-1,6.269218761E0
4.086686308E0,2.354632616E0,-5.866110802E0,-8.249105215E-1,6.374639446E0
4.096683443E0,3.037989616E0,-5.934694290E0,-1.092317104E-1,6.667976364E0
4.106682923E0,3.093435764E0,-5.981094360E0,7.339692116E-2,6.734108826E0
4.116681620E0,3.129425764E0,-5.993166447E0,1.942585588E0,7.034556733E0
4.126682141E0,3.079767942E0,-5.961798668E0,2.032688141E0,7.011407492E0
4.136681620E0,2.952930212E0,-5.862243176E0,2.125427961E0,6.899502584E0
4.146703235E0,2.777605534E0,-5.702645302E0,2.018847704E0,6.656650959E0
4.156713391E0,1.932038426E0,-4.562865257E0,3.786727667E0,6.236330512E0
4.166679173E0,1.667952776E0,-3.649861336E0,4.577942848E0,6.087784076E0
4.176680110E0,-2.625844479E-1,-2.396082401E0,5.447864532E0,5.957297158E0
4.186693287E0,-3.303921819E-1,2.047681808E-1,6.193365097E0,6.205550759E0
4.196689225E0,-2.263240814E0,1.615507126E0,6.263602257E0,6.853089485E0
4.206682923E0,-3.904160261E0,3.793604851E0,6.997511387E0,8.865611695E0
4.216678287E0,-5.573857784E0,5.349851608E0,7.679303169E0,1.089314004E1
4.226681881E0,-7.062018394E0,6.397959709E0,8.366748810E0,1.268102827E1
4.236682402E0,-8.218822479E0,6.491231918E0,8.825129509E0,1.369554839E1
4.246712870E0,-9.028791428E0,6.382308006E0,8.674645424E0,1.405355483E1
4.256685787E0,-8.816480637E0,4.775023460E0,8.334663391E0,1.303832020E1
4.266683183E0,-7.748633862E0,2.737203598E0,7.952073574E0,1.143543110E1
4.276686308E0,-6.455622196E0,-8.740139008E-2,6.834456921E0,9.401728476E0
4.286683704E0,-5.031176090E0,-1.701221466E-1,5.469142914E0,7.433249532E0
4.296683443E0,-3.607709408E0,-1.810176849E0,3.869330168E0,5.591424089E0
4.306685266E0,-2.353712082E0,-1.804212570E0,2.321119785E0,3.765997958E0
4.316681620E0,-1.136639595E0,-1.665529251E0,7.899307013E-1,2.165624106E0
4.326682402E0,3.243100643E-2,2.238464355E-2,-7.552352548E-1,7.562626081E-1
4.336699850E0,1.267569423E0,-1.596546173E-2,-1.092004299E0,1.673158847E0
4.346720214E0,1.456979275E0,2.356509209E0,-1.230550170E0,3.031530633E0
4.356672558E0,1.596097112E0,3.775068283E0,-2.773839712E0,4.949025488E0
4.366693183E0,1.693781734E0,4.854259491E0,-3.011030674E0,5.958106871E0
4.376685579E0,1.752730489E0,4.968790054E0,-4.213197708E0,6.746256273E0
4.386683183E0,1.576095343E0,4.947307587E0,-4.330047607E0,6.760860978E0
4.396683704E0,1.561563611E0,4.786267281E0,-4.935751438E0,7.050423934E0
4.406682923E0,2.547952652E0,3.496359825E0,-4.850059509E0,6.499205489E0
4.416682141E0,2.477755785E0,2.132747650E0,-4.848428726E0,5.847661702E0
4.426683183E0,2.436085939E0,4.717826843E-3,-5.641402245E0,6.144913038E0
4.436685787E0,3.866344929E0,-1.764156342E0,-5.661121845E0,7.078783176E0
4.446709225E0,4.592480183E0,-2.501213074E0,-5.519629478E0,7.603502525E0
4.456686568E0,4.648278236E0,-2.585784435E0,-5.374902248E0,7.561900944E0
4.466682923E0,5.378288269E0,-2.587335587E0,-5.791160583E0,8.316118749E0
4.476679798E0,5.265758038E0,-2.452733994E0,-5.643325806E0,8.098841763E0
4.486677454E0,5.056621552E0,-1.177832603E0,-5.428236008E0,7.511488355E0
4.496683183E0,3.955308676E0,-9.918022156E-2,-5.146903515E0,6.491911832E0
4.506684485E0,2.919383526E0,-7.743930817E-2,-4.282158852E0,5.183211499E0
4.516680839E0,1.759704590E0,-4.939174652E-2,-3.930828571E0,4.307019044E0
4.526699641E0,1.763115972E-1,-1.155653000E-1,-2.659000397E0,2.667344040E0
4.536700370E0,7.644957304E-2,-7.693767548E-2,-1.806696415E0,1.809949137E0
4.546762558E0,-1.860387437E-2,-3.409671783E-2,-1.488877177E0,1.489383745E0
4.556689745E0,-1.638413429E0,1.241111755E-2,-5.709066391E-1,1.735075500E0
4.566679068E0,-1.790121794E0,6.199359894E-2,-4.011182785E-1,1.835558530E0
4.576682923E0,-1.851457596E0,1.206493378E-2,-2.749166489E-1,1.871795917E0
4.586683183E0,-1.806788802E0,-1.101480484E0,-2.174279690E-1,2.127209429E0
4.596686308E0,-3.926343620E-1,-1.082691193E0,-2.087748051E-1,1.170456697E0
4.606685787E0,-3.496329784E-1,-1.025238991E0,-2.084746361E-1,1.103095590E0
4.616689433E0,-4.670867920E-1,7.147026062E-2,-2.484836578E-1,5.338747022E-1
4.626684225E0,-4.249798954E-1,9.923076630E-2,-2.071778774E-1,4.830914296E-1
4.636682141E0,-3.832515180E-1,1.266822815E-1,-1.242458820E-1,4.223353711E-1
4.646712089E0,-3.433260620E-1,1.538610458E-1,-2.479028702E-2,3.770418605E-1
4.656693339E0,-3.047414422E-1,1.804304123E-1,7.288002968E-2,3.615715406E-1
4.666682662E0,-1.876213789E0,1.069345474E-1,1.455233097E-1,1.884884668E0
4.676683704E0,-1.982703209E0,-1.002190590E0,1.817798615E-1,2.229022636E0
4.686682141E0,-2.597450733E0,-1.017547607E0,2.105944157E-1,2.797588864E0
4.696679537E0,-2.626368523E0,-1.010474205E0,2.377350330E-1,2.824072889E0
4.706704225E0,-2.627150059E0,-9.838542938E-1,2.681243420E-1,2.818115925E0
4.716679745E0,-2.591630936E0,-9.262208939E-1,3.036901951E-1,2.768874101E0
4.726771256E0,-2.509171963E0,-8.365087509E-1,3.640077114E-1,2.669867495E0
4.736681152E0,-2.343502998E0,1.975107193E-1,4.564250708E-1,2.395692099E0
4.746691152E0,-1.514729619E0,2.192821503E-1,5.624673367E-1,1.630601112E0
4.756681360E0,-1.382110000E0,2.410945892E-1,6.605551243E-1,1.550705557E0
4.766682141E0,-1.257208705E0,1.632080078E-1,7.321592569E-1,1.463990355E0
4.776684225E0,-1.148504734E0,1.847934723E-1,7.735935450E-1,1.397017797E0
4.786688912E0,-1.069048405E0,2.056674957E-1,7.730536461E-1,1.335206183E0
4.796686048E0,-1.067307115E0,2.456741333E-1,6.711838245E-1,1.284518580E0
4.806686048E0,-1.094939351E0,1.629488945E0,5.799129009E-1,2.047052852E0
4.816686048E0,-1.157918334E0,1.724149704E0,4.853563309E-1,2.132847355E0
4.826674693E0,-1.811517000E0,2.428548813E0,4.073419571E-1,3.057019897E0
4.836681360E0,-1.865791917E0,2.508491516E0,3.489694595E-1,3.145709594E0
4.846707141E0,-1.944801688E0,2.616664886E0,3.074986935E-1,3.274712839E0
4.856684745E0,-2.650923252E0,3.363460541E0,3.102760315E-1,4.293778303E0
4.866689693E0,-2.685314417E0,3.388106346E0,3.424692154E-1,4.336757233E0
4.876693860E0,-2.762094736E0,3.404248238E0,4.213354588E-1,4.404043252E0
4.886761464E0,-3.447077036E0,3.407143593E0,5.126732588E-1,4.873787175E0
4.896678391E0,-3.472524643E0,3.374843597E0,1.250430346E0,5.001157141E0
4.906849745E0,-3.507523775E0,3.296698570E0,1.296624541E0,4.985196054E0
4.916675631E0,-3.505746603E0,2.644910812E0,1.320537329E0,4.585807594E0
4.926679329E0,-3.433183908E0,2.473398209E0,1.335213780E0,4.437031247E0
4.936656360E0,-3.292880535E0,1.110458374E0,1.327401161E0,3.719969605E0
4.946727193E0,-3.072509766E0,1.502408981E-1,1.307648540E0,3.342578838E0
4.956694641E0,-1.773477077E0,6.541538239E-2,1.260886431E0,2.177001311E0
4.966693339E0,-7.818952799E-1,8.104228973E-2,1.225301743E0,1.455778981E0
4.976694902E0,8.713087440E-1,1.173515320E-1,1.095605135E0,1.404742297E0
4.986693079E0,2.546789408E0,2.052509308E0,1.012202382E0,3.423957419E0
4.996690995E0,3.450007439E0,3.505006790E0,9.583772421E-1,5.010599851E0
5.006692818E0,3.643800735E0,4.927888870E0,9.336792231E-1,6.199445895E0
5.016694381E0,4.522316456E0,6.136095047E0,9.295103550E-1,7.678997204E0
5.026690995E0,4.473637104E0,6.997797012E0,9.540619850E-1,8.360192954E0
5.036692298E0,4.370149612E0,7.047612190E0,1.002646446E0,8.352984204E0
5.046735266E0,4.143988132E0,6.952249527E0,2.001780987E0,8.337477931E0
5.056703495E0,3.170716524E0,5.947899818E0,2.010334015E0,7.033661804E0
5.066792089E0,2.898045063E0,4.788363457E0,2.013196707E0,5.948113210E0
5.076682662E0,1.881963253E0,3.749848366E0,2.017809868E0,4.655610069E0
5.086708808E0,1.637992740E0,2.852263451E0,2.024295568E0,3.862149603E0
5.096678287E0,-2.587435767E-2,2.046360016E0,1.832507014E0,2.747060384E0
5.106685527E0,-8.882672340E-2,1.281603813E0,1.808996320E0,2.218753300E0
5.116684745E0,-1.455371678E-1,-1.660747528E-1,1.788817167E0,1.802395281E0
5.126684745E0,-1.954116523E-1,-1.534080505E-1,1.770934939E0,1.788275791E0
5.136682402E0,-2.354396135E-1,-1.394481659E-1,6.457901001E-1,7.013718386E-1
5.146708704E0,-4.368821979E-1,-2.242202759E-1,-4.876410961E-2,4.934761649E-1
5.156687089E0,-3.503308296E-1,-2.071887016E0,-1.719260216E-1,2.108318300E0
5.166686568E0,-3.021739423E-1,-2.823759079E0,-1.976691484E-1,2.846752100E0
5.176685787E0,-2.536250353E-1,-2.870880604E0,-1.890388727E-1,2.888254974E0
5.186685527E0,-4.038639069E-1,-2.906356335E0,-1.578878164E-1,2.938527142E0
5.196682923E0,-3.529683352E-1,-2.931972504E0,-9.638214111E-2,2.954714694E0
5.206682402E0,-3.024711609E-1,-2.974678516E0,-4.153370857E-2,2.990305357E0
5.216680839E0,-2.504589856E-1,-3.043864727E0,2.504014969E-2,3.054254277E0
5.226681881E0,-1.978732497E-1,-3.700075150E0,6.284344196E-2,3.705895200E0
5.236681100E0,-3.462638259E-1,-3.775789261E0,6.284296513E-2,3.792154060E0
5.246697037E0,-2.920648754E-1,-4.487479687E0,5.251336098E-2,4.497280677E0
5.256689277E0,-2.352598161E-1,-4.595793247E0,4.866623878E-2,4.602068139E0
5.266695839E0,-1.780643761E-1,-5.420716286E0,6.392753124E-2,5.424016842E0
5.276672454E0,-1.212843508E-1,-5.488766670E0,1.106142998E-1,5.491220718E0
5.286681673E0,1.048040509E0,-5.555420399E0,1.943746805E-1,5.656754037E0
5.296683183E0,1.150253654E0,-5.605732441E0,2.931687832E-1,5.730032077E0
5.306684485E0,1.276447296E0,-5.627598286E0,4.167560339E-1,5.785573935E0
5.316682923E0,1.960641742E0,-5.599359035E0,1.980800271E0,6.254638867E0
5.326682662E0,2.009657145E0,-5.512428761E0,2.057146311E0,6.217511047E0
5.336682402E0,1.983597875E0,-4.238140106E0,1.972375631E0,5.078066337E0
5.346708704E0,1.879194379E0,-3.325750351E0,3.725910664E0,5.336140664E0
5.356684485E0,1.172954440E0,-2.138217449E0,4.791096687E0,5.376095558E0
5.366681881E0,-1.990662366E-1,1.485795975E-1,5.822062492E0,5.827359173E0
5.376685006E0,-3.994542956E-1,1.437726021E0,6.627709866E0,6.793611551E0
5.386684225E0,-2.158016920E0,3.689816475E0,7.454129696E0,8.592777908E0
5.396682402E0,-3.528131247E0,5.431004524E0,8.282893181E0,1.051426839E1
5.406682141E0,-4.560678482E0,6.569050789E0,8.978780746E0,1.202375649E1
5.416681360E0,-4.753622532E0,6.662330627E0,8.923816681E0,1.210859532E1
5.426679954E0,-5.596009254E0,6.670516968E0,8.752929688E0,1.234604772E1
5.436705214E0,-5.557825565E0,6.539057732E0,8.443737030E0,1.203932706E1
5.446720214E0,-5.449740410E0,5.292781830E0,7.993261814E0,1.102748586E1
5.456670839E0,-5.192813396E0,3.416838646E0,6.675703049E0,9.121683425E0
5.466681673E0,-3.745324135E0,1.107216835E0,5.559464455E0,6.794190682E0
5.476682923E0,-2.906456709E0,-2.295942307E-1,4.233909130E0,5.140641072E0
5.486685266E0,-2.650344372E0,-1.426277161E0,2.893027067E0,4.174709264E0
5.496682141E0,-1.870404959E0,-1.396212578E0,1.593619347E0,2.826207157E0
5.506683964E0,-1.648170233E0,-1.188936234E-1,-7.793688774E-1,1.827023989E0
5.516684745E0,-5.332080722E-1,1.940517426E0,-1.080483437E0,2.284154807E0
5.526682402E0,6.649630666E-1,3.465913773E0,-2.220070362E0,4.169346060E0
5.536681881E0,7.931806445E-1,4.699403763E0,-3.373957872E0,5.839274183E0
5.546713912E0,8.915321231E-1,5.428307533E0,-4.246578217E0,6.949444492E0
5.556681360E0,9.824549556E-1,5.408655167E0,-5.010056019E0,7.437703259E0
5.566682923E0,8.396406174E-1,4.605443954E0,-5.024477482E0,6.867349150E0
5.576683704E0,8.897293806E-1,3.351796150E0,-4.950098038E0,6.043974387E0
5.586681620E0,8.956822157E-1,1.774934769E0,-4.846853733E0,5.238762370E0
5.596681620E0,9.019545317E-1,-1.536808014E-1,-4.815435886E0,4.901587757E0
5.606718079E0,2.473701000E0,-1.754011154E0,-5.471325397E0,6.255489859E0
5.616680891E0,3.416611910E0,-2.984987259E0,-5.367057800E0,7.027709108E0
5.626688704E0,4.318776131E0,-3.736193657E0,-5.229197979E0,7.743092523E0
5.636699589E0,4.440309525E0,-3.768177032E0,-5.100057125E0,7.741194320E0
5.646709381E0,5.130029202E0,-3.640368938E0,-4.997276306E0,8.033819521E0
5.656693079E0,5.072753429E0,-2.385224342E0,-4.885670662E0,7.435852361E0
5.666682402E0,4.867499828E0,-1.246666908E0,-4.713364601E0,6.889306121E0
5.676687089E0,3.631707191E0,-1.880655289E-1,-4.404799461E0,5.711998255E0
5.686687089E0,2.536315203E0,-1.599454880E-1,-3.269523144E0,4.141045635E0
5.696686568E0,2.732962072E-1,1.029265404E0,-1.635329962E0,1.951507666E0
5.706680058E0,9.687222540E-3,1.049088478E0,-7.751183510E-1,1.304411337E0
5.716684485E0,-5.027502030E-2,9.535875320E-1,-5.244202614E-1,1.089437180E0
5.726685006E0,-1.652690291E0,-1.010570526E-1,-3.453726768E-1,1.691413614E0
5.736685006E0,-1.789667130E0,-6.166076660E-2,-2.559124231E-1,1.808922788E0
5.746681100E0,-1.879509807E0,-2.565956116E-2,-2.577317953E-1,1.897272043E0
5.756682402E0,-1.894602299E0,-1.631889343E0,-8.239437342E-1,2.632767361E0
5.766682923E0,-1.845163822E0,-1.614438057E0,-8.227595091E-1,2.586111556E0
5.776682141E0,-1.759198070E0,-1.553596497E0,-7.921203375E-1,2.477073788E0
5.786701152E0,-1.677150965E0,-1.469585419E0,-7.459056377E-1,2.351359582E0
5.796681256E0,-1.582437634E0,-1.366581917E0,-6.767477989E-1,2.197644782E0
5.806687402E0,-1.504163265E0,-1.265276909E0,-5.680271387E-1,2.045993063E0
5.816693339E0,-1.451711535E0,-1.176028252E0,-4.189176559E-1,1.914680348E0
5.826670058E0,-1.416458488E0,-1.119059563E0,4.250297546E-1,1.854534778E0
5.836684225E0,-1.380705714E0,-1.092743874E0,5.331358910E-1,1.839747624E0
5.846684225E0,-1.346147180E0,-1.088319778E0,6.392428875E-1,1.845313967E0
5.856690214E0,-1.307243586E0,-1.107898712E0,7.240135670E-1,1.860247562E0
5.866682923E0,-1.259069681E0,-1.119050980E0,7.656525373E-1,1.850339257E0
5.876681881E0,-1.133397579E0,-1.143515587E0,7.808345556E-1,1.789391118E0
5.886683964E0,-1.040651798E0,-1.131896973E0,7.885897160E-1,1.728010608E0
5.896682402E0,-9.603252411E-1,-1.082615852E0,7.875422239E-1,1.647575311E0
5.906683443E0,-8.961855173E-1,-9.808282852E-1,7.889554501E-1,1.545193615E0
5.916684485E0,-8.419420123E-1,7.930755615E-2,8.036332130E-1,1.166611496E0
5.926683183E0,-8.106830120E-1,9.993076324E-2,8.157578707E-1,1.154406344E0
5.936659173E0,-8.165987730E-1,1.204566956E-1,8.502559662E-1,1.185022607E0
5.946681100E0,-8.742343187E-1,4.115104675E-2,8.553940058E-1,1.223796534E0
5.956681360E0,-1.551277518E0,1.207322121E0,8.398661613E-1,2.137630420E0
5.966687089E0,-1.616697907E0,1.306882858E0,7.912306786E-1,2.224342805E0
5.976684120E0,-1.697057962E0,1.968341827E0,7.074081898E-1,2.693473895E0
5.986678548E0,-2.377766609E0,2.022519112E0,6.086232662E-1,3.180374174E0
5.996702298E0,-2.385321140E0,2.093650818E0,-3.331375122E-2,3.173994407E0
6.006680110E0,-2.398961067E0,2.174670219E0,-8.364725113E-2,3.239012446E0
6.016683495E0,-2.419054508E0,2.258039474E0,-1.491634846E-1,3.312524223E0
6.026684485E0,-2.401869297E0,2.312043190E0,-2.132313251E-1,3.340656736E0
6.036684745E0,-2.370888472E0,2.314026833E0,-2.787892818E-1,3.324688826E0
6.046681100E0,-2.331270933E0,2.252301216E0,-3.401806355E-1,3.259356961E0
6.056685266E0,-2.260074377E0,2.132388115E0,-3.532083035E-1,3.127262600E0
6.066693339E0,-2.223867178E0,1.080976486E0,-2.891626358E-1,2.489520118E0
6.076681360E0,-2.137198687E0,8.828449249E-2,-2.150499821E-1,2.149804380E0
6.086682923E0,-1.996275783E0,1.840209961E-2,-1.229631901E-1,2.000143891E0
6.096690735E0,-1.227765322E0,4.832363129E-2,5.576364994E-1,1.349333659E0
6.106692558E0,-4.875497818E-1,7.799148560E-2,6.806256771E-1,8.408559769E-1
6.116691777E0,1.267037153E0,1.073770523E-1,2.131216526E0,2.481732633E0
6.126692298E0,1.359520197E0,1.381187439E-1,2.183588505E0,2.575932979E0
6.136694902E0,2.952051640E0,2.338666916E0,2.036148548E0,4.281340063E0
6.146694902E0,4.337564945E0,3.822774887E0,2.085590124E0,6.146361823E0
6.156701152E0,5.491692543E0,5.180809975E0,2.110847712E0,7.839333967E0
6.166701725E0,6.223671436E0,6.337527275E0,2.133089781E0,9.135010133E0
6.176761464E0,6.226795197E0,7.122323990E0,2.109646559E0,9.692836842E0
6.186682193E0,6.162193298E0,7.153862953E0,1.888851762E0,9.629026035E0
6.196679068E0,5.939029694E0,7.086798668E0,1.863744974E0,9.432302709E0
6.206687662E0,4.839866638E0,6.882664680E0,1.835060596E0,8.611784343E0
6.216694381E0,3.657650471E0,5.414570808E0,1.802092671E0,6.778165091E0
6.226696464E0,2.248719215E0,4.288619995E0,1.773238182E0,5.156876305E0
6.236695683E0,3.437911868E-1,3.303834915E0,2.829820156E0,4.363645224E0
6.246695943E0,-1.570906401E0,2.354373932E0,2.811567068E0,3.989452708E0
6.256694120E0,-2.425202847E0,1.287085533E0,2.710942745E0,3.858420478E0
6.266693600E0,-2.661537170E0,1.138081551E0,2.548808813E0,3.856868690E0
6.276692037E0,-3.392121792E0,-2.812709808E-1,1.305289030E0,3.645460611E0
6.286693339E0,-3.449064732E0,-2.663316727E-1,1.297142982E0,3.694531093E0
6.296693079E0,-3.390309811E0,-2.509441376E-1,1.294064522E0,3.637550901E0
6.306689173E0,-3.247689009E0,-2.349414825E-1,1.294935346E0,3.504217309E0
6.316692818E0,-2.160469532E0,-1.674947739E0,1.297845602E0,3.026133132E0
6.326682662E0,-1.934728980E0,-1.797726631E0,-3.479059935E-1,2.663838555E0
6.336714798E0,1.176600233E-1,-2.570861816E0,-4.435307980E-1,2.611492663E0
6.346677975E0,2.269664705E-1,-2.650653362E0,-5.753337145E-1,2.721853396E0
6.356774693E0,3.362494409E-1,-2.757982254E0,-1.306602955E0,3.070299836E0
6.366680110E0,4.439809918E-1,-3.537760735E0,-1.392940640E0,3.827943804E0
6.376688652E0,3.511450291E-1,-3.626853943E0,-1.478074312E0,3.932184638E0
6.386685787E0,4.560237527E-1,-4.305290222E0,-1.563945055E0,4.603195162E0
6.396681100E0,4.937067032E-1,-4.383569717E0,-1.608449221E0,4.695374178E0
6.406686048E0,1.849292636E0,-4.483606815E0,-1.653344989E0,5.124076793E0
6.416677714E0,1.956484318E0,-5.210458755E0,-1.638105392E0,5.801732552E0
6.426683704E0,2.870164871E0,-5.337232113E0,-1.512146473E0,6.245837011E0
6.436682662E0,3.549720526E0,-5.390689850E0,-1.314643025E0,6.586982553E0
6.446686308E0,3.598232746E0,-5.423305988E0,-3.568968773E-1,6.518197766E0
6.456686568E0,3.569720030E0,-5.440542698E0,-1.128376722E-1,6.508082535E0
6.466681360E0,3.491895199E0,-5.432441711E0,1.552325964E0,6.641872547E0
6.476682662E0,3.324103832E0,-5.397753239E0,1.666709781E0,6.554641699E0
6.486681620E0,2.475776672E0,-5.314495087E0,3.339839458E0,6.747433272E0
6.496683704E0,2.224534035E0,-4.624828339E0,4.487427711E0,6.817227904E0
6.506682141E0,1.193928048E-1,-3.775468826E0,5.547923565E0,6.711771404E0
6.516796985E0,-1.230728477E-1,-2.404462814E0,6.318563938E0,6.761718612E0
6.526679277E0,-2.013768435E0,4.472351074E-2,6.416866779E0,6.725581221E0
6.536693912E0,-4.149089813E0,1.630975723E0,7.376953125E0,8.619423733E0
6.546674068E0,-6.254953384E0,3.516828537E0,8.064763069E0,1.079504183E1
6.556690995E0,-7.907364368E0,4.869190216E0,8.742411613E0,1.275402624E1
6.566682975E0,-9.051135063E0,5.659815788E0,8.662051201E0,1.374727943E1
6.576679798E0,-9.149768829E0,5.681591034E0,9.035086632E0,1.405814841E1
6.586683183E0,-1.009869480E1,5.614153862E0,8.666741371E0,1.444350256E1
6.596684225E0,-8.853529930E0,4.633249283E0,8.205138206E0,1.292966682E1
6.606681100E0,-5.888329983E0,1.263948441E0,5.944335938E0,8.461981174E0
6.616680058E0,-4.005397797E0,-1.708498001E-1,4.318402290E0,5.892452758E0
6.626685266E0,-2.417536020E0,-1.221084595E-1,2.521852493E0,3.495587345E0
6.636681100E0,-1.066887736E0,-6.370258331E-2,6.330337524E-1,1.242191287E0
6.646685787E0,1.352328062E-1,1.501083374E-3,-9.532334208E-1,9.627793723E-1
6.656694641E0,1.355185986E0,1.133738518E0,-2.418869972E0,2.995467246E0
6.666681620E0,1.571678996E0,2.238907814E0,-2.739789486E0,3.871605545E0
6.676681360E0,1.718968272E0,3.330720901E0,-3.661832571E0,5.239997273E0
6.686682402E0,3.559814453E0,4.188247681E0,-3.865836620E0,6.719999282E0
6.696682193E0,3.672131538E0,4.280394554E0,-5.030563831E0,7.557307724E0
6.706698235E0,3.740260124E0,4.270351410E0,-5.844200134E0,8.147399718E0
6.716680631E0,3.740722656E0,4.142852783E0,-5.902195454E0,8.123555031E0
6.726669954E0,3.686136007E0,3.169404984E0,-6.580019951E0,8.181038392E0
6.736682454E0,3.553246021E0,2.120372772E0,-6.579762459E0,7.772696572E0
6.746686568E0,2.789605141E0,9.486045837E-1,-7.541574001E0,8.096733040E0
6.756687089E0,2.575983524E0,-1.204538345E-1,-7.543071747E0,7.971708200E0
6.766683443E0,2.376731873E0,-1.348296165E0,-8.076737404E0,8.526455538E0
6.776685787E0,2.219845772E0,-2.165168762E0,-7.792159081E0,8.386501902E0
6.786686568E0,2.176560879E0,-2.271945000E0,-5.985327721E0,6.761900566E0
6.796686308E0,2.166922569E0,-2.149750710E0,-4.976156235E0,5.837731786E0
6.806684745E0,2.154168129E0,-1.627082825E-1,-3.876554966E0,4.437859024E0
6.816688652E0,2.121107578E0,-1.413326263E-1,-2.696323156E0,3.433544937E0
6.826670735E0,2.055655003E0,-1.154766083E-1,-1.519209385E0,2.558720284E0
6.836681620E0,1.966130495E0,-8.566474915E-2,-4.849921465E-1,2.026875663E0
6.846681360E0,1.842279673E0,-1.520681381E-1,-1.547486782E-1,1.855011122E0
6.856685006E0,1.678613186E0,-1.170101166E-1,1.136705756E0,2.030648559E0
6.866681620E0,4.911576211E-1,-8.399295807E-2,1.299788237E0,1.392027329E0
6.876701152E0,4.734638035E-1,-5.474948883E-2,1.422689080E0,1.500403179E0
6.886677298E0,4.570334554E-1,-3.021717072E-2,-2.583101988E-1,5.258486622E-1
6.896672298E0,2.418494672E-1,-1.321557999E0,-3.661378622E-1,1.392502654E0
6.906672402E0,2.278785110E-1,-1.381398201E0,-1.120680809E0,1.793353027E0
6.916682610E0,2.159216255E-1,-1.398372650E0,-1.147370696E0,1.821682665E0
6.926685787E0,2.077463567E-1,-1.368042946E0,-1.143162727E0,1.794859625E0
6.936656516E0,2.382511497E-1,-1.315410614E0,-1.101535559E0,1.732180499E0
6.946685006E0,-1.674246311E0,-1.253900528E0,-1.013278723E0,2.324242030E0
6.956682141E0,-1.797735214E0,-1.214048386E0,-8.699967861E-1,2.337233363E0
6.966687870E0,-2.650568008E0,-1.194087029E0,1.894881725E-1,2.913290299E0
6.976681620E0,-2.763862371E0,-1.173822403E0,3.230364323E-1,3.020123636E0
6.986683704E0,-3.372229576E0,-1.155237198E0,4.226261377E-1,3.589584676E0
6.996684225E0,-3.363172770E0,-1.123418808E0,4.729994535E-1,3.577251652E0
7.006680839E0,-3.259078979E0,-1.054453850E0,5.193927288E-1,3.464568880E0
7.016682923E0,-3.109357595E0,4.037570953E-2,5.633717775E-1,3.160240911E0
7.026683964E0,-2.346530914E0,6.611061096E-2,6.036167145E-1,2.423825712E0
7.036681360E0,-2.170356035E0,-8.147239685E-3,6.158089638E-1,2.256043523E0
7.046683183E0,-1.973327875E0,1.752090454E-2,6.092786789E-1,2.065320894E0
7.056694381E0,-1.222282529E0,4.341888428E-2,5.829783678E-1,1.354888762E0
7.066682975E0,-1.100184321E0,6.941795349E-2,5.588942766E-1,1.235955989E0
7.076675423E0,-9.881773591E-1,9.449100494E-2,5.321487188E-1,1.126323800E0
7.086691412E0,-8.933051229E-1,2.005195618E-2,4.738882780E-1,1.011417927E0
7.096679589E0,-8.269343376E-1,4.547023773E-2,3.685698509E-1,9.064941678E-1
7.106683183E0,-7.919864655E-1,7.057094574E-2,-3.960925341E-1,8.883198272E-1
7.116679589E0,-8.060123920E-1,1.619751930E0,-4.693917036E-1,1.869112320E0
7.126688131E0,-8.347527981E-1,1.706686974E0,-5.531400442E-1,1.978776533E0
7.136686568E0,-8.765021563E-1,1.797141075E0,-6.355544329E-1,2.098070902E0
7.146683704E0,-9.298286438E-1,1.886198044E0,-7.044354677E-1,2.217781255E0
7.156688912E0,-1.617199540E0,2.004737854E0,-7.950729132E-1,2.695635204E0
7.166678756E0,-1.632398844E0,2.012186050E0,-7.630150318E-1,2.701075827E0
7.176684225E0,-1.673800111E0,1.979908943E0,-6.816424131E-1,2.680724270E0
7.186682662E0,-1.727054715E0,1.903425217E0,-5.715383291E-1,2.632945424E0
7.196683183E0,-1.745418906E0,1.788559914E0,-4.559361935E-1,2.540336894E0
7.206679016E0,-1.727344275E0,1.023998260E-1,-3.381705284E-1,1.763111815E0
7.216681360E0,-1.657351732E0,1.303358078E-1,2.883936167E-1,1.687297563E0
7.226681620E0,-1.498552561E0,6.103992462E-2,3.588280678E-1,1.542122963E0
7.236680318E0,-5.670108795E-1,9.146022797E-2,4.414862394E-1,7.244145294E-1
7.246711360E0,-3.632003069E-1,1.214494705E-1,5.444648266E-1,6.656623650E-1
7.256693391E0,1.485743999E0,1.506443024E-1,6.485824585E-1,1.628124118E0
7.266781516E0,1.557635427E0,1.789350510E-1,7.379683256E-1,1.732871352E0
7.276680370E0,2.700819969E0,1.673153877E0,7.814594507E-1,3.271781056E0
7.286683756E0,3.601846218E0,3.267336845E0,7.875698805E-1,4.926363015E0
7.296687870E0,4.385896683E0,4.916522980E0,7.906763554E-1,6.635771019E0
7.306683704E0,4.532232285E0,6.357514381E0,8.238689899E-1,7.850979474E0
7.316684745E0,5.342144012E0,7.369797707E0,8.717362881E-1,9.143978622E0
7.326693079E0,5.262322903E0,7.473910332E0,9.251468182E-1,9.187343175E0
7.336692818E0,5.031082153E0,7.364595413E0,1.988312721E0,9.137966990E0
7.346692037E0,4.084967136E0,6.078782082E0,1.990041256E0,7.589388137E0
7.356693339E0,3.040141582E0,4.740103722E0,1.984513879E0,5.970706781E0
7.366694381E0,1.785577297E0,3.432417870E0,1.779305935E0,4.258604035E0
7.376694381E0,5.461285114E-1,2.436523438E0,1.773370862E0,3.062637267E0
7.386692558E0,-7.055220604E-1,1.670887947E0,1.734815717E0,2.509823396E0
7.396688652E0,-1.674472809E0,9.666719437E-1,1.698301196E0,2.573429771E0
7.406692558E0,-1.928144217E0,-1.453189850E-1,1.665402889E0,2.551945241E0
7.416692558E0,-2.936671734E0,-2.372961044E-1,1.434175730E0,3.276768276E0
7.426754277E0,-3.045238972E0,-2.264490128E-1,1.411352754E0,3.364026775E0
7.436676620E0,-3.059375286E0,-2.135219574E-1,1.396245241E0,3.369698731E0
7.446858600E0,-2.967496395E0,-1.991996765E-1,1.386228204E0,3.281363131E0
7.456694225E0,-2.780866146E0,-1.835899353E-1,1.379621267E0,3.109706840E0
7.466681204E0,-1.820087194E0,-1.827701569E0,1.177333474E0,2.835370263E0
7.476686048E0,-1.645270109E0,-1.920660973E0,1.527105570E-1,2.533608655E0
7.486692037E0,-9.323022962E-1,-2.630212784E0,3.156924248E-2,2.790735293E0
7.496694902E0,-7.839903235E-1,-2.745902061E0,-1.174610853E-1,2.858044098E0
7.506688912E0,-6.316923499E-1,-3.621940613E0,-9.298690557E-1,3.792379924E0
7.516692818E0,6.158360839E-1,-4.705019951E0,-1.114946723E0,4.874379244E0
7.526690214E0,7.256714702E-1,-4.810440540E0,-1.228662252E0,5.017623761E0
7.536694641E0,8.153897524E-1,-5.604377747E0,-1.304889083E0,5.811767880E0
7.546684745E0,9.026163816E-1,-5.686472893E0,-1.347196341E0,5.913174128E0
7.556680318E0,2.754179001E0,-6.288310051E0,-1.346411705E0,6.995796577E0
7.566682923E0,2.944048166E0,-6.309148312E0,-1.267128110E0,7.076608345E0
7.576682141E0,3.951804161E0,-6.332698345E0,-1.130834699E0,7.549742484E0
7.586688912E0,4.051261425E0,-6.325358391E0,-2.013522387E-1,7.514214572E0
7.596696725E0,4.124780655E0,-6.296724319E0,1.331889033E0,7.644375776E0
7.606791673E0,4.151802063E0,-6.214685440E0,1.215546727E0,7.572141661E0
7.616692818E0,4.043323994E0,-6.073401928E0,1.295639992E0,7.410355112E0
7.626863808E0,3.850937843E0,-5.056031227E0,3.213486910E0,7.121774509E0
7.636679850E0,2.811309814E0,-4.319514751E0,4.076259136E0,6.570963332E0
7.646686100E0,1.807006121E0,-3.323419571E0,4.789861202E0,6.103536606E0
7.656695943E0,3.315411806E-1,-1.910337448E0,4.887382984E0,5.257929360E0
7.666684225E0,-9.696315527E-1,6.566047668E-3,5.665553093E0,5.747931829E0
7.676682141E0,-2.617864370E0,2.094409943E0,5.637375832E0,6.558946039E0
7.686681360E0,-4.170409203E0,3.954791069E0,6.554413319E0,8.717397505E0
7.696689433E0,-6.447340012E0,6.015267372E0,8.125691414E0,1.199076710E1
7.706692558E0,-6.617403507E0,6.043723106E0,8.035045624E0,1.203655168E1
7.716685266E0,-6.673870087E0,5.970049858E0,7.866160870E0,1.191883065E1
7.726686048E0,-6.585947514E0,5.012826920E0,7.620589733E0,1.125062337E1
7.736681620E0,-6.325472832E0,3.545219421E0,7.237755299E0,1.024525691E1
7.746690995E0,-5.299812794E0,1.786135674E0,5.805033684E0,8.060813381E0
7.756680839E0,-4.338812351E0,-1.137199402E-1,4.234689713E0,6.063894937E0
7.766681100E0,-3.401745081E0,-5.494403839E-2,2.425750732E0,4.178415377E0
7.776681100E0,-2.369073391E0,9.512901306E-3,6.262305975E-1,2.450461995E0
7.786799850E0,-1.278406858E0,7.762432098E-2,-1.226059675E0,1.773012114E0
7.796688235E0,-1.478101015E-1,1.685131073E0,-1.552434087E0,2.295989145E0
7.806707870E0,1.710951686E0,2.941644669E0,-1.665975809E0,3.788945028E0
7.816680735E0,1.874273658E0,3.919319153E0,-3.084654331E0,5.328138203E0
7.826693235E0,2.001943111E0,4.065296173E0,-3.267215967E0,5.586511378E0
7.836682141E0,2.094300270E0,4.124575615E0,-4.373348713E0,6.365877519E0
7.846693339E0,3.060133934E0,4.047252655E0,-5.047639370E0,7.157048062E0
7.856689433E0,3.019076824E0,3.157246590E0,-5.054712772E0,6.680804750E0
7.866686568E0,2.981627941E0,2.026216507E0,-5.083903790E0,6.232313876E0
7.876681881E0,2.960170031E0,1.289587021E-1,-6.885094166E0,7.495582608E0
7.886681360E0,3.000233173E0,-1.826224327E0,-7.449403763E0,8.235903764E0
7.896687870E0,3.925842047E0,-2.018897057E0,-7.402601242E0,8.618972459E0
7.906680839E0,3.992055416E0,-2.899330616E0,-7.287875175E0,8.800894786E0
7.916684485E0,4.902467251E0,-2.897179604E0,-7.075452805E0,9.082393252E0
7.926683443E0,4.921655655E0,-2.770663261E0,-6.813857555E0,8.850306440E0
7.936649693E0,4.905437469E0,-1.526063919E0,-5.879239559E0,7.807537745E0
7.946686568E0,4.805903435E0,-7.923030853E-2,-4.968347073E0,6.912847308E0
7.956682923E0,4.571341991E0,-7.419586182E-2,-3.939979553E0,6.035404834E0
7.966679954E0,3.411809921E0,-6.394481659E-2,-2.914742708E0,4.487790206E0
7.976701673E0,2.429132938E0,-4.827499390E-2,-1.895283699E0,3.081414871E0
7.986687923E0,6.684365273E-1,-1.274404526E-1,-1.538326025E0,1.682110406E0
7.996674068E0,6.060125828E-1,-1.022148132E-1,-6.607312560E-1,9.023662844E-1
8.006683235E0,5.461823344E-1,-7.523632050E-2,-5.371782184E-1,7.697636551E-1
8.016682193E0,-6.201638579E-1,-4.846286774E-2,-5.032526255E-1,8.001344045E-1
8.026684485E0,-7.928245068E-1,-2.312183380E-2,-1.077899814E0,1.338272516E0
8.036683964E0,-9.471871853E-1,-9.973144531E-2,-1.117317200E0,1.468164722E0
8.046694902E0,-1.033944368E0,-7.458209991E-2,-1.149550796E0,1.547924571E0
8.056688391E0,-9.989534020E-1,-2.775859833E-2,-1.119472504E0,1.500632242E0
8.066683443E0,-9.852992296E-1,-8.802413940E-4,-1.021585941E0,1.419314335E0
8.076685266E0,-9.592027664E-1,-7.271194458E-2,-8.964388371E-1,1.314899069E0
8.086688912E0,-9.447839856E-1,-4.425716400E-2,-7.375792265E-1,1.199415938E0
8.096690214E0,-9.312684536E-1,-1.555633545E-2,7.205247879E-2,9.341811880E-1
8.106680318E0,-9.251888990E-1,1.265811920E-2,1.824613810E-1,9.430943126E-1
8.116680579E0,-9.114599228E-1,4.094314575E-2,2.734014988E-1,9.524620263E-1
8.126681360E0,-8.855588436E-1,-3.057956696E-2,3.268253803E-1,9.444386717E-1
8.136682402E0,-8.445594311E-1,-2.119064331E-3,3.233412504E-1,9.043421295E-1
8.146719381E0,-7.757341266E-1,2.610588074E-2,2.884769440E-1,8.280482470E-1
8.156680110E0,-6.628720760E-1,4.939651489E-2,2.039357424E-1,6.952907247E-1
8.166686360E0,-5.219253898E-1,7.265853882E-2,1.308625937E-1,5.429644502E-1
8.176684120E0,6.014595628E-1,-3.939628601E-3,7.229924202E-2,6.058022010E-1
8.186680110E0,6.710976958E-1,1.935672760E-2,3.636646271E-2,6.723610041E-1
8.196699589E0,7.393359542E-1,4.252624512E-2,1.513409615E-2,7.407126133E-1
8.206687870E0,8.060292006E-1,6.558513641E-2,6.925106049E-3,8.087227209E-1
8.216683964E0,8.715921044E-1,8.849143982E-2,9.692430496E-3,8.761264033E-1
8.226683964E0,6.916032434E-1,8.279800415E-3,1.478576660E-2,6.918108269E-1
8.236687870E0,-3.697047830E-1,1.097837448E0,-5.561828613E-3,1.158429809E0
8.246691256E0,-5.250148177E-1,1.153709412E0,-3.369295597E-2,1.267998888E0
8.256686829E0,-1.606479049E0,1.207304001E0,-8.560800552E-2,2.011389225E0
8.266679277E0,-1.768399000E0,1.278407097E0,-1.340203285E-1,2.186211604E0
8.276683964E0,-2.723933935E0,1.340233803E0,-1.847316027E-1,3.041408965E0
8.286681360E0,-2.813615322E0,1.393908501E0,-2.376501560E-1,3.148950569E0
8.296687870E0,-2.904350281E0,1.439406395E0,-2.923605442E-1,3.254629935E0
8.306681360E0,-2.939799786E0,1.476766586E0,-3.531706333E-1,3.308774974E0
8.316681100E0,-2.962737083E0,1.500077248E0,-4.043095112E-1,3.345371273E0
8.326699589E0,-2.910290956E0,1.533771515E0,-4.511287212E-1,3.320506834E0
8.336692141E0,-2.794232845E0,1.574395180E0,-4.744913578E-1,3.242159685E0
8.346687141E0,-2.593268394E0,1.580154419E0,-4.918643236E-1,3.076338646E0
8.356680006E0,-1.729453444E0,1.533250809E0,-5.036003590E-1,2.365476819E0
8.366694693E0,-1.491665959E0,1.440335274E0,-4.957156181E-1,2.131986634E0
8.376684745E0,-3.522723913E-1,6.308746338E-2,-4.362493753E-1,5.642600316E-1
8.386689173E0,-1.140687466E-1,9.781932831E-2,-3.270696402E-1,3.599372854E-1
8.396689173E0,1.485900402E0,1.323957443E-1,3.674837351E-1,1.536383069E0
8.406685006E0,1.574457765E0,1.634893417E-1,4.606151581E-1,1.648578885E0
8.416685266E0,2.740689278E0,1.987472534E0,6.061782837E-1,3.439313435E0
8.426683964E0,3.848942757E0,2.910279274E0,6.518132687E-1,4.869183333E0
8.436684225E0,3.955360889E0,3.876783371E0,6.973316669E-1,5.582168085E0
8.446693339E0,4.631024361E0,4.694799423E0,7.110315561E-1,6.632729011E0
8.456689173E0,4.648917675E0,4.812013626E0,7.241582870E-1,6.729956605E0
8.466681620E0,4.634010315E0,5.402198792E0,7.371373177E-1,7.155499620E0
8.476679277E0,4.570666313E0,5.340250969E0,7.820981741E-1,7.072548940E0
8.486677975E0,4.400195122E0,5.185339928E0,1.984395623E0,7.084299067E0
8.496688652E0,4.159574032E0,4.065976143E0,1.992538095E0,6.148530408E0
8.506694641E0,3.083182096E0,3.232992172E0,1.799788117E0,4.816377009E0
8.516681933E0,2.141251326E0,2.396556854E0,1.807855129E0,3.687381478E0
8.526674277E0,4.665872157E-1,2.213024139E0,1.816198826E0,2.900647798E0
8.536689120E0,3.782678246E-1,1.175094604E0,1.824110270E0,2.202569443E0
8.546698860E0,2.970272005E-1,1.033039093E0,1.795806170E0,2.092920143E0
8.556679068E0,2.281925082E-2,-1.884098053E-1,1.571423054E0,1.582842186E0
8.566690735E0,-1.813888311E0,-1.780595779E-1,1.548843026E0,2.391821636E0
8.576697506E0,-1.936241508E0,-1.655931473E-1,1.532538056E0,2.474899020E0
8.586689433E0,-1.997544527E0,-1.520929337E-1,1.520545483E0,2.515029813E0
8.596690995E0,-1.891051292E0,-2.178993225E-1,1.354145288E0,2.336078887E0
8.606693860E0,-1.773344636E0,-1.402407646E0,1.349658608E0,2.633073634E0
8.616691516E0,-1.097602129E0,-1.454200745E0,2.409260273E-1,1.837790954E0
8.626692818E0,8.024614304E-3,-1.533521652E0,1.511811018E-1,1.540976566E0
8.636691516E0,8.948314190E-2,-1.631822586E0,3.038692474E-2,1.634556683E0
8.646693860E0,-2.972742915E-2,-2.316700935E0,-6.648572683E-1,2.410398749E0
8.656740735E0,5.102936924E-2,-2.387900352E0,-7.617465258E-1,2.506976238E0
8.666692037E0,1.309180409E-1,-2.507970810E0,-8.429446220E-1,2.649077717E0
8.676692298E0,2.101202011E-1,-3.389652252E0,-9.082335234E-1,3.515505799E0
8.686696204E0,2.550793290E-1,-3.474363804E0,-9.405694008E-1,3.608453977E0
8.696699850E0,1.001767367E-1,-4.153315544E0,-9.460070133E-1,4.260867829E0
8.706702923E0,1.203777194E0,-4.235378265E0,-9.261834621E-1,4.499480458E0
8.716746360E0,1.848394632E0,-4.849178791E0,-8.415462971E-1,5.257308992E0
8.726681777E0,1.933567405E0,-4.913482189E0,-6.916570663E-1,5.325352536E0
8.736676725E0,2.027495623E0,-4.991648197E0,1.603937149E-1,5.390085006E0
8.746686829E0,2.103221416E0,-5.066793442E0,3.428803682E-1,5.496681095E0
8.756735787E0,2.153872728E0,-5.641536713E0,1.421466112E0,6.203762578E0
8.766696204E0,2.091940165E0,-5.624361038E0,1.505930424E0,6.186879438E0
8.776682662E0,1.972148299E0,-5.576316833E0,2.589554310E0,6.456815768E0
8.786682923E0,-1.040525436E-1,-4.657805920E0,3.851135731E0,6.044603323E0
8.796681620E0,-1.312240064E-1,-3.572470188E0,4.001476288E0,5.365778179E0
8.806687870E0,-1.591328532E-1,-1.915883064E0,4.864651203E0,5.230751620E0
8.816682402E0,-2.716642380E0,4.884243011E-2,4.930499077E0,5.629596127E0
8.826685318E0,-4.549411774E0,2.427328110E0,5.850475311E0,7.798533875E0
8.836682402E0,-6.138742924E0,4.155467033E0,6.685526848E0,9.982401524E0
8.846681620E0,-7.408898354E0,5.276947975E0,7.297620296E0,1.166161296E1
8.856709225E0,-8.273833275E0,5.410576820E0,7.264837265E0,1.226819135E1
8.866685787E0,-8.366078377E0,5.463129044E0,7.147168636E0,1.228491212E1
8.876710839E0,-8.390260696E0,5.347106934E0,6.976571560E0,1.215156689E1
8.886681985E0,-8.177411079E0,3.906696320E0,6.718850136E0,1.128163442E1
8.896797506E0,-7.035914421E0,2.097538948E0,6.344083786E0,9.703152089E0
8.906690527E0,-5.395802021E0,-1.452274323E-1,4.931679726E0,7.311445505E0
8.916683235E0,-3.887702942E0,-1.045303345E-1,3.484347582E0,5.221670119E0
8.926679798E0,-2.553734779E0,-5.494785309E-2,1.881609678E0,3.172544022E0
8.936650943E0,-1.237920880E0,-9.843349457E-2,-8.763656020E-1,1.519919053E0
8.946682141E0,-1.843464375E-2,2.148539543E0,-1.008710027E0,2.373617055E0
8.956719641E0,1.531121731E0,3.619670868E0,-2.198503971E0,4.503306636E0
8.966684485E0,1.724528193E0,4.811903954E0,-3.645029545E0,6.278109391E0
8.976680318E0,1.627838731E0,4.820788383E0,-4.552865505E0,6.827770052E0
8.986683443E0,1.685500145E0,4.662810326E0,-5.274523735E0,7.239013158E0
8.996684225E0,3.308823109E0,3.077540398E0,-5.259652138E0,6.934227129E0
9.006681620E0,3.347534180E0,1.497063637E0,-5.203298569E0,6.365650054E0
9.016682923E0,3.956306934E0,1.525688171E-2,-5.159025192E0,6.501395101E0
9.026682402E0,3.953059196E0,-2.139669418E0,-6.114333153E0,7.588803076E0
9.036681360E0,4.021993160E0,-3.307977676E0,-6.886825085E0,8.634089705E0
9.046681360E0,4.969425201E0,-3.443136692E0,-7.404216290E0,9.558911861E0
9.056854954E0,4.958520412E0,-3.498006344E0,-7.242130280E0,9.448355627E0
9.066681933E0,4.915225029E0,-3.425021172E0,-7.003267765E0,9.216071099E0
9.076708756E0,4.798483372E0,-2.354312897E0,-6.701944351E0,8.572297823E0
9.086695527E0,4.597064972E0,-1.180294991E0,-5.643390179E0,7.373869766E0
9.096678287E0,3.712164402E0,-1.033601761E-1,-4.702797413E0,5.992257620E0
9.106685787E0,2.730767727E0,9.952392578E-1,-3.452397346E0,4.512941502E0
9.116684745E0,1.674424410E0,1.674511909E0,-2.091007710E0,3.159113876E0
9.126681100E0,3.101637363E-1,1.755308151E0,-8.554248214E-1,1.977134258E0
9.136684485E0,2.445493937E-1,1.771559715E0,7.767713070E-2,1.790045242E0
9.146689433E0,-1.095972300E0,-4.970264435E-2,2.765510082E-1,1.131417736E0
9.156682662E0,-1.246900558E0,-1.508235931E-2,3.172628880E-1,1.286718392E0
9.166682402E0,-1.354453921E0,-8.519458771E-2,-2.992179394E-1,1.389724763E0
9.176684485E0,-1.380488634E0,-6.088733673E-2,-4.032864571E-1,1.439477719E0
9.186687610E0,-1.298862934E0,-3.671932220E-2,-1.193745017E0,1.764488707E0
9.196685266E0,-1.186339736E0,-1.080851555E0,-1.198016286E0,2.002719420E0
9.206682402E0,8.924347162E-2,-1.092174530E0,-1.189168572E0,1.617074981E0
9.216682662E0,-6.348605454E-2,-1.062073708E0,-1.144217253E0,1.562454531E0
9.226682141E0,-1.653847098E-2,-3.257274628E-2,-1.073122859E0,1.073744465E0
9.236680423E0,2.960569784E-2,-8.669853210E-3,-9.594706297E-1,9.599664332E-1
9.246701412E0,7.507331669E-2,1.570415497E-2,-2.425715923E-1,2.544083347E-1
9.256677141E0,1.195822060E-1,4.016685486E-2,-1.221574545E-1,1.756010362E-1
9.266686777E0,-3.552373499E-2,-3.528881073E-2,-4.993438721E-3,5.032067508E-2
9.276699850E0,-1.403732538E0,-1.088047028E-2,7.026743889E-2,1.405532261E0
9.286688131E0,-1.420195699E0,1.335144043E-2,1.135123968E-1,1.424787404E0
9.296684745E0,-1.424264908E0,3.743934631E-2,1.338026524E-1,1.431025989E0
9.306683443E0,-1.388021350E0,6.134986877E-2,1.338011026E-1,1.395804359E0
9.316681881E0,-1.316286802E0,-1.596927643E-2,1.237924099E-1,1.322191561E0
9.326681360E0,8.389183134E-2,2.643871307E-2,1.307779551E-1,1.576062132E-1
9.336687870E0,1.264926493E-1,4.866409302E-2,1.716367006E-1,2.186955447E-1
9.346684485E0,1.690167040E-1,7.070255280E-2,2.177776098E-1,2.845919615E-1
9.356685527E0,1.197347790E-2,-7.324218750E-3,2.530956268E-1,2.534845255E-1
9.366684225E0,5.488535017E-2,1.451206207E-2,2.650324106E-1,2.710446094E-1
9.376682141E0,9.773828834E-2,3.619289398E-2,2.613016367E-1,2.813205359E-1
9.386684745E0,1.405189037E-1,5.761241913E-2,2.237175703E-1,2.703965688E-1
9.396680058E0,-1.119221926E0,1.352876663E0,1.572660208E-1,1.762857222E0
9.406682662E0,-1.207142830E0,1.419435501E0,7.578730583E-2,1.864868539E0
9.416683443E0,-1.317605972E0,1.501745224E0,-5.295996666E-1,2.066833332E0
9.426700214E0,-2.054341555E0,1.578143120E0,-5.562739372E-1,2.649584047E0
9.436686881E0,-2.089837074E0,2.234152794E0,-5.738623142E-1,3.112583438E0
9.446677923E0,-2.129755259E0,2.289848328E0,-5.885586739E-1,3.182084873E0
9.456680579E0,-2.186366081E0,2.370605469E0,-6.132060289E-1,3.282680089E0
9.466686048E0,-2.229445934E0,2.461041451E0,-6.377115250E-1,3.381394710E0
9.476686308E0,-2.926314354E0,2.535291672E0,-6.363937855E-1,3.923775810E0
9.486682923E0,-2.936899662E0,2.604397774E0,-5.829050541E-1,3.968380739E0
9.496682141E0,-2.937998056E0,2.655363083E0,-4.981462955E-1,3.991357590E0
9.506682141E0,-2.932250738E0,2.596253395E0,-3.346478939E-1,3.930727070E0
9.516681881E0,-2.798581123E0,1.891641617E0,-2.501213551E-1,3.387170649E0
9.526687350E0,-2.574514866E0,1.122996330E0,-1.408081055E-1,2.812307678E0
9.536682662E0,-1.288259983E0,6.383991241E-2,5.264910460E-1,1.393155461E0
9.546684745E0,-3.400812149E-1,-5.665779114E-3,5.728220940E-1,6.661925286E-1
9.556682923E0,8.749281764E-1,2.450752258E-2,6.019409895E-1,1.062277218E0
9.566683183E0,9.948902726E-1,5.426311493E-2,6.157755852E-1,1.171294460E0
9.576682662E0,2.411485672E0,8.353710175E-2,6.356074810E-1,2.495243167E0
9.586688652E0,2.631813526E0,1.130447388E-1,6.776397228E-1,2.720003151E0
9.596706100E0,3.607075453E0,1.270512581E0,6.826312542E-1,3.884736924E0
9.606683339E0,3.712027550E0,2.576214790E0,6.555639505E-1,4.565719578E0
9.616670475E0,4.435942173E0,3.786121368E0,6.305820942E-1,5.865997934E0
9.626684641E0,4.481686115E0,4.753533363E0,6.365655661E-1,6.564054052E0
9.636693391E0,4.497971058E0,4.882844925E0,6.799805164E-1,6.673551656E0
9.646687610E0,5.008573055E0,5.523633957E0,7.543697357E-1,7.494358534E0
9.656698287E0,4.870662689E0,5.445183754E0,1.986517906E0,7.570973157E0
9.666683704E0,4.703035831E0,4.667661667E0,2.001452446E0,6.921807810E0
9.676684225E0,4.444490910E0,3.797472954E0,2.009393692E0,6.181582588E0
9.686681620E0,2.386930227E0,2.027576447E0,1.856960535E0,3.640989506E0
9.696681360E0,1.296550930E-1,1.857583046E0,1.862653852E0,2.633800407E0
9.706687870E0,4.608823732E-2,8.622789383E-1,1.828271985E0,2.021936583E0
9.716679798E0,-1.107848644E0,-1.309547424E-1,1.796020389E0,2.114276945E0
9.726682923E0,-1.969129682E0,-1.204471588E-1,1.767156720E0,2.648550942E0
9.736682402E0,-2.210983515E0,-2.080183029E-1,1.540475011E0,2.702736202E0
9.746682923E0,-3.046504974E0,-1.937541962E-1,1.520695806E0,3.410461696E0
9.756682923E0,-3.110513210E0,-1.791381836E-1,1.506640434E0,3.460830582E0
9.766681881E0,-3.049888134E0,-1.665763855E-1,1.495792389E0,3.401023404E0
9.776701412E0,-2.920682430E0,-1.529684067E-1,1.490172386E0,3.282437956E0
9.786684589E0,-2.148538113E0,-2.393550873E-1,1.288647175E0,2.516767455E0
9.796696360E0,-1.957684517E0,-2.255115509E-1,1.289426088E0,2.354995491E0
9.806688027E0,-1.206818581E0,-1.688901901E0,2.553014755E-1,2.091406121E0
9.816685579E0,-1.045505643E0,-1.815383911E0,9.988117218E-2,2.097302325E0
9.826709850E0,1.221291944E-1,-2.776626110E0,-7.970731258E-1,2.891348070E0
9.836694641E0,3.530555964E-2,-2.929228783E0,-9.176285267E-1,3.069799644E0
9.846692558E0,1.463899612E-1,-4.018726826E0,-1.053782582E0,4.157168875E0
9.856696985E0,2.306371480E-1,-4.162800789E0,-1.691184282E0,4.499134159E0
9.866691777E0,1.682995796E0,-5.291244507E0,-1.688117862E0,5.803402898E0
9.876689954E0,1.784565449E0,-6.055536270E0,-1.605544686E0,6.513982430E0
9.886690735E0,2.412463188E0,-6.098485947E0,-1.433623552E0,6.713180019E0
9.896694120E0,2.469031811E0,-6.147430897E0,-3.533664942E-1,6.634145958E0
9.906693860E0,2.512849092E0,-6.172118664E0,1.364281654E0,6.802258727E0
9.916689954E0,2.519769907E0,-6.175934792E0,1.453317046E0,6.826678649E0
9.926693339E0,2.439034462E0,-6.132975101E0,1.345696449E0,6.735961077E0
9.936659745E0,2.308439016E0,-6.018715382E0,2.630280495E0,6.962198002E0
9.946690995E0,1.588269234E0,-5.138993263E0,3.437813044E0,6.383604737E0
9.956692037E0,1.363575459E0,-4.190070629E0,4.297097206E0,6.154760296E0
9.966697818E0,-1.351746917E-2,-2.797939301E0,5.185095310E0,5.891846945E0
9.976701204E0,-2.574911416E-1,-2.183818817E-2,5.839553356E0,5.845268342E0
9.986681048E0,-2.708753347E0,1.902444839E0,5.910946846E0,6.774653768E0
9.996688443E0,-4.287515640E0,4.362326622E0,6.908305645E0,9.226991428E0
1.000668943E1,-5.582155228E0,6.065365791E0,7.653036118E0,1.124802565E1
1.001668167E1,-6.545018196E0,7.034398079E0,8.207237244E0,1.263640624E1
1.002668553E1,-6.725360394E0,7.080587387E0,8.080696106E0,1.267528460E1
1.003668214E1,-7.345139980E0,6.978179932E0,7.839146614E0,1.281008572E1
1.004668162E1,-7.119139194E0,5.773966789E0,7.431652546E0,1.180043622E1
1.005669777E1,-5.361186504E0,1.548383713E0,5.330540657E0,7.717154693E0
1.006668188E1,-4.168154240E0,-2.096958160E-1,3.769698858E0,5.623887586E0
1.007668162E1,-3.190024376E0,-1.326312065E0,1.935967922E0,3.960218556E0
1.008668657E1,-2.270568609E0,-1.315094948E0,-8.486194015E-1,2.757736648E0
1.009668527E1,-1.370048404E0,-1.128891945E0,-1.010951400E0,2.042902931E0
1.010668657E1,-1.049675345E0,4.776954651E-3,-3.349484921E0,3.510112588E0
1.011668188E1,-9.870076180E-2,1.751838684E0,-4.199312210E0,4.551143115E0
1.012668344E1,1.005343199E-1,3.038335800E0,-4.421241760E0,5.365535415E0
1.013668084E1,3.094696999E-1,4.036756516E0,-4.579965591E0,6.112876531E0
1.014669704E1,1.569240451E0,4.167381287E0,-5.197190285E0,6.844002428E0
1.015669907E1,1.641288042E0,4.174272537E0,-5.119631767E0,6.806541492E0
1.016676568E1,1.506611228E0,4.036225319E0,-4.989418030E0,6.592062234E0
1.017667855E1,1.542297006E0,2.836514473E0,-4.760966778E0,5.752503722E0
1.018668740E1,1.575620413E0,1.656391144E0,-4.581112862E0,5.119844368E0
1.019668553E1,3.282367229E0,-2.841377258E-2,-4.523100376E0,5.588665224E0
1.020668969E1,3.349573135E0,-2.932929993E-2,-5.303115368E0,6.272442347E0
1.021668344E1,4.182295799E0,-1.635220528E0,-5.890558243E0,7.407038594E0
1.022668344E1,4.248726845E0,-1.792428970E0,-5.864186287E0,7.460104706E0
1.023668396E1,5.017024040E0,-1.868492126E0,-6.557993412E0,8.465758716E0
1.024668292E1,4.917736053E0,-1.764452934E0,-6.359642982E0,8.230582052E0
1.025668891E1,4.737823486E0,-1.640262604E-1,-6.065193176E0,7.698080557E0
1.026668084E1,4.453279972E0,-1.540184021E-1,-4.723154068E0,6.493351102E0
1.027668448E1,3.298629522E0,-1.383094788E-1,-3.630827665E0,4.907442896E0
1.028668370E1,3.018475056E0,-1.172037125E-1,-2.505028009E0,3.924295313E0
1.029668266E1,1.855029106E0,-9.130001068E-2,-1.504000425E0,2.389871535E0
1.030668631E1,1.586982131E0,-1.609401703E-1,-1.220074058E0,2.008231742E0
1.031668136E1,2.661908865E-1,-1.268453598E-1,-9.862504005E-1,1.029386801E0
1.032670516E1,1.933916509E-1,-8.950233459E-2,-8.117741346E-1,8.392784069E-1
1.033668100E1,1.247152314E-1,-1.102100372E0,-7.382582426E-1,1.332367949E0
1.034669204E1,7.419088483E-2,-1.118446350E0,-7.332197428E-1,1.339416932E0
1.035671298E1,-1.679123938E-1,-1.115364075E0,-7.666918039E-1,1.363835735E0
1.036668115E1,-1.674234569E-1,-1.077182770E0,-7.772200108E-1,1.338814505E0
1.037668422E1,-1.638900161E0,-3.021049500E-2,-7.675139904E-1,1.809967993E0
1.038668266E1,-1.700038791E0,-3.643989563E-3,-7.113803625E-1,1.842880134E0
1.039668318E1,-1.783897161E0,2.282142639E-2,-5.996348858E-1,1.882118991E0
1.040668865E1,-2.418604851E0,-5.063915253E-2,-4.497431517E-1,2.460585835E0
1.041668683E1,-2.493426323E0,-4.776954651E-3,3.887370825E-1,2.523551895E0
1.042668136E1,-2.498462677E0,2.076435089E-2,4.644966125E-1,2.541358694E0
1.043668474E1,-2.413039446E0,4.592800140E-2,5.182635784E-1,2.468494660E0
1.044668396E1,-2.295186758E0,-9.939470291E-1,5.579549074E-1,2.562640558E0
1.045669152E1,-2.137991190E0,-1.062651634E0,5.898684263E-1,2.459304695E0
1.046668214E1,-1.931362629E0,-1.096863747E0,5.920381546E-1,2.298647615E0
1.047668240E1,-1.002118111E0,-1.081933975E0,5.958789587E-1,1.590563915E0
1.048668188E1,-8.356581926E-1,-1.019136429E0,6.114590168E-1,1.452875013E0
1.049668110E1,-6.633298993E-1,-2.233505249E-3,6.282008886E-1,9.135906635E-1
1.050680589E1,-4.910093546E-1,2.041149139E-2,6.365557909E-1,8.041828711E-1
1.051668417E1,6.385739446E-1,4.340076447E-2,6.376951933E-1,9.035017812E-1
1.052669501E1,7.429614067E-1,6.632614136E-2,6.324944496E-1,9.779775241E-1
1.053667907E1,8.121208549E-1,8.696842194E-2,5.975722075E-1,1.012025856E0
1.054668037E1,6.773732305E-1,1.541845322E0,5.414081812E-1,1.768967017E0
1.055669074E1,7.379970551E-1,1.633156776E0,4.817067385E-1,1.855769946E0
1.056669048E1,7.940319777E-1,1.746378899E0,4.140756130E-1,1.962596406E0
1.057668006E1,8.112596869E-1,2.552791595E0,3.397138119E-1,2.700054200E0
1.058668344E1,-2.488197684E-1,2.608058929E0,2.689770460E-1,2.633672589E0
1.059669438E1,-1.029943705E0,2.706497192E0,-4.431911707E-1,2.929561315E0
1.060669178E1,-1.141830683E0,2.708792686E0,-4.937264919E-1,2.980788650E0
1.061668396E1,-1.877444744E0,2.665850639E0,-5.473653078E-1,3.306231568E0
1.062669021E1,-1.958736420E0,2.592522621E0,-5.973095894E-1,3.303725268E0
1.063668136E1,-2.035542011E0,2.522953987E0,-6.347253323E-1,3.303271764E0
1.064668006E1,-2.044189930E0,2.424816132E0,-6.561452150E-1,3.238668289E0
1.065669230E1,-1.980208158E0,1.680000305E0,-6.678202152E-1,2.681344666E0
1.066668214E1,-1.874285817E0,1.601719856E0,-6.163879633E-1,2.541335858E0
1.067668110E1,-1.730844736E0,3.762245178E-3,-5.052044392E-1,1.803072151E0
1.068667912E1,-8.291949034E-1,-6.729030609E-2,2.414181232E-1,8.662418157E-1
1.069670058E1,-9.978836775E-2,-3.844738007E-2,3.582745790E-1,3.738938263E-1
1.070668558E1,1.016881108E0,-9.716987610E-3,4.760133028E-1,1.122822458E0
1.071667063E1,1.110505223E0,1.893615723E-2,1.885605693E0,2.188398789E0
1.072667751E1,2.365766525E0,4.839801788E-2,1.938317657E0,3.058801883E0
1.073667100E1,3.142352343E0,-2.200698853E-2,1.790955067E0,3.616957645E0
1.074668344E1,3.316610813E0,1.674842834E0,1.817326427E0,4.136143270E0
1.075669230E1,4.398424149E0,2.455957413E0,1.840669274E0,5.363387473E0
1.076668475E1,4.448955059E0,3.200027466E0,1.816581368E0,5.773503682E0
1.077668474E1,4.424313545E0,3.951078415E0,1.633955717E0,6.152672775E0
1.078668266E1,4.243400574E0,3.939450264E0,1.613708019E0,6.010804471E0
1.079668657E1,3.991353989E0,3.839255333E0,1.595293880E0,5.763310744E0
1.080668995E1,2.798768520E0,3.101620674E0,1.574032307E0,4.464385035E0
1.081668683E1,2.501598358E0,2.921412468E0,1.551616311E0,4.147307359E0
1.082668407E1,2.986814976E-1,1.827772141E0,1.330897093E0,2.280624631E0
1.083668344E1,2.163465917E-1,1.658013344E0,1.314243078E0,2.126746098E0
1.084668475E1,1.403380036E-1,-1.978378296E-1,1.299988747E0,1.322424026E0
1.085668891E1,7.055184245E-2,-1.845464706E-1,1.287891746E0,1.302958215E0
1.086668339E1,6.432689726E-3,-1.696033478E-1,1.278057218E0,1.289277676E0
1.087668943E1,-2.156201601E-1,-2.536745071E-1,1.069684982E0,1.120298518E0
1.088668844E1,-2.293015420E-1,-2.369041443E-1,1.065275192E0,1.115129592E0
1.089667850E1,-1.757673323E-1,-2.205448151E-1,1.066148996E0,1.102818141E0
1.090668480E1,-1.217172816E-1,-2.038879395E-1,1.068861127E0,1.094919859E0
1.091668350E1,-7.008302212E-2,-1.866369247E-1,1.076118588E0,1.094429618E0
1.092668188E1,-2.180645466E-1,-2.690191269E-1,8.843637109E-1,9.497487090E-1
1.093664667E1,-1.648549885E-1,-1.302493095E0,8.945946097E-1,1.588699137E0
1.094668579E1,-1.121579707E-1,-1.390381813E0,9.055404067E-1,1.663052743E0
1.095668605E1,-1.986176521E-2,-2.169859409E0,9.569191933E-1,2.371577258E0
1.096668110E1,-1.687266529E-1,-3.053199768E0,7.677781582E-1,3.152773510E0
1.097668474E1,-1.178924292E-1,-3.171454906E0,7.792462707E-1,3.267912116E0
1.098668136E1,-6.589445472E-2,-4.018451691E0,7.926783562E-1,4.096417343E0
1.099668527E1,-1.515068114E-2,-4.109585762E0,8.087511063E-1,4.188436824E0
1.100669360E1,3.538699821E-2,-4.774218559E0,8.250972629E-1,4.845121318E0
1.101669152E1,-1.159369349E-1,-4.849909782E0,6.420659423E-1,4.893599385E0
1.102669126E1,-6.619492173E-2,-4.943823814E0,6.610943675E-1,4.988268381E0
1.103669464E1,-1.752195321E-2,-5.559512138E0,6.820927262E-1,5.601226002E0
1.104673162E1,3.090810217E-2,-5.579552174E0,7.032552958E-1,5.623782160E0
1.105667974E1,7.823967934E-2,-5.605066299E0,7.263302803E-1,5.652472498E0
1.106668923E1,-7.592764497E-2,-5.625755310E0,5.486446619E-1,5.652954872E0
1.107668834E1,-2.923629619E-2,-5.617500782E0,5.738774538E-1,5.646813715E0
1.108668850E1,1.712480374E-2,-5.559668541E0,5.993154049E-1,5.591903656E0
1.109668136E1,6.311352551E-2,-5.409637451E0,1.995961905E0,5.766456849E0
1.110668865E1,1.070578620E-1,-4.026879311E0,2.797201872E0,4.904238644E0
1.111669204E1,-4.884238541E-2,-2.500959396E0,3.656205654E0,4.430013913E0
1.112669568E1,-1.128120780E0,-8.050441742E-2,4.463075161E0,4.604147842E0
1.113669386E1,-3.888142109E0,4.106353760E0,6.264092445E0,8.439113960E0
1.114669126E1,-5.000488281E0,5.503908157E0,6.985996246E0,1.020304031E1
1.115669490E1,-5.820726395E0,6.446446419E0,6.989965439E0,1.114886290E1
1.116669230E1,-5.927971840E0,6.552555084E0,6.912129879E0,1.121848331E1
1.117669204E1,-5.976521492E0,6.626268387E0,6.691465378E0,1.115356225E1
1.118669048E1,-5.887008190E0,6.645395279E0,6.331967354E0,1.090467581E1
1.119669360E1,-5.590248585E0,6.561658859E0,5.185325623E0,1.005951530E1
1.120669204E1,-3.711791515E0,5.631300926E0,4.084771633E0,7.885068527E0
1.121669152E1,-2.032923698E0,5.524244308E0,2.545246601E0,6.413137626E0
1.122669959E1,-4.807931781E-1,5.499277115E0,7.180353403E-1,5.566757190E0
1.123669021E1,1.016131759E0,5.505871773E0,-1.320624948E0,5.752494935E0
1.124668334E1,1.175920367E0,5.465822220E0,-2.626439095E0,6.177069173E0
1.125669912E1,1.125091314E0,4.571318626E0,-4.066619873E0,6.220947005E0
1.126668376E1,1.264361262E0,3.470855713E0,-5.303323269E0,6.463024561E0
1.127668292E1,1.341100931E0,2.000562668E0,-6.402834892E0,6.840840398E0
1.128668605E1,1.366354942E0,7.757186890E-3,-7.166671753E0,7.295763841E0
1.129668501E1,2.847886086E0,-1.120685577E0,-7.188711643E0,7.813063830E0
1.130668110E1,2.833844185E0,-2.734515190E0,-7.115445614E0,8.132515753E0
1.131668370E1,2.869023085E0,-4.065233231E0,-7.018239498E0,8.603086675E0
1.132668449E1,3.713377953E0,-4.759322643E0,-7.615722656E0,9.718001822E0
1.133667850E1,4.364465237E0,-4.644180775E0,-7.413875580E0,9.776631474E0
1.134668292E1,4.310987473E0,-3.300547123E0,-7.172591209E0,8.995792848E0
1.135668969E1,4.206271648E0,-2.047294617E0,-6.878225803E0,8.318300706E0
1.136668240E1,4.034739971E0,-1.468925476E-1,-5.962915421E0,7.201184928E0
1.137668370E1,3.159927368E0,-1.388645172E-1,-5.048026562E0,5.957096314E0
1.138668709E1,2.883677483E0,1.690031052E0,-3.893839121E0,5.131645338E0
1.139668240E1,1.508148789E0,1.818531036E0,-2.584384441E0,3.501515506E0
1.140668162E1,3.127034605E-1,1.876843452E0,-1.455743074E0,2.395728010E0
1.141671511E1,2.507370412E-1,1.820336342E0,-5.775034428E-1,1.926136986E0
1.142667839E1,1.912356317E-1,1.045017242E0,-2.768113017E-1,1.097841792E0
1.143669980E1,1.356370598E-1,-9.964752197E-2,-6.921005249E-2,1.819809660E-1
1.144667855E1,-1.159442812E-1,-1.650428772E-1,-1.153206825E-2,2.020277611E-1
1.145668381E1,-1.577272713E-1,-1.629648209E0,-6.524467468E-2,1.638562798E0
1.146668735E1,-1.483024508E-1,-1.690562248E0,-1.015890956E0,1.977884922E0
1.147668266E1,-1.010164097E-1,-1.664512634E0,-1.098549008E0,1.996901737E0
1.148668891E1,-5.479314923E-2,-1.576731682E0,-1.716911435E0,2.331709665E0
1.149668423E1,-2.072838843E-1,-1.105403900E-1,-1.666378736E0,1.682855870E0
1.150668449E1,-1.189563647E-1,-6.359863281E-2,-1.527598023E0,1.533542019E0
1.151668318E1,-1.996409655E0,-3.673744202E-2,-1.394086838E0,2.435257535E0
1.152668240E1,-2.145813465E0,-9.943008423E-3,-6.996116638E-1,2.257004823E0
1.153668448E1,-3.154004812E0,-8.302211761E-2,-5.603204966E-1,3.204465336E0
1.154668292E1,-3.225582600E0,-5.623149872E-2,1.059262753E-1,3.227811250E0
1.155668084E1,-3.276689529E0,-2.958679199E-2,1.891173124E-1,3.282275889E0
1.156668344E1,-3.271000147E0,-3.097534180E-3,2.453969717E-1,3.280193779E0
1.157668266E1,-3.214107275E0,2.322959900E-2,2.878597975E-1,3.227055694E0
1.158668318E1,-3.019544363E0,-5.051422119E-2,3.066861629E-1,3.035499341E0
1.159680745E1,-2.064316511E0,-2.444744110E-2,3.221174479E-1,2.089440113E0
1.160668376E1,-1.826768160E0,-2.396583557E-3,3.239949942E-1,1.855279065E0
1.161669199E1,-7.822777033E-1,1.987934113E-2,3.336528540E-1,8.506925533E-1
1.162667011E1,4.779536724E-1,4.255294800E-2,3.512510061E-1,5.946660707E-1
1.163668089E1,3.914094567E-1,-3.420162201E-2,3.660856485E-1,5.370193812E-1
1.164668396E1,5.018847585E-1,-1.061916351E-2,3.885483742E-1,6.347999027E-1
1.165669048E1,6.095001101E-1,1.320743561E-2,3.929785490E-1,7.253254170E-1
1.166668318E1,6.711708307E-1,3.443145752E-2,3.967905045E-1,7.804476368E-1
1.167668266E1,-5.691141486E-1,5.550098419E-2,3.748943806E-1,6.837521993E-1
1.168668318E1,-1.480443954E0,1.372273445E0,2.279933691E-1,2.031459989E0
1.169668370E1,-1.572939157E0,1.482196808E0,1.242324114E-1,2.164827629E0
1.170668396E1,-2.350176096E0,2.209257126E0,-5.146965981E-1,3.266352295E0
1.171668219E1,-2.415183306E0,2.251006126E0,-5.243232250E-1,3.342910981E0
1.172668188E1,-2.469357729E0,2.267318726E0,-5.180609226E-1,3.392174659E0
1.173668449E1,-2.502554893E0,2.235649109E0,-5.397601128E-1,3.398859943E0
1.174668292E1,-2.505240440E0,2.153931618E0,-5.835177898E-1,3.355017748E0
1.175668162E1,-2.454095125E0,2.026521683E0,-6.102238894E-1,3.240639784E0
1.176668475E1,-2.367484808E0,1.201424599E0,-6.138941050E-1,2.724935110E0
1.177668042E1,-2.213137627E0,1.139628410E0,-5.940667391E-1,2.559227688E0
1.178669787E1,-2.000052214E0,1.048112869E0,-5.753171444E-1,2.330180092E0
1.179668011E1,-8.604961634E-1,1.719474792E-2,-5.573996305E-1,1.025399266E0
1.180670308E1,-6.361997128E-1,4.935359955E-2,-5.157104731E-1,8.204530116E-1
1.181668214E1,1.427886844E0,8.130550385E-2,-4.193871021E-1,1.490421741E0
1.182667459E1,1.329102516E0,1.322460175E-2,3.075652122E-1,1.364289100E0
1.183668579E1,1.430359840E0,4.640960693E-2,4.089725018E-1,1.488402376E0
1.184668605E1,2.636080265E0,1.604280472E0,5.085417032E-1,3.127498946E0
1.185668631E1,3.321607590E0,2.322230339E0,6.026473045E-1,4.097439994E0
1.186668553E1,4.366111279E0,4.072301865E0,6.942740679E-1,6.010706003E0
1.187668370E1,4.401926994E0,4.861502647E0,7.125746012E-1,6.596888040E0
1.188668240E1,4.965533257E0,4.974726677E0,7.245656252E-1,7.066075387E0
1.189668449E1,4.919246197E0,5.041224480E0,7.541285753E-1,7.083899866E0
1.190668396E1,4.817965031E0,5.014573097E0,7.862868309E-1,6.998355333E0
1.191668683E1,4.646769524E0,4.899412155E0,8.345966339E-1,6.803914903E0
1.192668188E1,4.367429256E0,4.057518959E0,1.856647134E0,6.243799884E0
1.193664948E1,3.132476330E0,3.219046593E0,1.859414220E0,4.861284826E0
1.194668422E1,2.111560822E0,2.380167961E0,1.862797141E0,3.686990889E0
1.195671365E1,4.767169356E-1,1.601755142E0,1.866037726E0,2.504990094E0
1.196668042E1,1.951089054E-1,1.424326897E0,1.669387102E0,2.203095071E0
1.197668610E1,-1.012905598E0,-2.045793533E-1,1.671630383E0,1.965242631E0
1.198667959E1,-1.862992167E0,-1.964159012E-1,1.641158104E0,2.490525837E0
1.199668324E1,-2.082737684E0,-1.863908768E-1,1.612768888E0,2.640750141E0
1.200668501E1,-2.827452660E0,-1.744337082E-1,1.589851379E0,3.248467803E0
1.201668240E1,-2.884453297E0,-2.610101700E-1,1.373502135E0,3.205418108E0
1.202668214E1,-2.832654238E0,-2.472772598E-1,1.362492085E0,3.153008207E0
1.203668553E1,-2.721811533E0,-2.330703735E-1,1.353851199E0,3.048851077E0
1.204668422E1,-1.828641415E0,-1.981649399E-1,1.392603278E0,2.307063644E0
1.205668396E1,-1.084063768E0,-1.569515228E0,1.191302180E0,2.248949353E0
1.206668344E1,-9.309436679E-1,-1.675271034E0,-1.760826111E-1,1.924628337E0
1.207668110E1,1.761244386E-1,-2.534713745E0,-2.847148180E-1,2.556727618E0
1.208668188E1,2.817258835E-1,-2.677308083E0,-4.221364260E-1,2.724985726E0
1.209668448E1,3.855954409E-1,-3.658532619E0,-1.107773304E0,3.841966484E0
1.210668214E1,2.848962545E-1,-3.782893181E0,-1.179981470E0,3.972883457E0
1.211668553E1,3.584772050E-1,-4.670194149E0,-1.244421124E0,4.846421693E0
1.212668188E1,2.020484924E0,-4.776029587E0,-1.289715648E0,5.343798686E0
1.213670063E1,2.107306480E0,-5.518797398E0,-1.244206548E0,6.037045242E0
1.214668360E1,2.211778164E0,-5.592205048E0,-1.132958651E0,6.119502859E0
1.215667146E1,2.834711313E0,-5.683030128E0,-3.329440355E-1,6.359502449E0
1.216669396E1,2.803453922E0,-6.332767487E0,-1.465511322E-1,6.927104386E0
1.217668167E1,2.724763393E0,-6.348626137E0,1.217832208E0,7.015162483E0
1.218668448E1,2.547499418E0,-6.346809387E0,1.292662859E0,6.960080456E0
1.219668448E1,1.611101508E0,-6.317794323E0,2.620292902E0,7.026813507E0
1.220668370E1,1.406648278E0,-6.210774422E0,3.437111378E0,7.236443389E0
1.221668370E1,6.673514098E-2,-4.940178394E0,4.222817421E0,6.499384826E0
1.222668292E1,4.175940529E-2,-3.060459137E0,4.333000183E0,5.305001844E0
1.223669256E1,-3.780165195E0,2.399054527E0,6.033625126E0,7.513304445E0
1.224669829E1,-5.169053555E0,4.506072998E0,6.865521431E0,9.703565996E0
1.225669490E1,-6.251061916E0,5.876462936E0,7.470050335E0,1.137586233E1
1.226673136E1,-7.079031944E0,6.623066902E0,7.385324001E0,1.218690769E1
1.227669282E1,-7.179805756E0,6.656156540E0,7.224481583E0,1.216746336E1
1.228669568E1,-7.243850708E0,6.520709038E0,6.918704987E0,1.195246829E1
1.229668891E1,-7.092224598E0,4.855130196E0,6.534428120E0,1.079679072E1
1.230669178E1,-6.699475765E0,2.785804749E0,5.212984085E0,8.934141632E0
1.231669204E1,-4.765116215E0,8.623495102E-1,3.977120161E0,6.266375666E0
1.232670141E1,-3.395104408E0,-1.479549408E-1,2.453172207E0,4.191262159E0
1.233669818E1,-2.112628460E0,-9.882736206E-2,7.176899314E-1,2.233393090E0
1.234669678E1,-8.435330391E-1,-1.450319290E-1,-1.034909248E0,1.342988980E0
1.235668141E1,1.190693021E0,-8.837509155E-2,-2.307663918E0,2.598244173E0
1.236672646E1,1.373453379E0,-3.007507324E-2,-3.509085655E0,3.768416223E0
1.237668969E1,1.551449656E0,1.773458481E0,-4.749348640E0,5.301741556E0
1.238669256E1,1.679937959E0,2.531153679E0,-6.014132500E0,6.737857242E0
1.239669751E1,1.524102569E0,2.668314934E0,-7.220055580E0,7.846782513E0
1.240669204E1,3.145894527E0,2.726185799E0,-7.915000916E0,8.942929100E0
1.241669464E1,3.160994053E0,2.631978035E0,-7.726154804E0,8.752865807E0
1.242669074E1,3.128356457E0,1.863509178E0,-7.483109474E0,8.322031482E0
1.243669464E1,3.105032921E0,1.080921173E0,-7.183770180E0,7.900390751E0
1.244669620E1,3.087584734E0,-1.311550140E-1,-6.032671928E0,6.778164333E0
1.245669438E1,3.034921169E0,-1.374235153E-1,-5.626759052E0,6.394532755E0
1.246674360E1,3.025899410E0,-1.587213516E0,-4.248832703E0,5.452329165E0
1.247668162E1,3.596158266E0,-1.717523575E0,-3.905735254E0,5.580054604E0
1.248668370E1,3.512388229E0,-1.762663841E0,-3.616943121E0,5.340986092E0
1.249668501E1,3.404232979E0,-1.699149132E0,-3.357345343E0,5.074216954E0
1.250673230E1,3.256339788E0,-1.530897141E0,-3.069063663E0,4.729328350E0
1.251667855E1,3.049141884E0,-1.242361069E-1,-2.197723627E0,3.760676798E0
1.252671048E1,2.059917927E0,-9.689235687E-2,-2.024729729E0,2.890013922E0
1.253668037E1,1.839878082E0,-1.676721573E-1,-1.865673661E0,2.625643449E0
1.254668245E1,2.489969730E-1,-1.370153427E-1,-1.737696767E0,1.760784697E0
1.255668245E1,2.094014883E-1,-1.051511765E-1,-1.632095575E0,1.648830410E0
1.256673058E1,-9.769464135E-1,-7.253456116E-2,-1.562798738E0,1.844458038E0
1.257668501E1,-1.746245503E0,-4.272174835E-2,-1.532847881E0,2.323966681E0
1.258668475E1,-1.944425106E0,-1.120834351E-1,-1.499963641E0,2.458300757E0
1.259667928E1,-2.820691824E0,-1.071951866E0,-1.466176510E0,3.354855694E0
1.260668579E1,-2.787377357E0,-1.135164261E0,-1.336403608E0,3.293029766E0
1.261669360E1,-2.682506323E0,-1.169034004E0,-1.138765812E0,3.139947173E0
1.262668709E1,-1.857541084E0,-1.172742844E0,-1.440297365E-1,2.201483414E0
1.263667954E1,-1.671362877E0,-1.159309387E0,1.340258121E-2,2.034116946E0
1.264668292E1,-8.406108618E-1,-1.126137733E0,1.740726233E-1,1.416020513E0
1.265669594E1,2.747038603E-1,-1.090335846E0,9.054610729E-1,1.443660009E0
1.266672824E1,3.752160668E-1,-1.041163445E0,9.671592712E-1,1.469763747E0
1.267668214E1,2.739154696E-1,-9.914455414E-1,1.004984975E0,1.438050328E0
1.268681402E1,3.709143400E-1,-9.436540604E-1,9.538942575E-1,1.392111593E0
1.269668193E1,4.640131891E-1,6.567478180E-2,8.625587225E-1,9.816460494E-1
1.270669198E1,5.259561539E-1,8.879470825E-2,1.884757280E-1,5.657185485E-1
1.271668271E1,5.506718755E-1,1.100921631E-1,1.577388048E-1,5.833020910E-1
1.272668063E1,3.764013648E-1,3.154659271E-2,1.317104101E-1,4.000260080E-1
1.273668188E1,-7.494819164E-1,5.286121368E-2,1.047132015E-1,7.586055006E-1
1.274668324E1,-8.706424236E-1,7.403087616E-2,1.012451649E-1,8.796302541E-1
1.275668292E1,-1.708365560E0,9.353828430E-2,1.165194511E-1,1.714887483E0
1.276673344E1,-1.847293735E0,1.134262085E-1,1.562486887E-1,1.857356535E0
1.277667876E1,-2.864878178E0,5.377578735E-2,2.200465202E-1,2.873819632E0
1.278668266E1,-2.974652767E0,7.406902313E-2,2.093969584E-1,2.982933521E0
1.279668318E1,-3.016523361E0,9.606170654E-2,1.899745464E-1,3.024025689E0
1.280668162E1,-3.015485048E0,1.538776398E0,1.978629827E-1,3.391184548E0
1.281668787E1,-2.938510895E0,1.687246323E0,1.997133493E-1,3.394338206E0
1.282668933E1,-2.810444832E0,2.604092598E0,1.818302870E-1,3.835747732E0
1.283668422E1,-2.606904030E0,2.679183006E0,1.463623047E-1,3.741041583E0
1.284668162E1,-1.839725971E0,2.741072655E0,1.397459507E-1,3.304179153E0
1.285668318E1,-1.682887435E0,2.761727333E0,1.630597115E-1,3.238184129E0
1.286673516E1,-1.556809902E0,2.733780861E0,2.121630907E-1,3.153129881E0
1.287670167E1,-1.469615221E0,2.645903587E0,2.822848558E-1,3.039779504E0
1.288668193E1,-1.415118217E0,1.912697792E0,3.360848427E-1,2.402899381E0
1.289667120E1,-1.342416525E0,1.756859779E0,3.817356825E-1,2.243738073E0
1.290668787E1,-1.265917897E0,1.264600754E-1,4.111008644E-1,1.336990723E0
1.291669074E1,-1.158424020E0,4.943656921E-2,4.209737778E-1,1.233535206E0
1.292668188E1,-9.929146767E-1,-1.359286308E0,4.230986834E-1,1.735670279E0
1.293664657E1,8.923137188E-2,-1.517005920E0,4.405969381E-1,1.582212016E0
1.294668683E1,1.549311280E0,-1.581471443E0,4.792664051E-1,2.265196163E0
1.295668709E1,2.821706772E0,6.975078583E-2,4.697577953E-1,2.861392435E0
1.296668761E1,3.899098873E0,1.926763535E0,3.730182648E-1,4.365149753E0
1.297668370E1,4.974789619E0,4.026511192E0,2.728862762E-1,6.405918440E0
1.298668240E1,5.875078678E0,5.887104034E0,2.105021477E-1,8.319786929E0
1.299668162E1,5.958297729E0,7.366771698E0,1.815724373E-1,9.476476436E0
1.300668292E1,6.636868477E0,8.326271057E0,1.658194065E-1,1.064905202E1
1.301669100E1,6.504061699E0,8.341309547E0,1.773464680E-1,1.057883336E1
1.302668058E1,6.252068043E0,8.172568321E0,2.550290823E-1,1.029292318E1
1.303668214E1,5.160003185E0,6.626768112E0,1.995305061E0,8.632550653E0
1.304669980E1,3.961974621E0,5.010315895E0,1.996359825E0,6.692231378E0
1.305668803E1,2.526154280E0,3.310511589E0,1.799496889E0,4.536422762E0
1.306670094E1,3.240148127E-1,2.023372650E0,1.804229021E0,2.730249959E0
1.307669157E1,1.950958967E-1,1.121352196E0,1.810541391E0,2.138586750E0
1.308668011E1,-1.692937613E0,-1.679458618E-1,2.780452728E0,3.259625891E0
1.309667959E1,-2.712301016E0,-1.607007980E-1,1.773146987E0,3.244449381E0
1.310668084E1,-3.574728012E0,-2.499933243E-1,1.535564303E0,3.898606771E0
1.311669021E1,-3.792731285E0,-2.374448776E-1,1.504105806E0,4.086994611E0
1.312668292E1,-3.934653997E0,-2.239141464E-1,1.482273698E0,4.210555182E0
1.313668448E1,-3.970438242E0,-1.906890869E-1,1.511969805E0,4.252857257E0
1.314668449E1,-3.847434759E0,-1.515892982E0,1.307528496E0,4.337086179E0
1.315668501E1,-3.657916784E0,-1.592035294E0,1.304136634E0,4.197106615E0
1.316668865E1,-2.900673389E0,-1.686818123E0,1.303112984E0,3.599634001E0
1.317668188E1,-2.660061598E0,-2.420478821E0,1.302901983E0,3.825205747E0
1.318668136E1,-1.688553452E0,-2.523887157E0,2.139948606E-1,3.044176891E0
1.319668188E1,-1.445120573E0,-3.405617237E0,-5.472232103E-1,3.739793507E0
1.320668188E1,4.159575403E-1,-3.540909290E0,-6.472980976E-1,3.623541652E0
1.321668318E1,5.636090636E-1,-4.583402634E0,-7.716561556E-1,4.681953449E0
1.322670298E1,6.925743818E-1,-4.705873966E0,-8.779476881E-1,4.836910295E0
1.323668115E1,2.074157000E0,-5.490386009E0,-9.782356024E-1,5.950076527E0
1.324667079E1,2.883574486E0,-5.548161507E0,-1.050030947E0,6.340320411E0
1.325670985E1,3.599842072E0,-5.597943783E0,-1.056069016E0,6.738777285E0
1.326668167E1,3.706224442E0,-5.635911942E0,-9.812778234E-1,6.816341335E0
1.327668605E1,4.364282131E0,-5.646791935E0,-8.396731615E-1,7.185977226E0
1.328668188E1,4.354332447E0,-5.618974209E0,-7.305741310E-3,7.108666232E0
1.329668214E1,4.243419170E0,-5.541884899E0,1.179424047E0,7.078851289E0
1.330668474E1,4.013316631E0,-5.430874825E0,1.267053723E0,6.870701338E0
1.331669126E1,2.862493753E0,-4.674045563E0,3.104382515E0,6.299028751E0
1.332668396E1,1.442172885E0,-3.841534615E0,3.974690437E0,5.712741452E0
1.333668449E1,1.035788357E-1,-2.956931114E0,4.776689053E0,5.618801340E0
1.334668448E1,2.256225049E-2,-1.753716469E0,4.884615898E0,5.189942483E0
1.335668579E1,-2.212701321E0,-2.534198761E-2,5.676838875E0,6.092880186E0
1.336668735E1,-3.894147158E0,1.415895462E0,5.742373466E0,7.081242481E0
1.337668188E1,-5.660937309E0,2.823638916E0,6.457518101E0,9.039838935E0
1.338668370E1,-7.228157520E0,3.827701569E0,6.997070789E0,1.076366852E1
1.339668449E1,-8.477607727E0,3.945184708E0,6.953312397E0,1.165259063E1
1.340668240E1,-1.012168217E1,3.987227440E0,7.687705994E0,1.332093300E1
1.341672266E1,-1.005138493E1,3.916064262E0,7.506742477E0,1.314218707E1
1.342670204E1,-9.883149147E0,3.752518654E0,7.308972359E0,1.285220254E1
1.343668714E1,-9.749878883E0,2.654303551E0,7.053164959E0,1.232284876E1
1.344667985E1,-7.320124626E0,1.988958359E0,6.700450897E0,1.012107811E1
1.345668865E1,-5.669109821E0,1.912656784E0,5.301617622E0,7.994010980E0
1.346667959E1,-3.882861376E0,1.898352623E0,3.319225788E0,5.449551814E0
1.347669230E1,-2.157930851E0,1.980733871E0,1.175822020E0,3.156347517E0
1.348669777E1,-6.306821108E-1,2.180418015E0,-1.415428042E0,2.674961530E0
1.349669152E1,4.751123190E-1,3.346896172E0,-2.639419079E0,4.288820208E0
1.350669204E1,1.757718921E0,3.387411118E0,-4.876471519E0,6.192261652E0
1.351669230E1,3.034203529E0,2.695754051E0,-5.155846596E0,6.561725008E0
1.352669933E1,3.237990856E0,1.982437134E0,-5.847817421E0,6.972202691E0
1.353669126E1,4.095980644E0,1.279767990E0,-5.789661407E0,7.206597169E0
1.354669412E1,4.105577469E0,1.057500839E-1,-5.656329155E0,6.990065017E0
1.355669516E1,4.066754341E0,9.256839752E-2,-5.527844429E0,6.863244408E0
1.356669204E1,4.074899673E0,7.642078400E-2,-5.409262657E0,6.772796319E0
1.357669048E1,4.583505154E0,-1.107994080E0,-5.317078590E0,7.106862536E0
1.358669126E1,4.507689476E0,-1.777426720E0,-5.854620934E0,7.599677390E0
1.359678157E1,4.394453049E0,-1.839480400E0,-5.744559288E0,7.462899380E0
1.360667975E1,4.263369560E0,-1.860839844E0,-6.232859135E0,7.777376031E0
1.361685995E1,4.108525276E0,-1.802503586E0,-6.089885712E0,7.564106497E0
1.362668141E1,3.908016205E0,-1.679906845E-1,-5.916202068E0,7.092408508E0
1.363667985E1,3.637092352E0,-1.611394882E-1,-5.696855545E0,6.760811328E0
1.364669594E1,2.439374924E0,-1.489524841E-1,-5.430746078E0,5.955311900E0
1.365670271E1,1.501066208E0,-1.310367584E-1,-4.491038799E0,4.737066591E0
1.366669256E1,3.760766983E-1,1.422049522E0,-4.159279346E0,4.411718850E0
1.367669282E1,9.365352988E-2,1.501697540E0,-2.943206787E0,3.305500367E0
1.368669230E1,-1.725847006E0,1.453254700E0,-1.545674324E0,2.734886876E0
1.369668448E1,-2.654825687E0,-1.040496826E-1,-1.280999660E0,2.949556898E0
1.370668501E1,-2.748681545E0,-6.603527069E-2,-4.871212244E-1,2.792292603E0
1.371668423E1,-2.765788078E0,-1.270866394E-1,-3.207300901E-1,2.787221286E0
1.372668449E1,-2.690668583E0,-1.072885513E0,-2.419589758E-1,2.906772247E0
1.373668240E1,-2.549372911E0,-1.149907112E0,-2.346432209E-1,2.806536308E0
1.374669204E1,-1.611374855E0,-1.207118034E0,-8.934673071E-1,2.202713486E0
1.375668266E1,-1.456116915E0,-1.230957985E0,-9.445949793E-1,2.127861298E0
1.376668865E1,-1.294772029E0,-1.211018562E0,-9.902817011E-1,2.030679298E0
1.377681589E1,1.268030405E-1,-1.152889252E0,-9.970552921E-1,1.529493999E0
1.378668240E1,2.257229090E-1,-1.066320419E0,-9.745506048E-1,1.462100868E0
1.379669568E1,3.214843869E-1,2.289295197E-2,-9.023489952E-1,9.581805714E-1
1.380667329E1,4.125342965E-1,5.072021484E-2,-7.871060371E-1,8.901084202E-1
1.381667881E1,2.985595465E-1,-2.102279663E-2,-6.474412680E-1,7.132741102E-1
1.382667251E1,3.786067367E-1,7.019042969E-3,7.694256306E-2,3.864097385E-1
1.383668370E1,4.055214822E-1,3.279495239E-2,1.378822327E-1,4.295750127E-1
1.384668839E1,-6.691467166E-1,5.838203430E-2,1.693195105E-1,6.927011526E-1
1.385668292E1,-7.761895657E-1,8.375930786E-2,1.796936989E-1,8.011090368E-1
1.386668474E1,-1.376577377E0,2.915096283E-2,2.101588249E-1,1.392832289E0
1.387668214E1,-1.375142813E0,4.926967621E-2,2.494337559E-1,1.398450019E0
1.388668787E1,-1.349846840E0,6.928634644E-2,3.130255938E-1,1.387397604E0
1.389668943E1,-1.323243976E0,8.918094635E-2,3.878730536E-1,1.381800769E0
1.390668136E1,-1.291275144E0,1.060009003E-2,4.673075676E-1,1.373273542E0
1.391668266E1,-1.300653815E0,3.206348419E-2,5.556862354E-1,1.414749309E0
1.392668839E1,-1.304943204E0,1.314103127E0,6.324850321E-1,1.956982654E0
1.393664626E1,-1.342869043E0,1.403234482E0,6.839126348E-1,2.059150497E0
1.394668657E1,-2.014925003E0,1.500195503E0,7.015627623E-1,2.608198540E0
1.395679751E1,-2.039151430E0,2.115567207E0,6.794208288E-1,3.015854079E0
1.396669032E1,-2.098762035E0,2.135206223E0,6.219613552E-1,3.057898563E0
1.397669881E1,-2.779552698E0,2.117129326E0,5.234243870E-1,3.533004794E0
1.398667985E1,-2.777304411E0,2.040429115E0,4.085664749E-1,3.470403050E0
1.399668870E1,-2.765280485E0,1.914251328E0,-2.967716455E-1,3.376271274E0
1.400668318E1,-2.742358208E0,-1.378059387E-2,-3.649530411E-1,2.766569928E0
1.401668579E1,-2.660966873E0,9.083747864E-3,-4.262619019E-1,2.694907498E0
1.402668214E1,-2.527164936E0,3.254222870E-2,-4.762395620E-1,2.571852587E0
1.403668032E1,-2.320908546E0,5.951690674E-2,-5.266603231E-1,2.380657438E0
1.404669178E1,-1.277223468E0,7.786750793E-3,-5.565816164E-1,1.393249266E0
1.405668605E1,-5.778920650E-2,4.110240936E-2,-4.920341969E-1,4.971183474E-1
1.406668240E1,1.393922448E0,7.711124420E-2,-3.514209986E-1,1.439605034E0
1.407668761E1,1.512647271E0,1.131458282E-1,6.000065804E-1,1.631230101E0
1.408668370E1,2.829968691E0,1.940215111E0,7.128227949E-1,3.504464839E0
1.409668943E1,3.910638332E0,3.449568748E0,7.890551090E-1,5.274014096E0
1.410668188E1,5.028100967E0,5.005185127E0,8.180317879E-1,7.141628211E0
1.411668318E1,6.082984447E0,6.301320076E0,8.068565130E-1,8.795473377E0
1.412668006E1,6.762984276E0,7.265959740E0,7.840342522E-1,9.957250472E0
1.413668225E1,6.818986416E0,7.388603210E0,7.259093523E-1,1.008052467E1
1.414670001E1,7.333789825E0,7.404153824E0,6.560162306E-1,1.044204598E1
1.415668792E1,7.148307800E0,7.270926476E0,6.228371859E-1,1.021531215E1
1.416670824E1,6.829261780E0,6.252820969E0,6.350501776E-1,9.281157000E0
1.417668219E1,5.431938171E0,4.976838112E0,7.242407799E-1,7.402661319E0
1.418668527E1,4.051714420E0,3.603270531E0,1.854929805E0,5.730681708E0
1.419668813E1,2.408071518E0,2.419544220E0,1.650491118E0,3.791717764E0
1.420668501E1,7.598734647E-2,1.490377426E0,1.647498012E0,2.222891956E0
1.421668474E1,-5.168027431E-2,-1.979627609E-1,1.646181345E0,1.658846927E0
1.422668292E1,-3.409877300E0,-1.615047455E-1,1.685146093E0,3.806975747E0
1.423668188E1,-4.316442490E0,-2.477273941E-1,1.452216268E0,4.560918407E0
1.424669152E1,-4.529051781E0,-2.318487167E-1,1.429191828E0,4.754855743E0
1.425668422E1,-4.654078007E0,-1.249854088E0,1.412806869E0,5.021812480E0
1.426668475E1,-4.626998425E0,-1.898861885E0,1.402691960E0,5.194452388E0
1.427668605E1,-4.518237114E0,-1.981331825E0,1.399419069E0,5.128207889E0
1.428668448E1,-3.677506447E0,-2.094848633E0,1.881773472E-1,4.236490903E0
1.429668631E1,-3.385360479E0,-2.826719284E0,8.094727993E-2,4.411072426E0
1.430668058E1,-2.108446360E0,-2.884696484E0,-6.039369106E-2,3.573607037E0
1.431668943E1,-1.838248134E0,-2.962765217E0,-7.505968809E-1,3.566585147E0
1.432668339E1,2.550416589E-1,-3.057880402E0,-8.337012529E-1,3.179738445E0
1.433667360E1,2.080146521E-1,-3.732929230E0,-9.253071547E-1,3.851522304E0
1.434668454E1,3.589115143E-1,-3.783703804E0,-1.030728459E0,3.937973223E0
1.435668037E1,5.071648359E-1,-3.865461349E0,-1.112413287E0,4.054191774E0
1.436668011E1,1.783603549E0,-4.501538754E0,-1.177147508E0,4.983048166E0
1.437668370E1,1.966910362E0,-4.546934128E0,-1.217627287E0,5.101564715E0
1.438667902E1,2.784159660E0,-4.615054131E0,-1.191297174E0,5.519914727E0
1.439668579E1,2.866041899E0,-4.696527481E0,-1.121334553E0,5.615065247E0
1.440668475E1,2.995605707E0,-5.377234936E0,-1.584787369E-1,6.157387808E0
1.441668527E1,2.946858883E0,-5.397143364E0,1.443533897E0,6.316401181E0
1.442668214E1,2.843821049E0,-5.396736145E0,1.337696552E0,6.245118993E0
1.443668292E1,2.633328676E0,-5.384795666E0,2.578090191E0,6.525104851E0
1.444669178E1,1.711000085E0,-5.346451283E0,3.483813763E0,6.606740569E0
1.445668448E1,1.454286695E0,-5.274985313E0,4.331812859E0,6.978898372E0
1.446668058E1,1.142354310E-1,-5.153996944E0,5.067114830E0,7.228581253E0
1.447668318E1,-1.436097324E-1,-4.002013206E0,5.175697803E0,6.544049298E0
1.448668449E1,-2.008212090E0,-2.601184845E0,6.044505596E0,6.880052783E0
1.449668761E1,-3.469365835E0,2.200794220E-2,6.042912960E0,6.968054297E0
1.450670089E1,-4.987524033E0,2.274806023E0,6.825114727E0,8.753989345E0
1.451670183E1,-6.102888584E0,4.633902550E0,7.596232891E0,1.078985894E1
1.452669933E1,-6.811992645E0,6.285328865E0,8.464969635E0,1.255246245E1
1.453668740E1,-6.848995209E0,7.289129257E0,8.977129936E0,1.343982896E1
1.454668480E1,-6.803009033E0,7.405958176E0,8.774064064E0,1.334591131E1
1.455668214E1,-6.562479019E0,7.439587593E0,8.475475311E0,1.304788397E1
1.456668527E1,-5.233914375E0,7.317009926E0,8.014055252E0,1.204813577E1
1.457668501E1,-4.001801968E0,6.000643730E0,6.309025288E0,9.582585468E0
1.458668110E1,-2.712997437E0,4.191505432E0,4.669725418E0,6.836330036E0
1.459668865E1,-9.275827408E-1,1.811163902E0,3.277893066E-1,2.061108986E0
1.460668553E1,-6.400682926E-1,1.777658463E0,-1.185751200E0,2.230641822E0
1.461668162E1,7.579762340E-1,1.838027954E0,-3.281300545E0,3.836640196E0
1.462668605E1,9.171001315E-1,1.959644318E0,-4.381164551E0,4.886295255E0
1.463668136E1,1.022345066E0,2.056147575E0,-4.682039738E0,5.214827743E0
1.464668839E1,1.093638659E0,2.064898491E0,-5.630957603E0,6.096518254E0
1.465668839E1,1.142657161E0,1.982263565E0,-5.744969368E0,6.183826264E0
1.466668188E1,9.906314015E-1,1.255896568E0,-5.761621952E0,5.979541310E0
1.467668162E1,9.918966889E-1,1.125418663E0,-5.706132889E0,5.900032098E0
1.468670751E1,9.956136346E-1,-4.310989380E-2,-5.614852905E0,5.702602750E0
1.469669386E1,9.994471073E-1,-5.267238617E-2,-6.100820541E0,6.182368493E0
1.470679391E1,1.004348159E0,-1.412390709E0,-6.051337719E0,6.294620793E0
1.471668527E1,8.110585213E-1,-1.565477371E0,-6.871711731E0,7.094290482E0
1.472669490E1,8.186778426E-1,-2.318161964E0,-6.792535305E0,7.223755545E0
1.473668370E1,2.419064045E0,-2.351139069E0,-6.680496216E0,7.483899750E0
1.474669386E1,2.478904009E0,-2.308602333E0,-6.494953156E0,7.325232168E0
1.475669594E1,3.114540815E0,-2.190091133E0,-6.256329536E0,7.323832530E0
1.476669308E1,3.139249086E0,-1.226127625E0,-5.922659874E0,6.814409275E0
1.477669204E1,3.088211298E0,-1.503553391E-1,-3.755483150E0,4.864494778E0
1.478669126E1,2.914378166E0,-1.304187775E-1,-2.483612537E0,3.831310532E0
1.479669230E1,2.178765059E0,-1.066083908E-1,-1.347932577E0,2.564235707E0
1.480668865E1,1.971430063E0,-1.788377762E-1,-1.041688442E0,2.236880474E0
1.481669542E1,3.015484512E-1,-1.477088928E-1,-8.064889312E-1,8.735981808E-1
1.482669490E1,2.628462911E-1,-1.139783859E-1,-6.376360655E-1,6.990414846E-1
1.483669490E1,2.269748449E-1,-8.199596405E-2,-5.698167086E-1,6.188149964E-1
1.484669152E1,1.942070276E-1,-5.395698547E-2,-6.101340055E-1,6.425661293E-1
1.485669386E1,-3.543864191E-2,-1.298370361E-1,-1.357801080E0,1.364454955E0
1.486676766E1,-6.176388264E-2,-1.053419113E-1,-1.393026233E0,1.398368256E0
1.487667699E1,-1.337738395E0,-8.056926727E-2,-1.410726547E0,1.945812121E0
1.488671152E1,-1.363603115E0,-5.626773834E-2,-1.384186029E0,1.943849397E0
1.489668068E1,-1.389486909E0,-3.209495544E-2,-1.309040427E0,1.909264465E0
1.490668917E1,-1.410132885E0,-1.078071594E-1,-1.201398611E0,1.855655076E0
1.491668657E1,-1.416348338E0,-8.363914490E-2,-5.394735336E-1,1.517916274E0
1.492668787E1,-1.406903386E0,-5.938720703E-2,-4.152790308E-1,1.468114659E0
1.493664542E1,-1.376739621E0,-3.529071808E-2,-2.848694324E-1,1.406345624E0
1.494668631E1,-1.268549919E0,-1.147270203E-2,-1.837934256E-1,1.281846537E0
1.495668370E1,2.080629021E-2,-6.733131409E-2,-1.429941654E-1,1.594168715E-1
1.496668370E1,1.075750217E-1,-4.310512543E-2,-1.583775282E-1,1.962495314E-1
1.497668475E1,1.924403012E-1,-1.884841919E-2,-1.698752642E-1,2.573832508E-1
1.498669308E1,2.754932940E-1,4.751205444E-3,-1.918119192E-1,3.357245022E-1
1.499668136E1,1.571780890E-1,-7.141685486E-2,-1.900345087E-1,2.567458536E-1
1.500668292E1,2.334123552E-1,-4.767513275E-2,-1.575642824E-1,2.856234390E-1
1.501667928E1,2.642522156E-1,-2.518939972E-2,-8.339822292E-2,2.782427050E-1
1.502668188E1,2.936614752E-1,-3.012657166E-3,1.610732079E-2,2.941183161E-1
1.503668657E1,-9.110766053E-1,1.206247330E0,1.179866791E-1,1.516249998E0
1.504676485E1,-1.072181940E0,1.343007088E0,2.024528980E-1,1.730384156E0
1.505667725E1,-2.162799358E0,2.246452332E0,2.371141911E-1,3.127374663E0
1.506681495E1,-2.316838980E0,2.357511520E0,2.479711771E-1,3.314678436E0
1.507669568E1,-3.289913654E0,2.987936974E0,2.386095524E-1,4.450644193E0
1.508668917E1,-3.397977591E0,3.003034592E0,2.150543928E-1,4.539902736E0
1.509668266E1,-4.037540436E0,2.979237556E0,1.796172857E-1,5.020941302E0
1.510668292E1,-4.040496349E0,2.904535294E0,1.080902815E-1,4.977310471E0
1.511668063E1,-4.043787003E0,2.774082184E0,1.484179497E-2,4.903872507E0
1.512668240E1,-3.979916334E0,1.809865952E0,-6.279218197E-2,4.372561223E0
1.513668969E1,-3.804592609E0,-1.083936691E-1,-1.648951769E-1,3.809706620E0
1.514668214E1,-3.576016426E0,-8.264636993E-2,-2.215911150E-1,3.583828473E0
1.515668292E1,-2.621038198E0,-5.406284332E-2,-2.917443514E-1,2.637779141E0
1.516668449E1,-2.353346825E0,-2.402687073E-2,-3.619060516E-1,2.381133041E0
1.517668370E1,-1.198060036E0,-1.307792664E0,-3.620421886E-1,1.810177905E0
1.518668735E1,-3.778296709E-1,-1.280888557E0,-2.840020657E-1,1.365316055E0
1.519668162E1,1.257219672E0,-1.107470512E0,-1.546247005E-1,1.682557885E0
1.520668292E1,1.404939294E0,2.185058594E-2,6.200268269E-1,1.535827182E0
1.521668110E1,1.518478394E0,2.116580963E0,6.259170771E-1,2.679078907E0
1.522672594E1,3.204822302E0,3.912952423E0,5.879421234E-1,5.091930733E0
1.523668360E1,4.078569889E0,5.646141052E0,5.566210747E-1,6.987379204E0
1.524676386E1,4.829778194E0,7.011670113E0,5.553375483E-1,8.532213955E0
1.525668016E1,4.912391186E0,7.911620140E0,5.615751743E-1,9.329559855E0
1.526668891E1,5.707825661E0,7.958372116E0,5.348507166E-1,9.808212161E0
1.527668631E1,5.691998005E0,7.860391617E0,4.988058805E-1,9.717685165E0
1.528668683E1,5.554490089E0,6.825066566E0,5.151714087E-1,8.814720380E0
1.529668448E1,5.275019169E0,5.483241081E0,1.630710483E0,7.781450807E0
1.530668396E1,4.149950027E0,3.976585388E0,1.631507754E0,5.974707870E0
1.531668709E1,7.186822295E-1,1.583205223E0,1.672500014E0,2.412529632E0
1.532668344E1,4.026877880E-1,8.772249222E-1,1.474176407E0,1.762066144E0
1.533668865E1,-1.182862997E0,-2.565069199E-1,1.477746248E0,1.910155660E0
1.534667928E1,-2.336812735E0,-2.492723465E-1,1.448449016E0,2.760585990E0
1.535668032E1,-3.183767319E0,-2.394342422E-1,1.421743035E0,3.495004486E0
1.536668214E1,-3.419574976E0,-2.265062332E-1,1.404346704E0,3.703645198E0
1.537672027E1,-3.582119942E0,-3.114624023E-1,1.193606615E0,3.788573459E0
1.538668943E1,-3.611830235E0,-2.959671021E-1,1.188446283E0,3.813832552E0
1.539668110E1,-3.543198347E0,-2.798976898E-1,1.187187076E0,3.747267057E0
1.540672688E1,-3.349373341E0,-2.117712021E0,-3.389693499E-1,3.977173142E0
1.541667912E1,-2.251103163E0,-2.211612225E0,-4.391663074E-1,3.186151460E0
1.542669751E1,-2.018580198E0,-2.903279305E0,-5.737146139E-1,3.582296079E0
1.543669615E1,-9.712284803E-1,-3.001990318E0,-1.329645872E0,3.423914248E0
1.544668058E1,-7.658727765E-1,-3.733860970E0,-1.423504710E0,4.068739917E0
1.545668553E1,4.764667153E-1,-3.836038589E0,-1.507825613E0,4.149186748E0
1.546668344E1,5.936173797E-1,-4.619309902E0,-1.587196469E0,4.920325009E0
1.547670558E1,5.002749562E-1,-4.712196827E0,-1.598582625E0,5.001053927E0
1.548669126E1,5.728595257E-1,-5.387196064E0,-1.586626887E0,5.645124830E0
1.549668318E1,2.672219753E0,-5.504676819E0,-1.440433621E0,6.286260757E0
1.550668110E1,3.469839811E0,-5.545040131E0,-1.267859221E0,6.662936693E0
1.551668240E1,3.528809547E0,-5.582004070E0,-3.386608362E-1,6.612560580E0
1.552668032E1,3.562508583E0,-5.600922108E0,-1.291950941E-1,6.639163143E0
1.553668917E1,3.544517756E0,-5.584721088E0,1.417828679E0,6.764832143E0
1.554668214E1,3.396990776E0,-5.526437283E0,1.527764320E0,6.664466910E0
1.555668318E1,3.173061609E0,-5.427875519E0,1.637845993E0,6.497129529E0
1.556668032E1,2.081671000E0,-5.304451942E0,1.548257470E0,5.904884906E0
1.557670402E1,1.794649839E0,-4.501890182E0,3.208210230E0,5.812090514E0
1.558671376E1,1.856259629E-2,-4.358149529E0,3.376938343E0,5.513395003E0
1.559668219E1,-6.116605550E-2,-3.163997650E0,4.394715786E0,5.415546995E0
1.560674407E1,-1.412036866E-1,-1.817800522E0,5.054586411E0,5.373377057E0
1.561667959E1,-2.202047825E0,-2.585315704E-2,5.145524979E0,5.596973317E0
1.562668761E1,-3.559474230E0,2.234229088E0,6.172300339E0,7.467190093E0
1.563668891E1,-5.047680855E0,4.209324837E0,7.066448212E0,9.650501952E0
1.564668136E1,-6.281442165E0,5.672821045E0,7.971277237E0,1.162663645E1
1.565669594E1,-7.013073444E0,6.572019577E0,8.592904091E0,1.289234816E1
1.566668396E1,-7.073033333E0,6.627278328E0,8.466188431E0,1.286953632E1
1.567671261E1,-7.002791882E0,5.824655533E0,8.090680122E0,1.218297218E1
1.568668657E1,-6.694333076E0,4.310407639E0,6.766857147E0,1.044911791E1
1.569668422E1,-5.249966145E0,2.674736977E0,5.521278858E0,8.074706350E0
1.570668423E1,-3.741516590E0,1.458539009E0,3.982511282E0,5.655676666E0
1.571668423E1,-2.396527767E0,1.331576347E0,2.173766136E0,3.498814102E0
1.572668136E1,-1.084723711E0,1.295187950E0,2.429295182E-1,1.706795860E0
1.573668735E1,9.908226728E-1,1.399997711E0,-1.111652851E0,2.043892175E0
1.574668344E1,1.194125414E0,2.347372055E0,-2.440544128E0,3.590591415E0
1.575668032E1,1.183259845E0,3.330048561E0,-2.750375271E0,4.478157144E0
1.576670303E1,1.317507386E0,3.499378204E0,-3.801834106E0,5.332486859E0
1.577669995E1,1.403730989E0,3.553282738E0,-4.775295258E0,6.115531351E0
1.578669771E1,1.446804762E0,3.467963219E0,-5.724336624E0,6.847484406E0
1.579668245E1,1.427580953E0,2.614939690E0,-5.829673767E0,6.546830774E0
1.580668240E1,1.213459373E0,1.584726334E0,-6.405208111E0,6.708988906E0
1.581667777E1,1.201811433E0,-7.550716400E-2,-6.316310883E0,6.430072723E0
1.582668902E1,1.195280671E0,-1.095614433E0,-6.838443756E0,7.028042393E0
1.583668787E1,1.189325809E0,-2.297947884E0,-6.833273888E0,7.306756625E0
1.584668162E1,1.183809161E0,-3.007699013E0,-7.402130604E0,8.077078368E0
1.585668501E1,2.309359074E0,-2.989217758E0,-7.138582230E0,8.076380277E0
1.586668110E1,3.199360847E0,-2.191175938E0,-6.773622513E0,7.805070388E0
1.587670662E1,3.256018400E0,-1.220027924E0,-5.617911339E0,6.606894260E0
1.588668839E1,3.312117815E0,-1.104307175E-1,-5.267407417E0,6.223174452E0
1.589668553E1,3.302284002E0,-1.917915344E-1,-4.024546146E0,5.209494727E0
1.590668162E1,3.172151566E0,-1.718540192E-1,-3.052550316E0,4.405694360E0
1.591668214E1,2.986276627E0,-1.476812363E-1,-2.056574821E0,3.628933429E0
1.592668188E1,2.193520308E0,-1.215162277E-1,-1.150460243E0,2.479890382E0
1.593668600E1,1.993169785E0,-9.080123901E-2,-8.282328248E-1,2.160310225E0
1.594670553E1,3.168618083E-1,-1.567420959E-1,-5.913606882E-1,6.889680354E-1
1.595668719E1,2.562837601E-1,-1.244945526E-1,-4.823189974E-1,5.601891418E-1
1.596677079E1,1.996446252E-1,-9.434795380E-2,-4.689481258E-1,5.183356610E-1
1.597672542E1,1.468680054E-1,-1.437238693E0,-5.431059599E-1,1.543434273E0
1.598669464E1,9.713284671E-2,-1.435602188E0,-1.432757378E0,2.030562025E0
1.599668084E1,-1.252064109E-1,-1.378295898E0,-1.462033272E0,2.013185912E0
1.600669126E1,-1.419526935E-1,-1.292230606E0,-1.467834234E0,1.960751857E0
1.601669620E1,-1.021152139E-1,-1.181855202E0,-1.438792825E0,1.864761118E0
1.602669178E1,-6.120598316E-2,-9.544372559E-3,-1.374562860E0,1.375957965E0
1.603669568E1,-2.010947704E0,-6.136798859E-2,-1.135288715E0,2.310098952E0
1.604669308E1,-2.695903778E0,-3.161621094E-2,-2.005201578E-1,2.703535666E0
1.605669360E1,-2.729608536E0,-2.026557922E-3,-4.089736938E-2,2.729915651E0
1.606669751E1,-2.727719069E0,-1.311889648E0,1.028745174E-1,3.028545680E0
1.607672146E1,-2.676075697E0,-1.342144012E0,2.031863928E-1,3.000669325E0
1.608668891E1,-2.575445175E0,-1.365585327E0,2.728055716E-1,2.927825817E0
1.609669178E1,-1.787441134E0,-1.360071182E0,3.134711981E-1,2.267819133E0
1.610669516E1,-1.601417542E0,-1.330889702E0,3.152178526E-1,2.105983816E0
1.611669334E1,2.017941475E-1,-1.251206398E0,3.188118935E-1,1.306858581E0
1.612676553E1,3.056943715E-1,-1.142170906E0,3.289256096E-1,1.227271561E0
1.613668943E1,2.080323547E-1,3.330421448E-2,3.419873714E-1,4.016739891E-1
1.614670454E1,3.083293438E-1,5.625629425E-2,3.878023624E-1,4.986205243E-1
1.615669199E1,4.063509107E-1,7.937145233E-2,4.475203753E-1,6.096682510E-1
1.616668011E1,4.977973104E-1,1.024141312E-1,5.046782494E-1,7.162338667E-1
1.617670948E1,5.202394128E-1,1.223602295E-1,5.307207108E-1,7.531836066E-1
1.618668631E1,-1.361968994E0,4.244518280E-2,5.141612291E-1,1.456407534E0
1.619668475E1,-1.494810700E0,1.414341927E0,4.559686184E-1,2.107778332E0
1.620668292E1,-2.319742680E0,1.474811554E0,3.750417233E-1,2.774334427E0
1.621668266E1,-2.537923574E0,2.324705124E0,-3.567490578E-1,3.460141597E0
1.622669256E1,-3.200030327E0,2.370640755E0,-3.991274834E-1,4.002428566E0
1.623668370E1,-3.223369122E0,2.419631958E0,-4.414594173E-1,4.054579352E0
1.624668605E1,-3.174827814E0,2.476894379E0,-4.839842319E-1,4.055709327E0
1.625668266E1,-3.137323380E0,2.526528358E0,-5.128030777E-1,4.060678580E0
1.626668136E1,-3.081664801E0,2.561420441E0,-5.102186203E-1,4.039536565E0
1.627672355E1,-3.038274765E0,2.557501793E0,-4.863762856E-1,4.001061217E0
1.628668240E1,-2.980231762E0,2.495773315E0,-4.281380177E-1,3.910750306E0
1.629668136E1,-2.863563061E0,2.371195793E0,-3.720211983E-1,3.736437162E0
1.630675704E1,-2.684727192E0,1.349514008E0,-3.176879883E-1,3.021568104E0
1.631668094E1,-1.870189071E0,9.129333496E-2,-2.502825260E-1,1.889069341E0
1.632682136E1,-1.611932635E0,2.293109894E-2,-1.519217491E-1,1.619238362E0
1.633667959E1,-1.881692410E-1,-9.376554489E-1,5.468387604E-1,1.101652411E0
1.634668141E1,1.357859373E0,-9.754533768E-1,6.127369404E-1,1.780656600E0
1.635668292E1,1.468514323E0,1.223030090E-1,6.685692072E-1,1.618170921E0
1.636668240E1,3.317496300E0,1.528282166E-1,6.619528532E-1,3.386343122E0
1.637671938E1,4.474611282E0,1.791041374E0,5.822750330E-1,4.854793461E0
1.638668110E1,5.585198402E0,3.578863144E0,4.483478069E-1,6.648587696E0
1.639668422E1,7.180533409E0,6.442078590E0,3.063833714E-1,9.651647910E0
1.640668344E1,7.173136711E0,7.162435532E0,2.888172865E-1,1.014089683E1
1.641668240E1,7.026710510E0,7.160512924E0,2.979217768E-1,1.003675064E1
1.642668891E1,6.762453079E0,7.034921646E0,3.393516541E-1,9.764018320E0
1.643668631E1,5.668932915E0,5.880430222E0,1.957859278E0,8.399373366E0
1.644668423E1,4.582564354E0,4.549017906E0,1.957486510E0,6.747237465E0
1.645668657E1,3.195379019E0,3.110431671E0,1.957418442E0,4.869981438E0
1.646668292E1,1.548331261E0,1.994264603E0,1.759348869E0,3.077292551E0
1.647672224E1,-4.346495494E-2,1.276865959E0,1.762774825E0,2.177073945E0
1.648680084E1,-1.436575770E0,1.191350937E0,1.767670155E0,2.570549508E0
1.649668266E1,-2.565651655E0,1.105751038E0,1.727270722E0,3.284618383E0
1.650685974E1,-3.489194632E0,1.008121490E0,1.689703703E0,4.005731733E0
1.651669777E1,-3.739907265E0,-2.293901443E-1,1.458884120E0,4.020928881E0
1.652668891E1,-4.631533623E0,-2.132472992E-1,1.437943101E0,4.854303088E0
1.653668839E1,-4.666078091E0,-1.988000870E-1,1.423156023E0,4.882333386E0
1.654668188E1,-4.602308273E0,-1.863250732E-1,1.413482428E0,4.818079602E0
1.655668240E1,-4.433670998E0,-1.755008698E-1,1.405915499E0,4.654550189E0
1.656668422E1,-3.591602087E0,-1.808808327E0,1.201182485E0,4.196931317E0
1.657672303E1,-2.541379213E0,-2.802134514E0,2.875924110E-3,3.782931986E0
