"Time (s)","Linear Acceleration x (m/s^2)","Linear Acceleration y (m/s^2)","Linear Acceleration z (m/s^2)","Absolute acceleration (m/s^2)"
8.757346000E-3,4.497587681E-1,2.259960175E-1,-2.633476257E-1,5.680749258E-1
1.378286700E-2,4.701886177E-1,8.199143410E-2,-2.023229599E-1,5.183960953E-1
1.880849200E-2,4.760751724E-1,-1.116120815E-1,-2.765522003E-1,5.617703677E-1
2.383422100E-2,2.963924408E-1,-6.962919235E-2,-9.535598755E-2,3.190446172E-1
2.886005500E-2,1.788949966E-1,-8.596897125E-3,8.809280396E-2,1.995937589E-1
3.388599200E-2,1.832575798E-1,8.448410034E-2,2.604379654E-1,3.294675061E-1
3.891198200E-2,3.545436859E-1,1.752395630E-1,2.848052979E-1,4.873645323E-1
4.393802300E-2,5.100862980E-1,1.828405857E-1,2.339191437E-1,5.902007090E-1
4.896406500E-2,2.747502327E-1,-3.922271729E-2,3.221035004E-1,4.251785235E-1
5.399010700E-2,3.087985516E-1,-2.309274673E-2,2.436389923E-1,3.940174856E-1
5.901604400E-2,5.939908028E-1,-3.125572205E-2,1.936302185E-1,6.255354950E-1
6.404156500E-2,8.060524464E-1,3.274202347E-3,1.336288452E-1,8.170605455E-1
6.906703400E-2,8.977243900E-1,9.070873260E-3,8.757209778E-2,9.020311710E-1
7.409250200E-2,8.030877113E-1,-3.740835190E-2,1.125345230E-1,8.117963265E-1
7.911797100E-2,5.277979374E-1,-8.849978447E-2,2.225046158E-1,5.795784491E-1
8.414344000E-2,2.524093390E-1,-1.444256306E-1,1.988363266E-1,3.522855687E-1
8.916890900E-2,5.081176758E-2,-2.147061825E-1,3.366184235E-2,2.231898299E-1
9.419437700E-2,-1.180160046E-1,-2.752225399E-1,-1.242532730E-1,3.242130467E-1
9.921984600E-2,-2.665015459E-1,-3.352217674E-1,-2.224121094E-1,4.825596893E-1
1.042453150E-1,-1.736626625E-1,-5.370359421E-1,-2.705984116E-1,6.259311654E-1
1.092707840E-1,-2.073539495E-1,-5.803823471E-1,-3.189373016E-2,6.171357543E-1
1.142962520E-1,-2.117929459E-1,-5.670154095E-1,1.253519058E-1,6.181228250E-1
1.193217210E-1,-3.042669296E-1,-5.215656757E-1,1.588897705E-1,6.243837584E-1
1.243471900E-1,-5.641463399E-1,-9.192259312E-1,6.014347076E-2,1.080210462E0
1.293726590E-1,-5.585740805E-1,-9.726727009E-1,-1.032781601E-1,1.126394054E0
1.343981270E-1,-3.967667818E-1,-7.566926479E-1,-1.735515594E-1,8.718530761E-1
1.394235960E-1,-2.773910761E-1,-5.114960670E-1,-1.224536896E-1,5.946166343E-1
1.444490650E-1,-2.304698229E-1,-2.333710194E-1,1.064662933E-1,3.448382861E-1
1.494745340E-1,-1.035430431E-1,2.014589310E-2,3.028526306E-1,3.206972633E-1
1.545000020E-1,-6.212592125E-2,1.641383171E-1,3.241920471E-1,3.686482072E-1
1.595254710E-1,-1.418827772E-1,2.146017551E-1,2.758970261E-1,3.772317653E-1
1.645509400E-1,-2.310966253E-1,1.636910439E-1,1.627912521E-1,3.266518022E-1
1.695764090E-1,-3.045998812E-1,3.697276115E-2,-4.835128784E-2,3.106218275E-1
1.746018770E-1,-3.616735935E-1,-6.888651848E-2,-3.049783707E-1,4.780846654E-1
1.796273460E-1,-4.141745567E-1,-1.303529739E-1,-4.680004120E-1,6.384017911E-1
1.846528150E-1,-4.636902809E-1,-1.608285904E-1,-5.308418274E-1,7.229575076E-1
1.896782840E-1,-4.956818819E-1,-2.081573009E-1,-4.075784683E-1,6.746482030E-1
1.947037520E-1,-2.617014647E-1,-1.292293072E-1,-4.760656357E-1,5.584141473E-1
1.997292210E-1,-2.021772861E-1,-5.358195305E-2,-4.968137741E-1,5.390460155E-1
2.047546900E-1,-3.263701200E-1,-5.331254005E-2,-4.984350204E-1,5.981614764E-1
2.097801590E-1,-3.334250450E-1,-2.477450371E-1,-7.391223907E-1,8.478512679E-1
2.148056270E-1,-2.343081236E-1,-4.874215126E-1,-1.008268356E0,1.144152571E0
2.198310960E-1,-3.622608185E-1,-3.418881893E-1,-3.448104858E-1,6.058173865E-1
2.248565650E-1,-4.604533911E-1,-9.418773651E-2,1.258239746E-1,4.865391327E-1
2.298820340E-1,-4.937026501E-1,9.264731407E-2,2.123470306E-1,5.453595996E-1
2.349075020E-1,-5.614993572E-1,2.276318073E-1,2.021923065E-1,6.387327271E-1
2.399329710E-1,-6.490478516E-1,3.772616386E-1,1.051197052E-1,7.580498730E-1
2.449584400E-1,-6.741507053E-1,5.651803017E-1,2.632808685E-2,8.801142625E-1
2.499839090E-1,-4.030432701E-1,6.339254379E-1,-6.464481354E-1,9.910603060E-1
2.550093770E-1,-1.486836672E-1,6.371459961E-1,-1.056429863E0,1.242620581E0
2.600348460E-1,-1.648652554E-2,6.328001022E-1,-1.046272278E0,1.222862811E0
2.650603150E-1,1.762628555E-2,6.162028313E-1,-7.839288712E-1,9.972768373E-1
2.700857840E-1,9.269988537E-2,5.346708298E-1,-5.710258484E-1,7.877415087E-1
2.751112520E-1,2.037314177E-1,4.359276295E-1,-3.739175797E-1,6.093880086E-1
2.801367210E-1,2.599656582E-1,2.911963463E-1,-2.834415436E-1,4.824070523E-1
2.851621900E-1,4.328910112E-1,9.105563164E-2,-4.667129517E-1,6.430448934E-1
2.901876590E-1,6.006094217E-1,-8.286929131E-2,-6.551914215E-1,8.926784392E-1
2.952131270E-1,3.949303627E-1,-1.445538998E-1,-1.840963364E-1,4.590830888E-1
3.002386480E-1,1.747534275E-1,-2.042884827E-1,-1.014766693E-1,2.873500635E-1
3.052641690E-1,-1.010378599E-1,-2.669835091E-1,1.007699966E-1,3.027266679E-1
3.102896900E-1,-3.051203489E-1,-2.855913639E-1,4.136257172E-1,5.880026262E-1
3.153152110E-1,-3.090870380E-1,-2.512235641E-1,6.316938400E-1,7.467832241E-1
3.203407320E-1,-4.095157385E-1,-2.219257355E-1,5.783424377E-1,7.425861212E-1
3.253662520E-1,-1.036307812E-1,-9.774017334E-2,5.457296371E-1,5.640153519E-1
3.303917730E-1,4.609928131E-1,1.252226830E-1,4.573459625E-1,6.613323094E-1
3.354172940E-1,9.508008957E-1,3.215806484E-1,3.945455551E-1,1.078472369E0
3.404428150E-1,1.429602861E0,4.858546257E-1,3.189296722E-1,1.543222341E0
3.454683360E-1,1.998675585E0,6.177530289E-1,1.586809158E-1,2.097975818E0
3.504938570E-1,2.371208906E0,6.503684521E-1,-8.139324188E-2,2.460129196E0
3.555193770E-1,2.628663063E0,6.558115482E-1,-3.199663162E-1,2.728064649E0
3.605448980E-1,2.756762266E0,5.480425358E-1,-4.374752045E-1,2.844551523E0
3.655704190E-1,2.784504414E0,3.892209530E-1,-5.488414764E-1,2.864643913E0
3.705959400E-1,2.667625427E0,2.127337456E-1,-7.588863373E-1,2.781616354E0
3.756214610E-1,2.379523039E0,8.854866028E-3,-8.849086761E-1,2.538753959E0
3.806469820E-1,2.041020870E0,-1.212506294E-1,-6.835584641E-1,2.155857157E0
3.856725020E-1,1.725871325E0,-2.607939243E-1,-8.467130661E-1,1.939991834E0
3.906980230E-1,1.406665325E0,-4.414906502E-1,-1.126245499E0,1.855276328E0
3.957235440E-1,1.262800455E0,-6.168568134E-1,-9.231462479E-1,1.681480393E0
4.007490650E-1,1.239937544E0,-6.726872921E-1,-8.653106689E-1,1.654906601E0
4.057745860E-1,1.063016415E0,-7.661194801E-1,-1.336213112E0,1.871472264E0
4.108001070E-1,6.485934258E-1,-9.252023697E-1,-1.770444393E0,2.100272888E0
4.158256270E-1,-3.734855652E-1,-1.493387461E0,-1.708583355E0,2.299772740E0
4.208511480E-1,-9.701850414E-1,-1.575186133E0,-1.572124481E0,2.427765589E0
4.258766690E-1,-1.315423369E0,-1.318910718E0,-1.671843052E0,2.502982883E0
4.309021900E-1,-1.497074604E0,-9.493930340E-1,-1.648440838E0,2.420730613E0
4.359277110E-1,-1.702963114E0,-5.336675644E-1,-1.626095295E0,2.414346774E0
4.409532320E-1,-1.957705498E0,-1.292889118E-1,-1.685837269E0,2.586768976E0
4.459787520E-1,-2.242539406E0,2.877905369E-1,-1.779629230E0,2.877305437E0
4.510042730E-1,-2.370784283E0,5.693547726E-1,-2.031805515E0,3.173801604E0
4.560297940E-1,-2.351788521E0,6.106376648E-1,-2.475823402E0,3.468931986E0
4.610553150E-1,-2.185372114E0,4.700856209E-1,-2.939583302E0,3.692963817E0
4.660808360E-1,-1.239519119E0,4.201674461E-1,-2.280172348E0,2.629093811E0
4.711063570E-1,6.565165520E-2,2.192282677E-1,-1.412140846E0,1.430563855E0
4.761318770E-1,1.255779266E0,9.005069733E-3,-1.033234596E0,1.626233805E0
4.811573980E-1,2.171213627E0,-2.927689552E-1,-9.410982132E-1,2.384438743E0
4.861829190E-1,2.672393322E0,-7.672487497E-1,-6.902627945E-1,2.864754691E0
4.912084400E-1,3.542973518E0,-1.436341643E0,2.187101364E0,4.404446735E0
4.962339610E-1,3.701458931E0,-1.766805649E0,2.110004425E0,4.612430931E0
5.012594820E-1,3.446169376E0,-1.783174634E0,9.598283768E-1,3.997132179E0
5.062850020E-1,3.467794180E0,-1.726204276E0,1.318720818E0,4.091992457E0
5.113105230E-1,3.036450386E0,-1.655454993E0,1.933423996E0,3.962157308E0
5.163360440E-1,2.504606724E0,-1.578330994E0,2.178618431E0,3.675671617E0
5.213615650E-1,2.149069786E0,-1.582574487E0,2.050805092E0,3.365834885E0
5.263870860E-1,1.801989317E0,-1.567509532E0,1.617624283E0,2.884607417E0
5.314126070E-1,1.375040054E0,-1.522357106E0,1.071169853E0,2.314240948E0
5.364381270E-1,9.550844431E-1,-1.503279805E0,5.031757355E-1,1.850735607E0
5.414636480E-1,5.809586048E-1,-1.490265489E0,6.258583069E-2,1.600725184E0
5.464891690E-1,3.312668800E-1,-1.497527719E0,-3.317174911E-1,1.569191992E0
5.515146900E-1,1.657228470E-1,-1.558852911E0,-7.800178528E-1,1.750975246E0
5.565402110E-1,5.379223824E-2,-1.583263874E0,-1.191360474E0,1.982159902E0
5.615657320E-1,1.475195885E-1,-1.456115127E0,-1.412869453E0,2.034264826E0
5.665912520E-1,3.546888828E-1,-1.245033503E0,-1.607387543E0,2.063881619E0
5.716167730E-1,6.069875956E-1,-1.017788172E0,-1.731840134E0,2.098474911E0
5.766422940E-1,8.650556803E-1,-8.804126978E-1,-1.824497223E0,2.202779600E0
5.816678150E-1,1.051890492E0,-8.145461082E-1,-1.765786171E0,2.210873079E0
5.866932840E-1,1.191581845E0,-9.166649580E-1,-1.656281471E0,2.236830403E0
5.917187520E-1,1.250029325E0,-1.158303738E0,-1.744621277E0,2.438840762E0
5.967442210E-1,1.255075336E0,-1.395526767E0,-1.901365280E0,2.671684671E0
6.017696900E-1,1.230173707E0,-1.551296234E0,-2.054651260E0,2.853320725E0
6.067951590E-1,1.228429079E0,-1.663273931E0,-2.166268826E0,2.994701787E0
6.118206270E-1,1.355926633E0,-1.587246418E0,-2.475453854E0,3.238172325E0
6.168460960E-1,1.763434768E0,-1.322385073E0,-3.000686646E0,3.723241169E0
6.218715650E-1,1.773369193E0,-1.227232814E0,-2.766042709E0,3.507410860E0
6.268970340E-1,1.624116063E0,-1.163265586E0,-2.676436424E0,3.339798159E0
6.319225020E-1,1.384145737E0,-1.154096365E0,-2.846371651E0,3.368921105E0
6.369479710E-1,1.035876513E0,-1.290044665E0,-2.802078247E0,3.254058680E0
6.419734400E-1,7.256653309E-1,-1.508278489E0,-2.505924225E0,3.013494714E0
6.469989090E-1,4.230551720E-1,-1.970778465E0,-2.508795738E0,3.218229248E0
6.520243770E-1,1.015387774E0,-3.090341091E0,-4.021553516E0,5.172437827E0
6.570498460E-1,9.941740036E-1,-3.013952971E0,-3.619496346E0,4.813839243E0
6.620753150E-1,4.084651470E-1,-2.709573507E0,-3.811225414E0,4.694046392E0
6.671007840E-1,-5.797338486E-2,-2.397208691E0,-4.141715050E0,4.785788751E0
6.721262520E-1,-2.993583679E-1,-2.147891045E0,-4.381822586E0,4.889112450E0
6.771517210E-1,-4.872210026E-1,-2.065656185E0,-4.723753452E0,5.178625924E0
6.821771900E-1,-6.313047409E-1,-2.067835808E0,-5.172670364E0,5.606336531E0
6.872026590E-1,-7.321166992E-1,-2.029240370E0,-5.494357109E0,5.902691876E0
6.922281270E-1,-8.658010960E-1,-2.011531830E0,-5.632062912E0,6.042847382E0
6.972535960E-1,-1.074838400E0,-2.028423071E0,-5.744350910E0,6.186060549E0
7.022790650E-1,-1.316200018E0,-2.112641811E0,-5.903275013E0,6.406582068E0
7.073045340E-1,-1.514253020E0,-2.220299721E0,-5.879154682E0,6.464298325E0
7.123300020E-1,-1.475725651E0,-2.241132975E0,-5.967710495E0,6.543241686E0
7.173554710E-1,-1.203728199E0,-2.204086781E0,-5.741883755E0,6.267071818E0
7.223809400E-1,-8.290033340E-1,-2.177273750E0,-5.263199806E0,5.755783154E0
7.274064090E-1,-3.951065540E-1,-2.229078293E0,-4.736844063E0,5.250008657E0
7.324318770E-1,-3.128719330E-2,-2.313107491E0,-4.104839325E0,4.711809741E0
7.374573460E-1,2.241799831E-1,-2.469289780E0,-3.514900684E0,4.301415523E0
7.424828150E-1,1.887772083E-1,-2.879783630E0,-3.085787773E0,4.225029796E0
7.475082840E-1,3.797690868E-1,-2.927947521E0,-2.358005047E0,3.778530011E0
7.525337520E-1,5.548672676E-1,-2.831137180E0,-1.585753918E0,3.292086102E0
7.575592210E-1,6.439533234E-1,-2.677772522E0,-8.698120117E-1,2.888202641E0
7.625846900E-1,6.335873604E-1,-2.493513584E0,-3.202457428E-1,2.592604920E0
7.676101590E-1,6.194434166E-1,-2.375237942E0,2.502822876E-2,2.454809939E0
7.726356270E-1,5.299143791E-1,-2.227913857E0,4.244279861E-1,2.329066018E0
7.776610960E-1,3.271079063E-1,-2.042654991E0,7.820320129E-1,2.211563489E0
7.826865650E-1,1.193523407E-3,-1.972380996E0,9.735803604E-1,2.199578809E0
7.877120860E-1,-3.433084488E-1,-2.073379517E0,1.066453934E0,2.356711120E0
7.927376070E-1,-8.362741470E-1,-2.138676167E0,1.395783424E0,2.687285166E0
7.977631270E-1,-1.210024595E0,-2.167547226E0,1.650501251E0,2.981035873E0
8.027886480E-1,-1.215686083E0,-2.288369179E0,1.725219727E0,3.113022527E0
8.078141690E-1,-1.077851295E0,-2.414827108E0,1.772820473E0,3.183715723E0
8.128396900E-1,-1.016437531E0,-2.518255949E0,1.845794678E0,3.283552386E0
8.178652110E-1,-1.093456268E0,-2.579632282E0,1.948851585E0,3.412941814E0
8.228907320E-1,-1.265198231E0,-2.536758184E0,2.052918911E0,3.500049243E0
8.279162520E-1,-1.454422951E0,-2.413503885E0,2.195806026E0,3.572381731E0
8.329417730E-1,-1.603420973E0,-2.257582188E0,2.252851963E0,3.569730819E0
8.379672940E-1,-1.726587534E0,-2.111617565E0,2.281467438E0,3.555998724E0
8.429928150E-1,-1.800354242E0,-2.013444901E0,2.243581772E0,3.511252616E0
8.480183360E-1,-1.863590002E0,-1.952881575E0,2.072676182E0,3.403336700E0
8.530438570E-1,-1.883805752E0,-1.886105061E0,1.879627228E0,3.261765615E0
8.580693770E-1,-1.852312088E0,-1.759901047E0,1.736881256E0,3.089509389E0
8.630948980E-1,-1.310692310E0,-1.903705359E0,1.080662251E0,2.551438677E0
8.681204190E-1,-1.158883095E0,-1.690384150E0,1.571475506E0,2.582623446E0
8.731459400E-1,-1.477443695E0,-1.078302264E0,2.246616364E0,2.897043446E0
8.781714610E-1,-1.323782921E0,-7.236812115E-1,2.651798248E0,3.050926034E0
8.831969820E-1,-8.653769493E-1,-6.838853955E-1,2.772767544E0,2.984093891E0
8.882225020E-1,-3.603806496E-1,-7.819483876E-1,2.910922527E0,3.035586838E0
8.932480230E-1,8.200359344E-2,-8.459601402E-1,3.099092960E0,3.213526151E0
8.982735440E-1,3.337206841E-1,-8.381845951E-1,3.417675495E0,3.534745917E0
9.032990650E-1,4.728636742E-1,-8.211574554E-1,3.726566792E0,3.845152750E0
9.083245860E-1,5.820856094E-1,-7.327377200E-1,4.000627995E0,4.108619303E0
9.133501070E-1,6.910977364E-1,-6.304896474E-1,4.243558884E0,4.345448800E0
9.183756270E-1,8.149700165E-1,-5.622189045E-1,4.449669838E0,4.558489650E0
9.234011480E-1,9.826049805E-1,-5.279836655E-1,4.608930588E0,4.741995409E0
9.284266690E-1,1.203766823E0,-4.704805613E-1,4.739972591E0,4.913018084E0
9.334521900E-1,1.435414791E0,-3.852259517E-1,4.828087807E0,5.051657800E0
9.384777110E-1,1.543556213E0,-3.490436077E-1,4.796561241E0,5.050880811E0
9.435032320E-1,1.600214958E0,-3.092120886E-1,4.716871262E0,4.990508444E0
9.485287520E-1,1.634119511E0,-2.512977123E-1,4.655827999E0,4.940671156E0
9.535542730E-1,1.678692818E0,-1.608800888E-1,4.575031281E0,4.875941263E0
9.585797940E-1,1.685863972E0,-5.702853203E-2,4.431543350E0,4.741726062E0
9.636053150E-1,1.707919121E0,4.580104351E-2,4.249583721E0,4.580179829E0
9.686308360E-1,1.739669800E0,1.381723881E-1,4.034309387E0,4.395588112E0
9.736563570E-1,1.742245197E0,2.294064760E-1,3.805399895E0,4.191552698E0
9.786818770E-1,1.695751667E0,2.955812216E-1,3.554117203E0,3.949011404E0
9.837073980E-1,1.604470730E0,3.703356981E-1,3.357613564E0,3.739658232E0
9.887329190E-1,1.487136841E0,4.441224337E-1,3.158901215E0,3.519584862E0
9.937584400E-1,1.400951862E0,4.978694916E-1,2.929515839E0,3.285209765E0
9.987839610E-1,1.345481396E0,5.459173918E-1,2.679470062E0,3.047606569E0
1.003809482E0,1.315604210E0,5.978158712E-1,2.495179653E0,2.883421536E0
1.008835002E0,1.301256180E0,6.152430773E-1,2.353137016E0,2.758449838E0
1.013860523E0,1.249239445E0,6.363728046E-1,2.201252937E0,2.609805363E0
1.018886044E0,1.173379898E0,6.229524612E-1,2.001894474E0,2.402596853E0
1.023911565E0,1.091952801E0,5.656379461E-1,1.870911598E0,2.238887539E0
1.028937086E0,1.004183292E0,5.029542446E-1,1.914347649E0,2.219476059E0
1.033962607E0,9.048600197E-1,4.157801867E-1,2.089412212E0,2.314581649E0
1.038988127E0,7.987999916E-1,2.801389694E-1,2.266747475E0,2.419649434E0
1.044013648E0,7.388887405E-1,1.629116535E-1,2.441208839E0,2.555777255E0
1.049039169E0,7.156367302E-1,7.829070091E-2,2.607810020E0,2.705353667E0
1.054064690E0,7.144117355E-1,7.374024391E-2,2.824084282E0,2.913979029E0
1.059090211E0,7.012963295E-1,1.247282028E-1,3.042387009E0,3.124658762E0
1.064115732E0,6.136989594E-1,1.637907028E-1,3.210404873E0,3.272637049E0
1.069141252E0,4.992742538E-1,1.573791504E-1,3.342792988E0,3.383534829E0
1.074166773E0,3.962497711E-1,1.293110847E-1,3.458735466E0,3.483760362E0
1.079192294E0,2.855410576E-1,7.474946976E-2,3.534243584E0,3.546547460E0
1.084217815E0,1.912927628E-1,3.686881065E-2,3.602643490E0,3.607906920E0
1.089243336E0,1.425728798E-1,5.892014503E-2,3.668390274E0,3.671632581E0
1.094268857E0,1.924247742E-1,1.456749439E-1,3.764438629E0,3.772167371E0
1.099294377E0,3.556013107E-1,2.442181110E-1,3.866123676E0,3.890116587E0
1.104319898E0,5.703549385E-1,3.017294407E-1,3.910500526E0,3.963377320E0
1.109345419E0,7.702493668E-1,3.323540688E-1,3.896798134E0,3.986073132E0
1.114370888E0,9.462361336E-1,3.410682678E-1,3.800609112E0,3.931452658E0
1.119396357E0,1.070007801E0,3.712341785E-1,3.626472473E0,3.799214933E0
1.124421825E0,1.204070568E0,4.473240376E-1,3.522636890E0,3.749514020E0
1.129447294E0,1.315491676E0,5.075252056E-1,3.493251801E0,3.767082203E0
1.134472763E0,1.395454407E0,5.378987789E-1,3.480062008E0,3.787804071E0
1.139498232E0,1.416149139E0,5.531928539E-1,3.534692287E0,3.847798109E0
1.144523700E0,1.478385925E0,5.058369637E-1,3.608886242E0,3.932627097E0
1.149549169E0,1.615242958E0,3.482944965E-1,3.617016315E0,3.976572129E0
1.154574638E0,1.630393028E0,2.481410503E-1,3.693251610E0,4.044732730E0
1.159600107E0,1.496406555E0,2.860414982E-1,3.797498703E0,4.091704867E0
1.164625575E0,1.315114498E0,3.799166679E-1,3.693493366E0,3.939004451E0
1.169651044E0,1.220768929E0,4.528739452E-1,3.438368320E0,3.676649058E0
1.174676513E0,1.155282021E0,4.764094353E-1,3.143195152E0,3.382501776E0
1.179701982E0,1.050946712E0,4.366421700E-1,2.904870033E0,3.119842189E0
1.184727450E0,9.407095909E-1,3.866264820E-1,2.733890057E0,2.916945219E0
1.189752919E0,8.431444168E-1,3.838870525E-1,2.621471405E0,2.780355032E0
1.194778388E0,7.815403938E-1,4.045388699E-1,2.482339859E0,2.633717574E0
1.199803857E0,7.693147659E-1,4.101486206E-1,2.279356480E0,2.440396087E0
1.204829325E0,7.862739563E-1,3.961462975E-1,2.080913544E0,2.259504326E0
1.209854794E0,7.836594582E-1,4.295179844E-1,1.988529682E0,2.180105076E0
1.214880263E0,7.373819351E-1,4.910380840E-1,2.002279282E0,2.189514293E0
1.219905732E0,6.525740623E-1,5.709686279E-1,2.002031326E0,2.181739561E0
1.224931200E0,5.585074425E-1,6.262042522E-1,1.977593422E0,2.148240692E0
1.229956669E0,4.561738968E-1,6.614933014E-1,1.865668774E0,2.031351271E0
1.234982138E0,3.609008789E-1,7.056977749E-1,1.670152187E0,1.848693356E0
1.240007607E0,2.304320335E-1,7.637360096E-1,1.509953499E0,1.707732761E0
1.245033075E0,4.138755798E-2,8.213088512E-1,1.265059948E0,1.508853151E0
1.250058544E0,-1.349406242E-1,7.688753605E-1,1.027359962E0,1.290289419E0
1.255084013E0,-2.278151512E-1,6.883764267E-1,9.847674370E-1,1.222918130E0
1.260109482E0,-2.762346268E-1,6.274838448E-1,1.128133774E0,1.320123993E0
1.265134950E0,-3.427557945E-1,5.857393742E-1,1.261342049E0,1.432325352E0
1.270160419E0,-3.941693306E-1,5.339763165E-1,1.317583561E0,1.475305598E0
1.275185888E0,-4.166436195E-1,5.004956722E-1,1.316436768E0,1.468704731E0
1.280211357E0,-4.108204842E-1,4.704055786E-1,1.272709846E0,1.417690104E0
1.285236825E0,-4.203476906E-1,4.671578407E-1,1.220290661E0,1.372602610E0
1.290262294E0,-4.410748482E-1,4.568531513E-1,1.169199467E0,1.330522159E0
1.295287763E0,-4.879717827E-1,4.726569653E-1,1.062481403E0,1.261105785E0
1.300313232E0,-5.473508835E-1,4.905118942E-1,9.485917091E-1,1.200008808E0
1.305338752E0,-5.910606384E-1,5.343248844E-1,8.184323311E-1,1.142229067E0
1.310364273E0,-5.910282135E-1,5.942919254E-1,6.628656387E-1,1.068591642E0
1.315389794E0,-5.191235542E-1,6.653392315E-1,5.013446808E-1,9.815864946E-1
1.320415315E0,-4.430418015E-1,6.946899891E-1,3.391389847E-1,8.910081199E-1
1.325440836E0,-4.110403061E-1,7.206523418E-1,1.765909195E-1,8.482206575E-1
1.330466357E0,-3.516387939E-1,6.911151409E-1,4.581451416E-3,7.754424344E-1
1.335491877E0,-1.743431091E-1,6.448087692E-1,-8.078145981E-2,6.728294827E-1
1.340517398E0,3.461647034E-2,6.581213474E-1,-4.139709473E-2,6.603300140E-1
1.345542919E0,9.493398666E-2,7.547975779E-1,-5.092191696E-2,7.624466453E-1
1.350568440E0,6.585884094E-2,8.395178318E-1,-2.110457420E-1,8.681404737E-1
1.355593961E0,-1.302433014E-2,8.319375515E-1,-4.744787216E-1,9.578203276E-1
1.360619482E0,-8.773517609E-2,7.670514584E-1,-7.700428963E-1,1.090427193E0
1.365645002E0,-1.665110588E-1,7.034766674E-1,-1.045928955E0,1.271445136E0
1.370670523E0,-2.143535614E-1,6.708920002E-1,-1.312834740E0,1.489825016E0
1.375696044E0,-2.347245216E-1,6.606163979E-1,-1.567005634E0,1.716687591E0
1.380721565E0,-2.262992859E-1,5.920319557E-1,-1.666089535E0,1.782573292E0
1.385747086E0,-2.260866165E-1,5.469985008E-1,-1.597039700E0,1.703190629E0
1.390772607E0,-3.190441132E-1,5.351376534E-1,-1.552412987E0,1.672766432E0
1.395798127E0,-5.426664352E-1,5.614641905E-1,-1.566166401E0,1.750030312E0
1.400823648E0,-8.484988213E-1,6.264578104E-1,-1.662346363E0,1.968703906E0
1.405849169E0,-9.879674911E-1,6.399222612E-1,-1.859451771E0,2.200713782E0
1.410874690E0,-7.951030731E-1,6.122597456E-1,-1.806766987E0,2.066750550E0
1.415900211E0,-5.824084282E-1,6.005188227E-1,-1.527381897E0,1.741470038E0
1.420925732E0,-4.798736572E-1,5.847522020E-1,-1.150050163E0,1.376527967E0
1.425951252E0,-3.446416855E-1,4.443113804E-1,-9.613633156E-1,1.113736916E0
1.430976773E0,-2.348256111E-1,3.365398645E-1,-8.122925758E-1,9.100666881E-1
1.436002294E0,-9.850311279E-2,3.281095028E-1,-6.017055511E-1,6.923931537E-1
1.441027815E0,6.848573685E-2,3.705993891E-1,-3.244504929E-1,4.972950087E-1
1.446053336E0,3.082737923E-1,4.200149775E-1,9.642505646E-2,5.298519640E-1
1.451078857E0,5.669541359E-1,4.413973093E-1,5.034790039E-1,8.773594954E-1
1.456104377E0,7.141127586E-1,4.667276144E-1,8.446321487E-1,1.200497882E0
1.461129898E0,8.155784607E-1,5.281049013E-1,1.173056602E0,1.523195590E0
1.466155419E0,9.417710304E-1,5.955137014E-1,1.436699867E0,1.818151740E0
1.471180940E0,1.096157551E0,6.105211973E-1,1.698306084E0,2.111525766E0
1.476206461E0,1.268271446E0,6.151221991E-1,1.962783337E0,2.416486335E0
1.481231982E0,1.405025005E0,5.558501482E-1,2.110471249E0,2.595602732E0
1.486257502E0,1.477544785E0,5.232020617E-1,2.141401291E0,2.653766847E0
1.491283023E0,1.462245941E0,4.932792187E-1,1.945462704E0,2.483206136E0
1.496308544E0,1.349943161E0,5.000902414E-1,1.628064156E0,2.173253249E0
1.501334065E0,1.107787132E0,5.350793600E-1,1.289722443E0,1.782382179E0
1.506359586E0,8.126635551E-1,6.138513088E-1,9.833068848E-1,1.415672248E0
1.511385107E0,4.552907944E-1,7.230416536E-1,9.050197601E-1,1.244644410E0
1.516410627E0,4.576458931E-1,6.195825338E-1,6.284651756E-1,9.941281390E-1
1.521436148E0,6.095671654E-1,5.246100426E-1,4.071202278E-1,9.014070700E-1
1.526461669E0,8.346166611E-1,4.004858732E-1,2.265696526E-1,9.530517893E-1
1.531487190E0,1.056492329E0,3.001257181E-1,2.253270149E-1,1.121170705E0
1.536512711E0,1.161740780E0,2.090334892E-1,2.443861961E-1,1.205429903E0
1.541538232E0,9.941267967E-1,1.945359707E-1,2.445454597E-1,1.042081961E0
1.546563752E0,9.420933723E-1,9.465599060E-2,9.158802032E-2,9.512560351E-1
1.551589273E0,8.371429443E-1,1.110315323E-1,3.317608833E-1,9.073045763E-1
1.556614794E0,4.046802521E-1,1.813454628E-1,4.891324043E-1,6.602293482E-1
1.561640315E0,2.124218941E-1,8.156716824E-2,1.840167046E-1,2.926404134E-1
1.566665836E0,-1.636137962E-1,3.869472742E-1,5.667734146E-2,4.239221489E-1
1.571691357E0,-5.386395454E-1,6.819782257E-1,-4.887104034E-3,8.690516349E-1
1.576716877E0,-2.968268394E-1,4.698225260E-1,-2.054429054E-1,5.924914902E-1
1.581742398E0,2.418770790E-1,2.341747284E-2,-1.310133934E-1,2.760750055E-1
1.586767919E0,5.404667854E-1,-1.844882965E-1,5.597782135E-2,5.738238355E-1
1.591793440E0,5.992240906E-1,-7.187247276E-3,3.216953278E-1,6.801536967E-1
1.596818961E0,6.140170097E-1,2.334263325E-1,5.801529884E-1,8.764030071E-1
1.601844482E0,7.031207085E-1,3.114632368E-1,6.934237480E-1,1.035482773E0
1.606870002E0,8.215355873E-1,3.361731768E-1,7.201681137E-1,1.143055221E0
1.611895523E0,8.717927933E-1,3.689393997E-1,8.001885414E-1,1.239532435E0
1.616921044E0,8.336105347E-1,4.330439568E-1,9.292869568E-1,1.321365899E0
1.621946565E0,7.922925949E-1,4.801361561E-1,9.739246368E-1,1.344167952E0
1.626972086E0,7.805671692E-1,5.098294020E-1,9.488983154E-1,1.330270325E0
1.631997607E0,6.497888565E-1,5.412646532E-1,8.975086212E-1,1.233172619E0
1.637023127E0,4.623756409E-1,5.221260786E-1,9.727840424E-1,1.196961014E0
1.642048648E0,9.364790916E-1,1.085306406E-1,5.237541199E-1,1.078466674E0
1.647074169E0,1.177826881E0,-6.718933582E-2,2.058162689E-1,1.197560398E0
1.652099690E0,8.289580345E-1,1.386457682E-1,3.387384415E-1,9.061665431E-1
1.657125211E0,5.895376205E-1,2.140886784E-1,3.955106735E-1,7.414966359E-1
1.662150732E0,5.265655518E-1,1.739010811E-1,2.566051483E-1,6.110311518E-1
1.667176252E0,5.155425072E-1,1.239979267E-1,3.639221191E-3,5.302573021E-1
1.672201773E0,4.370989799E-1,9.365296364E-2,-2.150421143E-1,4.960539353E-1
1.677227294E0,2.917308807E-1,7.375180721E-2,-3.422622681E-1,4.557298498E-1
1.682252815E0,1.421594620E-1,6.465399265E-2,-4.309644699E-1,4.583882914E-1
1.687278336E0,3.163290024E-2,5.706572533E-2,-5.147542953E-1,5.188729343E-1
1.692303857E0,-2.027025223E-1,2.089302540E-1,-4.452457428E-1,5.319623436E-1
1.697329325E0,-3.890485764E-1,2.806559801E-1,-2.175884247E-1,5.267554428E-1
1.702354794E0,1.847329140E-1,-1.057733297E-1,-6.783084869E-1,7.109266138E-1
1.707380263E0,4.416079521E-1,-1.462792158E-1,-8.843870163E-1,9.992775325E-1
1.712405732E0,1.718940735E-1,1.966054440E-1,-5.399131775E-1,5.997562107E-1
1.717431200E0,1.940803528E-1,3.288072348E-1,-4.252367020E-1,5.714959612E-1
1.722456669E0,3.491473198E-1,4.031205177E-1,-4.105367661E-1,6.730159278E-1
1.727482138E0,4.359011650E-1,4.579039812E-1,-3.903789520E-1,7.430219430E-1
1.732507607E0,4.599285126E-1,4.167540073E-1,-4.082231522E-1,7.428756836E-1
1.737533075E0,3.936915398E-1,3.902593851E-1,-4.454469681E-1,7.111388173E-1
1.742558544E0,2.479090691E-1,3.742333651E-1,-4.929704666E-1,6.667303795E-1
1.747584013E0,1.191720963E-1,3.356344700E-1,-5.846710205E-1,6.846113410E-1
1.752609482E0,2.992153168E-3,2.798384428E-1,-6.440563202E-1,7.022300553E-1
1.757634950E0,-1.338620186E-1,2.361217737E-1,-6.377391815E-1,6.930972484E-1
1.762660419E0,-2.051267624E-1,1.901354790E-1,-5.515193939E-1,6.183867163E-1
1.767685888E0,-2.585287094E-1,1.560490131E-1,-4.621152878E-1,5.520316361E-1
1.772711357E0,-3.375697136E-1,1.383183002E-1,-4.218988419E-1,5.577489547E-1
1.777736825E0,-4.095721245E-1,1.317851543E-1,-3.873233795E-1,5.789093646E-1
1.782762294E0,-4.659667015E-1,1.551094055E-1,-3.004865646E-1,5.757395853E-1
1.787787763E0,-4.979739189E-1,1.790529490E-1,-2.137012482E-1,5.707067600E-1
1.792813232E0,-4.680290222E-1,1.982692480E-1,-1.697301865E-1,5.358826332E-1
1.797838700E0,-4.291529655E-1,2.026035786E-1,-8.235168457E-2,4.816661477E-1
1.802864169E0,-3.913044930E-1,1.868689060E-1,2.459907532E-2,4.343320259E-1
1.807889638E0,-3.885674477E-1,1.745562553E-1,1.513338089E-1,4.520580376E-1
1.812915107E0,-4.260997772E-1,1.938407421E-1,3.122997284E-1,5.627311737E-1
1.817940575E0,-4.987969398E-1,1.870756149E-1,4.498710632E-1,6.972658363E-1
1.822966044E0,-4.863481522E-1,1.254690886E-1,4.584655762E-1,6.800497789E-1
1.827991513E0,-4.508008957E-1,5.729377270E-2,3.381767273E-1,5.664516951E-1
1.833016982E0,-5.882797241E-1,1.186633110E-2,2.709932327E-1,6.478048902E-1
1.838042450E0,-8.074009418E-1,-3.429973125E-2,3.189296722E-1,8.687858702E-1
1.843067919E0,-8.928136826E-1,-5.240535736E-2,3.622741699E-1,9.649379086E-1
1.848093388E0,-9.403162003E-1,-6.631934643E-2,3.197317123E-1,9.954000101E-1
1.853118857E0,-9.505414963E-1,-5.681395531E-2,2.299671173E-1,9.796131056E-1
1.858144325E0,-1.062523603E0,-7.641935349E-2,1.792764664E-1,1.080248294E0
1.863169794E0,-1.204983950E0,-1.299161911E-1,2.204856873E-1,1.231859762E0
1.868195263E0,-1.220516205E0,-1.457011700E-1,2.723579407E-1,1.258994633E0
1.873220784E0,-1.142865419E0,-1.286106110E-1,2.057895660E-1,1.168345583E0
1.878246305E0,-1.048573256E0,-9.305465221E-2,7.347869873E-2,1.055255495E0
1.883271825E0,-1.095493555E0,-7.721424103E-2,-6.709671021E-2,1.100259123E0
1.888297346E0,-1.259584427E0,-1.142512560E-1,-2.254409790E-1,1.284690590E0
1.893322867E0,-1.282371521E0,-1.843883991E-1,-3.536825180E-1,1.342969517E0
1.898348388E0,-1.316954613E0,-2.202320099E-1,-3.610086441E-1,1.383184309E0
1.903373909E0,-1.367350101E0,-2.691403627E-1,-3.435230255E-1,1.435301677E0
1.908399430E0,-1.342245102E0,-2.495604157E-1,-3.588285446E-1,1.411616180E0
1.913424950E0,-1.232141495E0,-1.471517086E-1,-4.164619446E-1,1.308918194E0
1.918450471E0,-1.013057947E0,-3.380465508E-2,-3.921222687E-1,1.086825208E0
1.923475992E0,-6.272003651E-1,7.583642006E-2,-3.627223969E-1,7.284909044E-1
1.928501513E0,-2.990703583E-1,2.052425146E-1,-3.237657547E-1,4.862014325E-1
1.933527034E0,-2.822971344E-2,3.350154161E-1,-2.706861496E-1,4.316285873E-1
1.938552555E0,2.956418991E-1,4.267479181E-1,-2.849369049E-1,5.922051654E-1
1.943578075E0,4.869112968E-1,4.712093174E-1,-2.999000549E-1,7.409864201E-1
1.948603596E0,5.946016312E-1,5.071777701E-1,-3.399314880E-1,8.522521967E-1
1.953629117E0,7.298002243E-1,5.496805906E-1,-3.719177246E-1,9.864481299E-1
1.958654638E0,8.307704926E-1,5.989826918E-1,-3.864908218E-1,1.094684901E0
1.963680159E0,1.007629871E0,6.456049681E-1,-3.358573914E-1,1.242949685E0
1.968705680E0,1.221919537E0,7.467336059E-1,-1.817913055E-1,1.443518795E0
1.973731200E0,1.397245407E0,8.442912102E-1,-5.832672119E-3,1.632530672E0
1.978756721E0,1.542957783E0,8.708111048E-1,9.644889832E-2,1.774354274E0
1.983782242E0,1.629731178E0,9.022892118E-1,1.493453979E-1,1.868810740E0
1.988807763E0,1.613569736E0,9.047217369E-1,1.916265488E-1,1.859798228E0
1.993833284E0,1.550917864E0,9.016756415E-1,1.424770355E-1,1.799629098E0
1.998858805E0,1.460041285E0,8.691164851E-1,2.155113220E-2,1.699278808E0
2.003884325E0,1.344838142E0,8.310458064E-1,-7.499885559E-2,1.582672294E0
2.008909846E0,1.223918915E0,7.969684601E-1,-1.278486252E-1,1.466111015E0
2.013935367E0,1.101565123E0,7.429233193E-1,-1.894617081E-1,1.342116432E0
2.018960888E0,9.581086636E-1,6.834591627E-1,-2.643804550E-1,1.206227865E0
2.023986409E0,8.601691723E-1,6.136449575E-1,-2.807397842E-1,1.093282198E0
2.029011930E0,7.834157944E-1,5.429939032E-1,-2.576236725E-1,9.873969021E-1
2.034037450E0,7.467625141E-1,4.807794988E-1,-1.567974091E-1,9.018805943E-1
2.039062971E0,7.547481060E-1,4.266762435E-1,-5.007076263E-2,8.684494237E-1
2.044088492E0,7.453749180E-1,3.995910585E-1,-1.888656616E-2,8.459394096E-1
2.049114013E0,7.097206116E-1,3.947543800E-1,-9.210872650E-2,8.173239165E-1
2.054139534E0,6.290290356E-1,3.359741569E-1,-2.601528168E-1,7.591018705E-1
2.059165055E0,5.132892132E-1,2.623381019E-1,-4.608097076E-1,7.379923324E-1
2.064190575E0,3.632531166E-1,1.841627359E-1,-5.651359558E-1,6.965970059E-1
2.069216096E0,2.274529934E-1,1.260222793E-1,-6.260690689E-1,6.779225311E-1
2.074241617E0,1.351528168E-1,7.398808002E-2,-6.964721680E-1,7.133119939E-1
2.079267138E0,8.209490776E-2,4.266119003E-2,-7.765455246E-1,7.820374050E-1
2.084292659E0,1.578855515E-2,2.762031555E-2,-7.706613541E-1,7.713177574E-1
2.089318180E0,2.229189873E-2,1.448971033E-2,-6.167383194E-1,6.173111331E-1
2.094343700E0,7.769703865E-2,-2.044558525E-3,-3.772153854E-1,3.851395293E-1
2.099369221E0,8.623385429E-2,1.250147820E-3,-1.765785217E-1,1.965141594E-1
2.104394742E0,4.760742188E-2,-4.326039553E-2,-5.773258209E-2,8.643482790E-2
2.109420263E0,-2.884697914E-2,-9.749877453E-2,3.212451935E-2,1.066308773E-1
2.114445784E0,-1.527731419E-1,-1.568374634E-1,1.217613220E-1,2.505263306E-1
2.119471305E0,-3.334088326E-1,-2.356513739E-1,1.441192627E-1,4.329704164E-1
2.124496825E0,-3.700449467E-1,-2.811893225E-1,1.759023666E-1,4.969329333E-1
2.129522346E0,-3.494770527E-1,-2.842716575E-1,2.411870956E-1,5.109949126E-1
2.134547867E0,-3.677568436E-1,-2.977198958E-1,2.922220230E-1,5.561258339E-1
2.139573388E0,-3.773126602E-1,-3.075073957E-1,3.147583008E-1,5.796537155E-1
2.144598909E0,-3.353753090E-1,-3.041534424E-1,2.897949219E-1,5.375565190E-1
2.149624430E0,-2.370607853E-1,-2.830556631E-1,2.125263214E-1,4.260114572E-1
2.154649950E0,-1.349804401E-1,-1.963009238E-1,8.778572083E-2,2.538899460E-1
2.159675471E0,-1.203064919E-1,-1.345844269E-1,-6.510448456E-2,1.918989678E-1
2.164700992E0,-1.116797924E-1,-1.022205353E-1,-2.364892960E-1,2.807999305E-1
2.169726513E0,-1.662402153E-1,-9.868645668E-2,-4.455280304E-1,4.856645466E-1
2.174752034E0,-1.445512772E-1,-7.076179981E-2,-6.349906921E-1,6.550690675E-1
2.179777555E0,-3.236126900E-2,-3.496766090E-3,-7.570314407E-1,7.577308766E-1
2.184803075E0,-3.060483932E-2,4.104781151E-2,-7.878274918E-1,7.894895413E-1
2.189828596E0,-3.412175179E-2,3.427320719E-2,-7.991571426E-1,8.006191887E-1
2.194854117E0,-5.865097046E-5,1.933491230E-2,-7.718458176E-1,7.720879538E-1
2.199879638E0,3.317284584E-2,2.007114887E-2,-7.106933594E-1,7.117501948E-1
2.204905159E0,2.243804932E-2,7.542908192E-3,-6.013822556E-1,6.018479699E-1
2.209930680E0,2.010965347E-2,-5.681514740E-2,-4.964971542E-1,5.001417632E-1
2.214956200E0,3.053236008E-2,-1.013914347E-1,-3.863277435E-1,4.005765513E-1
2.219981721E0,5.671024323E-3,-1.311879754E-1,-2.660417557E-1,2.966827618E-1
2.225007242E0,-5.901360512E-2,-1.705557704E-1,-7.836437225E-2,1.967558163E-1
2.230032763E0,-7.200741768E-2,-2.722604871E-1,6.638813019E-2,2.893410183E-1
2.235058284E0,-9.510040283E-2,-3.979775310E-1,1.824531555E-1,4.480171378E-1
2.240083805E0,-1.089973450E-1,-5.143581033E-1,3.702306747E-1,6.430516559E-1
2.245109325E0,-2.472100258E-1,-6.262998581E-1,5.290412903E-1,8.562995947E-1
2.250134846E0,-3.705270290E-1,-7.290936112E-1,6.300859451E-1,1.032412743E0
2.255160367E0,-4.215581417E-1,-8.274726272E-1,7.021284103E-1,1.164219275E0
2.260185888E0,-4.816808701E-1,-9.022883177E-1,7.930250168E-1,1.294229248E0
2.265211409E0,-5.936176777E-1,-9.680700302E-1,8.643703461E-1,1.427122148E0
2.270236930E0,-6.901361942E-1,-1.029600382E0,8.634996414E-1,1.510627864E0
2.275262450E0,-7.186889648E-1,-1.058040142E0,7.905302048E-1,1.503629201E0
2.280287971E0,-7.415843010E-1,-1.067682385E0,6.838407516E-1,1.468853677E0
2.285313492E0,-7.688798904E-1,-1.063365698E0,5.819101334E-1,1.435458915E0
2.290339013E0,-7.674443722E-1,-1.035580158E0,4.705133438E-1,1.372144284E0
2.295364534E0,-7.618210316E-1,-9.987875223E-1,3.403148651E-1,1.301446121E0
2.300390055E0,-7.669188976E-1,-9.434735179E-1,2.011079788E-1,1.232376279E0
2.305415575E0,-7.787358761E-1,-8.983563781E-1,2.928829193E-2,1.189256722E0
2.310441096E0,-8.841822147E-1,-8.683115244E-1,-1.461038589E-1,1.247833895E0
2.315466617E0,-1.050525665E0,-8.341830969E-1,-3.295135498E-1,1.381319946E0
2.320492138E0,-1.230695009E0,-8.387539387E-1,-4.871129990E-1,1.566970788E0
2.325517659E0,-1.415762663E0,-8.819178939E-1,-5.660533905E-1,1.761414071E0
2.330543180E0,-1.625356793E0,-9.157362580E-1,-5.948953629E-1,1.958126169E0
2.335568700E0,-1.840733051E0,-9.929700494E-1,-6.261081696E-1,2.183185545E0
2.340594169E0,-2.047984600E0,-1.037122250E0,-6.451025009E-1,2.384537842E0
2.345619638E0,-2.232920647E0,-1.086517692E0,-6.708774567E-1,2.572262014E0
2.350645107E0,-2.352973938E0,-1.160449266E0,-7.127113342E-1,2.718655237E0
2.355670575E0,-2.504453659E0,-1.235126019E0,-7.510862350E-1,2.891704505E0
2.360696044E0,-2.678364754E0,-1.320251703E0,-7.616758347E-1,3.081696350E0
2.365721513E0,-2.884783983E0,-1.406342268E0,-7.488527298E-1,3.295536013E0
2.370746982E0,-3.100229263E0,-1.546094060E0,-7.504405975E-1,3.544712882E0
2.375772450E0,-3.186160088E0,-1.720082283E0,-7.086238861E-1,3.689504977E0
2.380797919E0,-3.166459084E0,-1.851625323E0,-5.131721497E-1,3.703825741E0
2.385823388E0,-3.136096954E0,-2.012567759E0,-2.072963715E-1,3.732091220E0
2.390848857E0,-3.141448736E0,-2.169383526E0,1.511754990E-1,3.820704003E0
2.395874325E0,-3.128468037E0,-2.350836039E0,4.805479050E-1,3.942672777E0
2.400899794E0,-3.101048470E0,-2.542641640E0,7.807159424E-1,4.085467599E0
2.405925263E0,-3.072521925E0,-2.725574970E0,1.123210907E0,4.258022151E0
2.410950732E0,-3.013087273E0,-2.846922159E0,1.483724594E0,4.402851277E0
2.415976200E0,-2.854936361E0,-2.963990211E0,1.780643463E0,4.484037326E0
2.421001669E0,-2.539889574E0,-2.976255417E0,2.051941872E0,4.418099229E0
2.426027138E0,-2.081318617E0,-2.855199099E0,2.249225616E0,4.188444216E0
2.431052607E0,-1.588100433E0,-2.649077892E0,2.319196701E0,3.862427993E0
2.436078075E0,-1.087857723E0,-2.410639524E0,2.175164223E0,3.424318434E0
2.441103544E0,-7.566375732E-1,-2.182803392E0,1.826243877E0,2.944876528E0
2.446129013E0,-5.123739243E-1,-1.950533032E0,1.334326744E0,2.418167490E0
2.451154482E0,-2.785892487E-1,-1.688777566E0,8.908257484E-1,1.929547136E0
2.456179950E0,2.317905426E-3,-1.396499634E0,5.431714058E-1,1.498416423E0
2.461205419E0,3.500981331E-1,-1.111413717E0,2.617874146E-1,1.194295526E0
2.466230888E0,7.847299576E-1,-8.090246320E-1,-2.272129059E-3,1.127087895E0
2.471256357E0,1.163841724E0,-4.462806582E-1,3.070831299E-3,1.246476400E0
2.476281825E0,1.957482815E0,-3.247097731E-1,-3.601384163E-1,2.016649470E0
2.481307294E0,2.539626598E0,-6.650130451E-2,-5.476031303E-1,2.598844911E0
2.486332763E0,2.767478943E0,3.276967108E-1,-5.413036346E-1,2.838896697E0
2.491358232E0,2.962114334E0,6.707370281E-1,-5.000009537E-1,3.077988051E0
2.496383700E0,3.228287697E0,8.855556250E-1,-5.624203682E-1,3.394461207E0
2.501409221E0,3.421366215E0,1.067619324E0,-5.986714363E-1,3.633726088E0
2.506434742E0,3.588124752E0,1.187676430E0,-4.788603783E-1,3.809792881E0
2.511460263E0,3.723266602E0,1.254768491E0,-2.172160149E-1,3.935014733E0
2.516485784E0,3.716573238E0,1.277886033E0,1.479167938E-1,3.932910974E0
2.521511305E0,3.601452351E0,1.222808123E0,4.395785332E-1,3.828700566E0
2.526536825E0,3.420518875E0,1.132128596E0,6.057252884E-1,3.653569167E0
2.531562346E0,3.158366203E0,1.072701335E0,6.906323433E-1,3.406308598E0
2.536587867E0,2.761068344E0,1.140094757E0,9.109988213E-1,3.123016700E0
2.541613388E0,2.614716053E0,1.056388855E0,8.233313560E-1,2.937783514E0
2.546638909E0,2.473789215E0,9.316353798E-1,7.210426331E-1,2.739978109E0
2.551664430E0,2.241182327E0,9.141753316E-1,7.203783989E-1,2.525383099E0
2.556689950E0,1.987853050E0,9.368171096E-1,8.747286797E-1,2.365234937E0
2.561715471E0,1.756643772E0,9.180753231E-1,9.019961357E-1,2.177672305E0
2.566740992E0,1.461329460E0,8.438190222E-1,8.072767258E-1,1.870617557E0
2.571766513E0,1.082857609E0,7.433149219E-1,6.672806740E-1,1.473214571E0
2.576792034E0,5.591526031E-1,6.937302947E-1,4.773192406E-1,1.010815024E0
2.581817555E0,-2.773122787E-1,7.917501926E-1,4.577722549E-1,9.556808593E-1
2.586843075E0,-5.083556175E-1,5.405954123E-1,1.584529877E-2,7.422397908E-1
2.591868596E0,-4.126214981E-1,2.713732123E-1,-4.074301720E-1,6.402337590E-1
2.596894117E0,-4.596347809E-1,3.094105124E-1,-3.189940453E-1,6.393404398E-1
2.601919638E0,-6.009778976E-1,5.339794755E-1,9.848308563E-2,8.099428572E-1
2.606945159E0,-7.016687393E-1,6.378388405E-1,2.316064835E-1,9.761244641E-1
2.611970680E0,-9.192504883E-1,7.210769057E-1,-1.034879684E-2,1.168366579E0
2.616996200E0,-1.225323677E0,8.416095972E-1,-6.598653793E-1,1.626390834E0
2.622021721E0,-1.367694855E0,1.024500132E0,-1.719720364E0,2.424381955E0
2.627047242E0,-1.170961380E0,1.304190755E0,-2.580506325E0,3.119467418E0
2.632072763E0,-7.789840698E-1,1.690572739E0,-3.447948217E0,3.918315872E0
2.637098284E0,-5.211353302E-1,2.112191200E0,-4.423181534E0,4.929246249E0
2.642123805E0,6.277942657E-2,2.239305496E0,-5.798595905E0,6.216280627E0
2.647149325E0,5.237250328E-1,2.369167805E0,-6.689795971E0,7.116221900E0
2.652174846E0,7.288918495E-1,2.444846153E0,-7.193998337E0,7.632965879E0
2.657200367E0,1.014240265E0,2.318165302E0,-7.269549847E0,7.697332568E0
2.662225888E0,1.433423996E0,1.898651838E0,-7.162245750E0,7.547009166E0
2.667251409E0,1.817415237E0,1.068167925E0,-8.167915344E0,8.435568856E0
2.672276930E0,1.886759758E0,4.687103033E-1,-6.477394581E0,6.762853857E0
2.677302450E0,1.804228783E0,-1.036403179E-1,-4.135946274E0,4.513539010E0
2.682327971E0,1.570098400E0,-7.411330938E-1,-3.473772049E0,3.883500933E0
2.687353492E0,1.241487503E0,-1.347213030E0,-3.221290350E0,3.705804324E0
2.692379013E0,9.706010818E-1,-1.773306608E0,-2.506626844E0,3.220226844E0
2.697404534E0,6.233100891E-1,-2.115851402E0,-1.602892876E0,2.726647794E0
2.702430055E0,2.045145035E-1,-2.466543913E0,-8.452100754E-1,2.615347994E0
2.707455575E0,-5.394868851E-1,-2.629151583E0,-7.926549911E-1,2.798532844E0
2.712481096E0,-8.585367203E-1,-2.655874729E0,-1.074755669E0,2.990962324E0
2.717506617E0,-1.151539326E0,-2.594606400E0,-1.521736622E0,3.220824046E0
2.722532138E0,-1.644812584E0,-2.344710588E0,-1.667392015E0,3.314102037E0
2.727557659E0,-2.435039043E0,-2.006194830E0,-1.711188555E0,3.589205916E0
2.732583180E0,-3.093296528E0,-1.821911812E0,-1.913687468E0,4.068174748E0
2.737608700E0,-4.247988701E0,-1.722574949E0,-2.693161488E0,5.316558215E0
2.742634221E0,-5.302552223E0,-1.642678857E0,-3.061124325E0,6.339237812E0
2.747659742E0,-5.503999710E0,-1.658829451E0,-2.114782810E0,6.125196674E0
2.752685263E0,-6.456921577E0,-1.413685799E0,-1.340053797E0,6.744337475E0
2.757710784E0,-7.544100761E0,-8.206079602E-1,-1.126874924E0,7.671812095E0
2.762736305E0,-7.206984043E0,-1.227662563E-1,-1.065538406E0,7.286361413E0
2.767761825E0,-4.573671341E0,-9.404607117E-2,-2.518696785E-1,4.581566603E0
2.772787346E0,-3.719662189E0,-4.758929312E-1,1.317858696E-1,3.752296417E0
2.777812867E0,-3.934761047E0,-4.364441037E-1,9.315066338E-1,4.067005356E0
2.782838388E0,-3.788733006E0,-3.671907187E-1,1.161854267E0,3.979853282E0
2.787863909E0,-3.752951145E0,-4.531106353E-1,1.064530849E0,3.927235348E0
2.792889430E0,-3.753221989E0,-6.012904644E-1,8.665218353E-1,3.898600468E0
2.797914950E0,-3.778032780E0,-6.713591218E-1,4.027004242E-1,3.858292678E0
2.802940471E0,-3.945564747E0,-6.427744627E-1,-7.976269722E-2,3.998374954E0
2.807965992E0,-3.699725151E0,-5.198611617E-1,-3.387291431E-1,3.751394308E0
2.812991513E0,-3.040016651E0,-3.321370184E-1,-6.490907669E-1,3.126233367E0
2.818017034E0,-2.520989895E0,-4.694503546E-2,-9.695806503E-1,2.701421945E0
2.823042555E0,-2.438562870E0,2.349902093E-1,-1.081539154E0,2.677972407E0
2.828068075E0,-1.199341774E0,5.273508430E-1,-1.182832718E0,1.765109867E0
2.833093596E0,1.271595001E0,9.704685211E-1,-1.743506789E0,2.366131637E0
2.838119117E0,3.326991081E0,1.651458979E0,-2.261727333E0,4.348746594E0
2.843144638E0,6.014393806E0,2.542586803E0,-2.253103018E0,6.907543248E0
2.848170159E0,7.711282730E0,3.491713524E0,-2.215898037E0,8.750208500E0
2.853195680E0,8.790791512E0,4.033274174E0,-2.721420765E0,1.004745973E1
2.858221200E0,1.045234871E1,4.122129440E0,-3.831035852E0,1.187098902E1
2.863246721E0,1.121570396E1,4.224617481E0,-3.917574406E0,1.260899669E1
2.868272242E0,1.072755051E1,4.332679749E0,-3.726140976E0,1.215469375E1
2.873297763E0,9.573061943E0,4.101199150E0,-3.385128498E0,1.095091066E1
2.878323284E0,8.465788841E0,3.462386370E0,-3.108256817E0,9.660173938E0
2.883348805E0,6.602284431E0,3.348705292E0,-1.976025343E0,7.662157855E0
2.888374325E0,5.590510368E0,2.906816244E0,-7.237852812E-1,6.342495722E0
2.893399846E0,5.022758484E0,2.065788031E0,3.290359974E-1,5.440941799E0
2.898425367E0,4.429678917E0,1.069715619E0,1.288961411E0,4.735796483E0
2.903450888E0,3.873627663E0,1.628515720E-1,2.018136024E0,4.370856314E0
2.908476409E0,3.775543213E0,-6.937274933E-1,2.326010704E0,4.488464123E0
2.913501930E0,4.804036140E0,-2.010271549E0,2.389821529E0,5.729851820E0
2.918527450E0,3.829116821E0,-2.833892822E0,2.795660973E0,5.523477567E0
2.923552971E0,1.694664001E0,-2.954844475E0,3.978798389E0,5.237731243E0
2.928578492E0,-5.031499863E-1,-3.052217722E0,5.447561741E0,6.264592712E0
2.933604013E0,-2.358685017E0,-3.258864403E0,6.243857861E0,7.427607501E0
2.938629534E0,-3.767532349E0,-3.940219641E0,7.052987099E0,8.914272703E0
2.943655055E0,-3.635037899E0,-4.505224228E0,8.110804558E0,9.964722598E0
2.948680575E0,-2.418371677E0,-4.749454498E0,8.839891434E0,1.032228270E1
2.953706096E0,-1.363203526E0,-4.536774635E0,8.628098488E0,9.843004189E0
2.958731617E0,-1.081752777E0,-3.940177202E0,8.460555077E0,9.395540307E0
2.963757138E0,1.822299957E-1,-3.956543922E0,7.371771336E0,8.368420413E0
2.968782659E0,1.427783966E0,-3.784222364E0,5.837699890E0,7.101946632E0
2.973808180E0,1.883981705E0,-3.364301443E0,3.963708878E0,5.529819105E0
2.978833700E0,1.316911697E0,-2.797335625E0,2.240151644E0,3.818065270E0
2.983859221E0,8.321352005E-1,-2.387378216E0,4.177722931E-1,2.562529498E0
2.988884742E0,7.346248627E-1,-2.207365513E0,-2.881989956E0,3.703782162E0
2.993910263E0,6.295661926E-1,-1.913615465E0,-7.490180016E0,7.756357032E0
2.998935784E0,-1.243333817E-1,-1.306249619E0,-1.004395485E1,1.012930283E1
3.003961305E0,-3.998231888E-1,-9.851665497E-1,-1.011848831E1,1.017419370E1
3.008986825E0,-4.179582596E-1,-8.100538254E-1,-8.236828804E0,8.287111985E0
3.014012346E0,-1.991491318E-1,-8.768641949E-1,-6.196684837E0,6.261585595E0
3.019037867E0,-3.057928085E-1,-1.066505432E0,-4.560959816E0,4.693963945E0
3.024063388E0,-2.106065750E-1,-1.245508909E0,-3.547465563E0,3.765655254E0
3.029088909E0,1.242418289E-1,-1.299712896E0,-3.421859026E0,3.662486701E0
3.034114430E0,6.449995041E-1,-1.201470137E0,-3.469917774E0,3.728254848E0
3.039139950E0,9.437637329E-1,-9.524066448E-1,-3.665044308E0,3.902604025E0
3.044165471E0,8.812580109E-1,-6.204302311E-1,-3.353797913E0,3.522713413E0
3.049190992E0,1.084093094E0,-3.833069801E-1,-2.623600483E0,2.864517686E0
3.054216513E0,1.384408951E0,-2.421746254E-1,-1.985973597E0,2.432966876E0
3.059242034E0,1.342322350E0,-2.509188652E-2,-1.359328628E0,1.910558350E0
3.064267555E0,9.539813995E-1,2.396962643E-1,-8.907593489E-1,1.327021864E0
3.069293023E0,-1.280851364E-1,-3.491029739E-1,-5.960109234E-1,7.025010387E-1
3.074318492E0,-6.200332642E-1,-1.038339138E-1,-6.213020682E-1,8.838772484E-1
3.079343961E0,-8.567066193E-1,4.067742825E-1,-6.471700668E-1,1.148146612E0
3.084369430E0,-9.961853027E-1,8.236293793E-1,-9.943971038E-1,1.630820687E0
3.089394898E0,-1.077478886E0,1.159886360E0,-1.532876372E0,2.203634972E0
3.094420367E0,-1.245059490E0,1.471128702E0,-1.841953754E0,2.665930687E0
3.099445836E0,-1.270387173E0,1.898430586E0,-1.804308057E0,2.910919068E0
3.104471305E0,-1.312397003E0,2.186115265E0,-1.777617455E0,3.108280821E0
3.109496773E0,-1.687427521E0,2.295685768E0,-1.926212072E0,3.439168174E0
3.114522242E0,-1.922078609E0,2.223413467E0,-1.901995659E0,3.500791498E0
3.119547711E0,-2.131745338E0,2.038022518E0,-1.973621726E0,3.548669707E0
3.124573180E0,-2.743581295E0,1.573378801E0,-1.674721003E0,3.578749727E0
3.129598648E0,-2.856021404E0,1.040174484E0,-8.097929955E-1,3.145566072E0
3.134624117E0,-2.145160675E0,7.725172043E-1,2.037396431E-1,2.289106156E0
3.139649586E0,-1.353248596E0,4.389252663E-1,1.429096460E0,2.016495436E0
3.144675055E0,-5.386204720E-1,5.158424377E-2,2.280949831E0,2.344249364E0
3.149700523E0,-7.045936584E-2,-4.488835335E-1,2.486376286E0,2.527553755E0
3.154725992E0,1.560869217E-1,-9.442286491E-1,2.261618137E0,2.455778383E0
3.159751461E0,-3.510904312E-1,-1.071279049E0,2.132553816E0,2.412195902E0
3.164776930E0,-1.269201279E0,-8.965234756E-1,1.914554238E0,2.465794833E0
3.169802398E0,-2.390182018E0,-4.615874290E-1,1.399653077E0,2.808035215E0
3.174827867E0,-3.310533047E0,6.736040115E-2,9.744974375E-1,3.451638992E0
3.179853336E0,-3.895444870E0,5.571622849E-1,5.519944429E-1,3.973615282E0
3.184878805E0,-4.349980831E0,9.604649544E-1,1.212757826E-1,4.456403704E0
3.189904273E0,-4.773666382E0,1.186969042E0,-5.489241481E-1,4.949555935E0
3.194929742E0,-5.299037457E0,1.242654562E0,-1.465410352E0,5.636613862E0
3.199955211E0,-5.895778656E0,1.564401627E0,-1.734943509E0,6.341733784E0
3.204980680E0,-6.395081043E0,2.024201155E0,-1.440008163E0,6.860617711E0
3.210006148E0,-6.987215996E0,2.417417765E0,-1.059119701E0,7.469058211E0
3.215031617E0,-6.958507538E0,2.424417973E0,-8.599098921E-1,7.418765038E0
3.220057086E0,-6.309500217E0,2.116628885E0,-1.069057822E0,6.740385409E0
3.225082607E0,-5.639343739E0,1.679225206E0,-1.649668097E0,6.110924638E0
3.230108127E0,-5.096964359E0,1.115630150E0,-2.548354387E0,5.806701852E0
3.235133648E0,-4.543864250E0,6.209712029E-1,-3.337161303E0,5.671768077E0
3.240159169E0,-4.185537338E0,2.950029373E-1,-3.760743856E0,5.634620120E0
3.245184690E0,-3.939419031E0,-1.034832001E-2,-3.440779686E0,5.230496558E0
3.250210211E0,-3.664991856E0,-3.272657394E-1,-2.470476627E0,4.431988598E0
3.255235732E0,-2.596076012E0,-9.510040283E-1,-1.473875284E0,3.133101925E0
3.260261252E0,-1.940027714E0,-1.426826477E0,-1.007101417E0,2.610324614E0
3.265286773E0,-7.558388710E-1,-1.850074291E0,-2.422050238E-1,2.013139477E0
3.270312294E0,6.034560204E-1,-2.383754730E0,5.425676107E-1,2.518099560E0
3.275337815E0,1.766073704E0,-2.741075993E0,1.143424511E0,3.455420891E0
3.280363336E0,2.443441391E0,-2.850598812E0,1.300237417E0,3.973277836E0
3.285388857E0,2.985758781E0,-2.736371040E0,1.108931303E0,4.199072589E0
3.290414377E0,3.944405079E0,-2.605082989E0,8.224608302E-1,4.798044458E0
3.295439898E0,4.861227036E0,-2.257634163E0,-5.221606493E-1,5.385266200E0
3.300465419E0,6.512103558E0,-1.970511913E0,-2.286514759E0,7.177643045E0
3.305490940E0,9.490247726E0,-2.146726608E0,-2.771903038E0,1.011714799E1
3.310516461E0,1.256554222E1,-2.386229992E0,-1.415058613E0,1.286815199E1
3.315541982E0,1.448884964E1,-2.569576263E0,1.229423165E0,1.476621033E1
3.320567502E0,1.532919788E1,-2.555585861E0,4.382235050E0,1.614680497E1
3.325593023E0,1.528325939E1,-2.655420303E0,7.047089577E0,1.703792083E1
3.330618544E0,1.394994640E1,-2.867599487E0,8.151738167E0,1.640959983E1
3.335644065E0,1.030473518E1,-2.680921078E0,7.405737877E0,1.296995985E1
3.340669586E0,6.265121460E0,-2.357038975E0,6.224549294E0,9.140699839E0
3.345695107E0,2.693759918E0,-1.750240326E0,5.339643955E0,6.231491095E0
3.350720627E0,6.221132278E-1,-1.605594635E0,4.139591217E0,4.483433332E0
3.355746148E0,-6.111364365E-1,-1.550816536E0,2.837617636E0,3.290986709E0
3.360771669E0,-1.782182693E0,-1.329410553E0,1.885401964E0,2.915175490E0
3.365797190E0,-2.385330677E0,-1.235724449E0,1.092813253E0,2.900182436E0
3.370822711E0,-2.581672907E0,-1.177597523E0,3.039013147E-1,2.853791676E0
3.375848232E0,-2.395063400E0,-1.164845943E0,-3.925408423E-1,2.692077836E0
3.380873752E0,-1.985046387E0,-1.065230846E0,-1.117653728E0,2.514811279E0
3.385899273E0,-1.756434917E0,-6.664066315E-1,-2.250077486E0,2.931213078E0
3.390924794E0,-1.521152020E0,-1.771092415E-1,-4.647705555E0,4.893509791E0
3.395950315E0,-1.337022781E0,4.759926796E-1,-7.135026932E0,7.274806407E0
3.400975836E0,-9.889025688E-1,1.056096077E0,-8.040889740E0,8.170016831E0
3.406001357E0,-6.002449989E-1,1.461286068E0,-7.166398525E0,7.338454800E0
3.411026877E0,-1.533308029E-1,1.762806416E0,-5.095631599E0,5.394113291E0
3.416052398E0,2.796101570E-1,1.888452530E0,-3.303773880E0,3.815672503E0
3.421077919E0,9.613251686E-1,1.727770805E0,-1.923921108E0,2.758769738E0
3.426103440E0,1.914731979E0,1.418953419E0,-1.057593107E0,2.607322484E0
3.431128961E0,2.689346790E0,1.224744320E0,-6.534659863E-1,3.026483538E0
3.436154482E0,3.150998116E0,1.350462437E0,-5.094071031E-1,3.465838068E0
3.441180002E0,3.085662842E0,1.834779739E0,-7.568140626E-1,3.668855324E0
3.446205523E0,3.913779736E0,2.308859348E0,-2.507066131E-1,4.550973205E0
3.451231044E0,4.679549694E0,2.631922722E0,2.357233763E-1,5.374082997E0
3.456256565E0,4.688593388E0,3.214516163E0,5.663362741E-1,5.712859082E0
3.461282086E0,4.224654198E0,3.784013748E0,7.270177603E-1,5.717955750E0
3.466307607E0,3.656742573E0,3.819397926E0,3.421102762E-1,5.298736284E0
3.471333127E0,3.027198315E0,3.507755756E0,-1.046311855E-2,4.633399352E0
3.476358648E0,2.139760971E0,3.237088680E0,-2.565727234E-1,3.888849406E0
3.481384169E0,1.297115803E0,2.883784294E0,-1.037472486E-1,3.163776976E0
3.486409690E0,4.476466179E-1,2.577876091E0,-3.262417316E-1,2.636715059E0
3.491435211E0,-1.169371605E-1,2.435073853E0,-1.258396387E0,2.743505136E0
3.496460732E0,-3.185653687E-1,2.043875217E0,-1.997304082E0,2.875436209E0
3.501486252E0,-8.685088158E-1,1.954250336E0,-2.584506512E0,3.354560455E0
3.506511773E0,-1.833496809E0,1.568878651E0,-2.752920866E0,3.660828330E0
3.511537294E0,-3.253986120E0,6.285586357E-1,-1.952480793E0,3.846516980E0
3.516562815E0,-5.215711117E0,-1.259952068E0,-1.589095831E0,5.596101074E0
3.521588336E0,-6.969966412E0,-3.085561752E0,-1.248018742E0,7.723902763E0
3.526613857E0,-6.756572247E0,-4.131934643E0,-4.866019487E-1,7.934792617E0
3.531639377E0,-5.264749050E0,-4.218532562E0,5.286585093E-1,6.767058398E0
3.536664898E0,-2.604824066E0,-4.218781948E0,3.674704075E0,6.171440640E0
3.541690419E0,1.242208481E-1,-3.728432655E0,6.023943901E0,7.085516284E0
3.546715940E0,1.716138363E0,-3.171869278E0,6.543051720E0,7.471105099E0
3.551741461E0,1.341634274E0,-3.346487999E0,8.112634659E0,8.877713983E0
3.556766982E0,-1.880025864E-2,-4.038169861E0,9.400586128E0,1.023123594E1
3.561792502E0,-1.451780319E0,-4.036617279E0,9.086591721E0,1.004828813E1
3.566818023E0,-2.556502342E0,-3.703705788E0,8.928865433E0,9.998888873E0
3.571843544E0,-2.781726599E0,-2.933482647E0,8.442383766E0,9.360404210E0
3.576869065E0,-1.944717884E0,-1.201513767E0,7.461866379E0,7.804166377E0
3.581894586E0,-1.273696899E0,3.798170090E-1,5.474658012E0,5.633688410E0
3.586920107E0,-1.021671772E0,3.415532112E-1,2.161608219E0,2.415164984E0
3.591945627E0,-9.599385262E-1,7.892403603E-1,-1.330653191E0,1.820719702E0
3.596971148E0,4.495954514E-2,1.229805470E0,-6.608893394E0,6.722493195E0
3.601996669E0,6.076002121E-1,3.001685143E-1,-1.106260872E1,1.108334746E1
3.607022190E0,-2.746577263E-1,-1.097677708E0,-1.174298096E1,1.179736983E1
3.612047711E0,-1.524916887E0,-2.267449379E0,-1.052170467E1,1.087073905E1
3.617073232E0,-2.499061346E0,-3.126545429E0,-9.186045647E0,1.002018106E1
3.622098752E0,-2.888102770E0,-3.167526245E0,-8.337697983E0,9.375050281E0
3.627124273E0,-2.841440916E0,-2.472948074E0,-7.464061737E0,8.360710273E0
3.632149794E0,-3.292568207E0,-1.316485882E0,-6.622111797E0,7.511757792E0
3.637175315E0,-2.119677544E0,-4.414305687E-1,-4.797850609E0,5.263769020E0
3.642200836E0,-2.311024904E0,2.275600433E-1,-3.604974270E0,4.288176672E0
3.647226357E0,-2.142963886E0,5.662746429E-1,-2.369284630E0,3.244452318E0
3.652251877E0,-1.836611509E0,1.181972980E0,-1.464174271E0,2.629450182E0
3.657277398E0,-1.288941145E0,2.269174099E0,-5.926885605E-1,2.676153975E0
3.662302919E0,-1.462769508E0,2.683204651E0,3.922741413E-1,3.081097343E0
3.667328440E0,-2.467214108E0,2.511174202E0,4.294078350E-1,3.546481695E0
3.672353961E0,-4.450367451E0,3.187843800E0,-4.313094616E-1,5.491279121E0
3.677379482E0,-5.323904037E0,4.368762016E0,-8.436777592E-1,6.938431229E0
3.682405002E0,-4.632740498E0,4.854254723E0,-5.248954296E-1,6.730645485E0
3.687430523E0,-3.304956436E0,5.445772171E0,-5.685114861E-2,6.370431982E0
3.692456044E0,-2.167562962E0,6.465641975E0,-1.008079052E-1,6.820045277E0
3.697481565E0,-8.883254528E-1,7.663189888E0,-4.250152111E-1,7.726204715E0
3.702507086E0,3.288984299E-1,8.247736931E0,-7.400815487E-1,8.287403656E0
3.707532607E0,1.414047241E0,8.423965454E0,-8.769243956E-1,8.586717648E0
3.712558127E0,2.054673195E0,8.358632088E0,-8.153158426E-1,8.645990530E0
3.717583648E0,2.677003860E0,7.807606697E0,-5.695769787E-1,8.273420692E0
3.722609169E0,2.995371819E0,6.838158607E0,-1.459456682E-1,7.466857814E0
3.727634690E0,3.375243664E0,5.316650391E0,2.237298489E-1,6.301515390E0
3.732660211E0,3.426087379E0,3.535503864E0,1.271595955E-1,4.924838258E0
3.737685732E0,3.184569836E0,1.734909534E0,-3.009801507E-1,3.638953858E0
3.742711252E0,2.631628036E0,5.036258698E-2,-3.857513666E-1,2.660226800E0
3.747736773E0,2.609168053E0,-1.899547577E0,-2.975052595E-2,3.227525990E0
3.752762294E0,2.354650974E0,-3.678615570E0,6.123448610E-1,4.410392267E0
3.757787815E0,2.058185577E0,-5.018083572E0,1.356688023E0,5.590875871E0
3.762813336E0,2.228825569E0,-5.788345337E0,2.363556623E0,6.637695765E0
3.767838857E0,4.547569752E0,-4.096645355E0,4.091857433E0,7.362485387E0
3.772864377E0,7.459384918E0,-2.229476929E0,6.969958305E0,1.044956025E1
3.777889898E0,9.408667564E0,-1.136222839E0,9.414626122E0,1.335848841E1
3.782915419E0,9.396697998E0,9.006896019E-1,8.197227478E0,1.250214835E1
3.787940940E0,9.475682259E0,2.593278885E-1,6.669229984E0,1.159027324E1
3.792966461E0,8.230299950E0,-2.596254349E-1,4.445652485E0,9.357834613E0
3.797991982E0,5.848390579E0,-1.053724289E-1,2.326648712E0,6.295082998E0
3.803017502E0,3.292025566E0,-4.207086563E-1,9.413931370E-1,3.449731749E0
3.808043023E0,6.945247650E-1,-8.689765930E-1,1.188293099E-3,1.112423652E0
3.813068544E0,-1.715419292E0,-7.933282852E-1,-6.855062246E-1,2.010460619E0
3.818094065E0,-3.117772341E0,-1.369941711E0,-5.634337664E-1,3.451767992E0
3.823119586E0,-4.594779491E0,-1.627422333E0,6.206839085E-1,4.913832571E0
3.828145107E0,-4.551323414E0,-2.590860367E0,2.234166265E-1,5.241852463E0
3.833170627E0,-4.594183445E0,-3.213319778E0,-3.971037269E-1,5.620465897E0
3.838196148E0,-5.553927422E0,-2.427101135E-1,-4.641606212E-1,5.578571778E0
3.843221669E0,-5.005755424E0,1.586143494E0,3.418740928E-1,5.262158915E0
3.848247190E0,-4.537279129E0,1.640526772E0,1.901589990E0,5.185969000E0
3.853272711E0,-4.501634121E0,8.201141357E-1,4.245172977E0,6.241697731E0
3.858298232E0,-5.547717571E0,-9.139528275E-1,5.134875298E0,7.614422128E0
3.863323752E0,-7.924226761E0,-1.668945312E0,4.010163307E0,9.036601018E0
3.868349273E0,-9.070984840E0,-1.414375305E0,2.611487865E0,9.544793992E0
3.873374794E0,-7.837334633E0,-2.222831726E0,2.417604685E0,8.497623635E0
3.878400315E0,-7.795916557E0,-1.646937370E0,1.918845177E0,8.195772354E0
3.883425836E0,-7.055339336E0,-1.151607513E0,6.927356720E-1,7.182192961E0
3.888451357E0,-7.990582466E0,-7.988758087E-1,-1.191921473E0,8.118391928E0
3.893476877E0,-1.066282082E1,5.445785522E-1,-2.990025997E0,1.108749607E1
3.898502398E0,-9.741747856E0,1.756490707E0,-3.841504097E0,1.061810080E1
3.903527919E0,-8.665639877E0,2.228210449E0,-4.359066963E0,9.952874011E0
3.908553440E0,-8.240822792E0,2.563322544E0,-4.671566963E0,9.813527431E0
3.913578961E0,-4.065855026E0,2.989047050E0,-4.689855576E0,6.889145425E0
3.918604482E0,-5.415557027E-1,1.956817627E0,-5.339345932E0,5.712357901E0
3.923630002E0,-8.643870354E-1,1.601454258E0,-5.613701820E0,5.901310771E0
3.928655523E0,-6.842139959E-1,2.115240097E-1,-5.742136002E0,5.786623978E0
3.933681044E0,1.116126776E-1,-1.622306824E0,-6.420500755E0,6.623229331E0
3.938706565E0,2.688145638E-1,-3.199679375E0,-6.696906090E0,7.426894408E0
3.943732086E0,1.655947447E0,-4.921795845E0,-6.464384079E0,8.291833199E0
3.948757607E0,3.832743645E0,-6.453837395E0,-6.057662487E0,9.645580116E0
3.953783127E0,4.485995770E0,-7.930830002E0,-5.257950306E0,1.051989848E1
3.958808596E0,2.731850863E0,-7.990029335E0,-4.043700218E0,9.362429672E0
3.963834065E0,7.322221994E-2,-5.633769035E0,-3.011746883E0,6.388687997E0
3.968859534E0,-1.075293303E0,-3.682015419E0,-1.859462380E0,4.262756570E0
3.973885002E0,-2.369821310E0,-2.115312576E0,-7.204411626E-1,3.257243590E0
3.978910471E0,-3.296618223E0,-1.772546768E-1,5.541043282E-1,3.347557697E0
3.983935940E0,-2.961336136E0,9.980716705E-1,1.791004658E0,3.601854585E0
3.988961409E0,-1.849213362E0,8.323268890E-1,3.060881376E0,3.671696189E0
3.993986877E0,-2.152357101E-1,-3.195953369E-1,3.159631968E0,3.183039705E0
3.999012346E0,1.133791685E0,-5.773315430E-1,2.290258408E0,2.619938715E0
4.004037815E0,2.072557449E0,-5.203342438E-2,1.628588796E0,2.636380724E0
4.009063284E0,2.889599562E0,-1.195430756E-2,1.406251550E0,3.213638429E0
4.014088752E0,3.659431934E0,-1.025583267E0,1.365326166E0,4.038239550E0
4.019114221E0,3.880046844E0,-2.742710114E0,2.998666286E0,5.618649462E0
4.024139690E0,4.010300636E0,-3.934141159E0,5.294295311E0,7.719426189E0
4.029165159E0,4.640649319E0,-4.897501945E0,5.970720768E0,9.009476006E0
4.034190627E0,4.952748299E0,-5.523241997E0,5.178729534E0,9.047384012E0
4.039216096E0,4.702952862E0,-5.366960526E0,3.533795357E0,7.963023328E0
4.044241565E0,2.656345844E0,-3.802423477E0,1.500998378E0,4.875201911E0
4.049267034E0,-1.179093599E0,-9.442272186E-1,-7.022625208E-1,1.665832946E0
4.054292502E0,-2.696899176E0,8.507537842E-2,-1.446112990E0,3.061330718E0
4.059317971E0,-3.115327358E0,4.693307877E-1,-4.360203147E-1,3.180510911E0
4.064343440E0,-8.254562020E-1,3.756418228E-1,2.460005283E-1,9.396813186E-1
4.069368909E0,2.039745331E0,3.334131241E-1,2.544959784E-1,2.082424916E0
4.074394377E0,2.890939236E0,8.102464676E-1,4.034913778E-1,3.029329017E0
4.079419846E0,3.479947567E0,4.851226807E-1,3.005837202E-1,3.526432993E0
4.084445315E0,3.427191019E0,5.734443665E-2,6.149113178E-2,3.428222254E0
4.089470784E0,3.226619005E0,-5.300140381E-1,-4.943054914E-1,3.307011189E0
4.094496252E0,2.258965254E0,-6.592512131E-1,-1.254674673E0,2.666785465E0
4.099521773E0,1.581334352E0,-6.361780167E-1,-2.102094412E0,2.706315155E0
4.104547294E0,1.695879698E0,-5.462226868E-1,-2.980895996E0,3.472766637E0
4.109572815E0,1.701225042E0,-5.223312378E-1,-3.940112591E0,4.323364869E0
4.114598336E0,1.772890091E0,-4.102277756E-1,-4.727449417E0,5.065590202E0
4.119623857E0,1.779913306E0,-5.006780624E-1,-5.421499252E0,5.728125701E0
4.124649377E0,1.664510727E0,-6.633644104E-1,-5.747504234E0,6.020336637E0
4.129674898E0,1.523001075E0,-1.017096519E0,-5.776194572E0,6.059574353E0
4.134700419E0,1.337385416E0,-1.475297928E0,-5.411947727E0,5.766652576E0
4.139725940E0,1.333963037E0,-1.951999664E0,-4.775838852E0,5.329014619E0
4.144751461E0,1.532623291E0,-2.658166885E0,-3.965598106E0,5.014055612E0
4.149776982E0,1.680649042E0,-3.154260635E0,-3.055299282E0,4.701999050E0
4.154802502E0,1.855530977E0,-3.455808640E0,-2.047840357E0,4.424845612E0
4.159828023E0,2.000425577E0,-3.707490921E0,-1.156845093E0,4.368693396E0
4.164853544E0,2.077628136E0,-3.838369370E0,-4.514849186E-1,4.387876106E0
4.169879065E0,2.106710672E0,-3.815753937E0,1.619081497E-1,4.361699464E0
4.174904586E0,2.092926502E0,-3.654674530E0,6.193960905E-1,4.256834361E0
4.179930107E0,2.146171808E0,-3.279104233E0,9.247112274E-1,4.026620029E0
4.184955627E0,2.075020790E0,-2.737247467E0,1.029788613E0,3.585902894E0
4.189981148E0,2.104179859E0,-2.206224442E0,1.026126742E0,3.216820675E0
4.195006669E0,2.223801613E0,-1.661757469E0,8.300836086E-1,2.897545564E0
4.200032190E0,2.463539124E0,-1.260777473E0,7.349096537E-1,2.863333206E0
4.205057711E0,2.655114889E0,-1.031856537E0,5.941679478E-1,2.909879471E0
4.210083232E0,2.216989279E0,-6.549930573E-1,3.490318060E0,4.186451663E0
4.215108752E0,1.294041395E0,1.508712769E-3,7.522012711E0,7.632510768E0
4.220134273E0,1.145154953E0,8.173704147E-1,7.050441265E0,7.189450347E0
4.225159794E0,1.622590065E0,1.453543663E0,4.964482307E0,5.421408699E0
4.230185315E0,2.016238689E0,1.829739094E0,3.283479691E0,4.265489712E0
4.235210836E0,2.159609318E0,2.219120026E0,1.987198353E0,3.679315614E0
4.240236357E0,2.183933973E0,2.148375988E0,1.839313269E0,3.573256258E0
4.245261877E0,2.356819868E0,2.000121593E0,3.372745514E0,4.574986184E0
4.250287398E0,2.696249962E0,1.707174301E0,3.891891718E0,5.032994049E0
4.255312919E0,2.966751337E0,1.542269707E0,4.006382942E0,5.218363117E0
4.260338440E0,3.186822176E0,1.452734947E0,3.680757284E0,5.080772441E0
4.265363961E0,3.370366096E0,1.376500130E0,3.063364029E0,4.757974296E0
4.270389482E0,3.440925360E0,1.308951378E0,2.427482128E0,4.409760824E0
4.275415002E0,3.441658497E0,1.164116859E0,1.787921786E0,4.049301864E0
4.280440523E0,3.315132380E0,1.133467674E0,1.116787434E0,3.677236168E0
4.285466044E0,3.171494007E0,1.202561378E0,5.348657370E-1,3.433745690E0
4.290491565E0,3.287233829E0,1.266069412E0,4.784351587E-2,3.522942947E0
4.295517086E0,3.029712439E0,1.276171684E0,-5.536695719E-1,3.333814875E0
4.300542607E0,2.619312763E0,1.256870270E0,-1.239012480E0,3.158429064E0
4.305568127E0,2.256935120E0,1.246490479E0,-1.676293731E0,3.075297598E0
4.310593648E0,1.932399511E0,1.230708122E0,-1.897768259E0,2.974951213E0
4.315619169E0,1.539923668E0,1.109115601E0,-1.821296692E0,2.630327728E0
4.320644690E0,1.309240937E0,9.630832672E-1,-1.681388855E0,2.338527249E0
4.325670211E0,1.234981418E0,7.686729431E-1,-1.568675041E0,2.139340688E0
4.330695732E0,1.063269019E0,4.302663803E-1,-1.429841399E0,1.833062081E0
4.335721252E0,7.565615177E-1,5.803394318E-2,-1.374028444E0,1.569620156E0
4.340746773E0,4.263455272E-1,-2.618532181E-1,-1.347452402E0,1.437346720E0
4.345772294E0,1.028844938E-1,-5.150318146E-1,-1.325130224E0,1.425416816E0
4.350797815E0,-1.694483757E-1,-6.823415756E-1,-1.315684795E0,1.491753753E0
4.355823336E0,-4.086532593E-1,-8.307189941E-1,-1.265862226E0,1.568278901E0
4.360848857E0,-5.179797411E-1,-9.362154007E-1,-1.180480957E0,1.593216112E0
4.365874377E0,-5.875534415E-1,-9.940481186E-1,-1.121836424E0,1.609927846E0
4.370899898E0,-6.117786169E-1,-1.056909561E0,-9.327064157E-1,1.536643145E0
4.375925419E0,-6.661391258E-1,-1.139171600E0,-7.238985896E-1,1.505151965E0
4.380950940E0,-8.208130002E-1,-1.212141991E0,-6.826053858E-1,1.615231346E0
4.385976461E0,-8.638250828E-1,-1.251884460E0,-6.462966204E-1,1.652606365E0
4.391001982E0,-7.797152996E-1,-1.224949837E0,-6.248488426E-1,1.580789084E0
4.396027502E0,-6.203979850E-1,-1.184063911E0,-7.286467552E-1,1.522441165E0
4.401053023E0,-3.999052048E-1,-1.095722198E0,-9.621195793E-1,1.512020302E0
4.406078544E0,-1.090613902E-1,-9.742279053E-1,-1.314893484E0,1.640109531E0
4.411104065E0,2.418393195E-1,-8.146600723E-1,-1.776206613E0,1.969026973E0
4.416129586E0,6.563197374E-1,-6.263809204E-1,-2.301541567E0,2.473904250E0
4.421155107E0,1.084940910E0,-4.377508163E-1,-2.846026897E0,3.077107677E0
4.426180627E0,1.492689133E0,-2.722654343E-1,-3.326625586E0,3.656321526E0
4.431206148E0,1.873167992E0,-1.485815048E-1,-3.736977577E0,4.182802434E0
4.436231669E0,2.229762077E0,-8.056545258E-2,-4.070961952E0,4.642312024E0
4.441257190E0,2.565816402E0,-8.685302734E-2,-4.332115173E0,5.035690532E0
4.446282711E0,2.870175362E0,-1.239833832E-1,-4.476538658E0,5.319086091E0
4.451308232E0,3.083973885E0,-1.343669891E-1,-4.513583183E0,5.468215665E0
4.456333752E0,3.158374071E0,-1.800813675E-1,-4.443044662E0,5.454209562E0
4.461359273E0,3.145239592E0,-3.041086197E-1,-4.274542332E0,5.315705625E0
4.466384794E0,3.054055691E0,-5.543107986E-1,-3.984598398E0,5.050895071E0
4.471410315E0,2.894775391E0,-8.446912766E-1,-3.535647154E0,4.646937563E0
4.476435836E0,2.735134363E0,-1.161213875E0,-2.990929127E0,4.216044911E0
4.481461357E0,2.614394903E0,-1.489983559E0,-2.404479265E0,3.851834920E0
4.486486877E0,2.528932571E0,-1.841037750E0,-1.815963268E0,3.616993578E0
4.491512398E0,2.489380598E0,-2.229200363E0,-1.207820892E0,3.553193117E0
4.496537919E0,2.487118483E0,-2.626187325E0,-6.150889397E-1,3.668917090E0
4.501563440E0,2.546804428E0,-3.046754837E0,-3.457581997E-2,3.971161457E0
4.506588961E0,2.640083075E0,-3.476909637E0,5.654710531E-1,4.402124121E0
4.511614482E0,2.800913811E0,-3.902661324E0,1.159093499E0,4.941597042E0
4.516640002E0,2.914661646E0,-4.281272888E0,1.729902029E0,5.460504655E0
4.521665523E0,2.952774763E0,-4.531743050E0,2.175421715E0,5.829925686E0
4.526691044E0,2.962970495E0,-4.549088478E0,2.408419609E0,5.939182195E0
4.531716565E0,2.863348007E0,-4.386159897E0,2.514613390E0,5.810373564E0
4.536742086E0,2.677161217E0,-3.952227592E0,2.450860023E0,5.366005030E0
4.541767607E0,2.394099474E0,-3.323982239E0,2.246483803E0,4.671965292E0
4.546793127E0,2.061800718E0,-2.664111137E0,1.959571123E0,3.897233550E0
4.551818648E0,1.703933239E0,-2.058568001E0,1.634055257E0,3.132287867E0
4.556844169E0,1.325345874E0,-1.488000870E0,1.289960265E0,2.373749304E0
4.561869690E0,9.692971706E-1,-9.952554703E-1,9.617377520E-1,1.689677472E0
4.566895211E0,6.359614134E-1,-5.370550156E-1,6.120691299E-1,1.033200672E0
4.571920732E0,3.257504404E-1,-1.084575653E-1,2.417889833E-1,4.199265475E-1
4.576946252E0,5.783259869E-2,2.715482712E-1,-1.338683963E-1,3.082268979E-1
4.581971773E0,-1.389654428E-1,6.126785278E-1,-5.332688093E-1,8.240521802E-1
4.586997294E0,-2.982270420E-1,8.911333084E-1,-9.892064333E-1,1.364399982E0
4.592022815E0,-4.058282971E-1,1.140535355E0,-1.505638123E0,1.931958503E0
4.597048336E0,-4.667627811E-1,1.317930222E0,-2.115260601E0,2.535573894E0
4.602073857E0,-4.383430481E-1,1.418699265E0,-2.874270678E0,3.235163699E0
4.607099377E0,-2.972685993E-1,1.442998886E0,-3.800370693E0,4.075957778E0
4.612124898E0,-2.511268854E-2,1.395780563E0,-4.886794090E0,5.082282018E0
4.617150419E0,3.818099797E-1,1.320241928E0,-5.930111885E0,6.087285485E0
4.622175940E0,7.406711578E-1,1.201994896E0,-6.359494686E0,6.514334821E0
4.627201461E0,9.217077494E-1,1.079115868E0,-6.117680550E0,6.280131491E0
4.632226982E0,8.869451284E-1,9.321222305E-1,-5.349862099E0,5.502412924E0
4.637252502E0,6.852442026E-1,7.271976471E-1,-4.235524654E0,4.351786430E0
4.642278023E0,3.898422122E-1,4.928159714E-1,-2.954427242E0,3.020510696E0
4.647303544E0,4.542714357E-2,2.288322449E-1,-1.605191708E0,1.622056793E0
4.652329065E0,2.175736427E-1,1.360664368E-1,8.130220771E-1,8.525592431E-1
4.657354586E0,2.459218025E0,6.827468872E-1,1.146967602E1,1.175020700E1
4.662380107E0,2.356238604E0,5.050773621E-1,9.948548317E0,1.023623843E1
4.667405627E0,2.040749788E0,-1.085987091E-1,4.868202209E0,5.279758151E0
4.672431148E0,2.913889885E0,-7.679843903E-2,6.583990574E0,7.200387777E0
4.677456669E0,4.422437191E0,2.206336021E0,9.450317383E0,1.066463164E1
4.682482190E0,2.723526478E0,2.071451664E0,8.559507728E-1,3.527202886E0
4.687507711E0,3.403610229E0,4.782285690E-1,1.627102494E0,3.802726349E0
4.692533232E0,3.634315491E0,-5.648231506E-2,1.919148922E0,4.110300710E0
4.697558752E0,3.581861019E0,-2.228975296E-1,1.987457395E0,4.102364996E0
4.702584273E0,3.427058220E0,-3.325119019E-1,1.950199962E0,3.957091368E0
4.707609794E0,3.140254974E0,-5.529565811E-1,1.395465612E0,3.480558369E0
4.712635315E0,2.816346169E0,-7.838611603E-1,6.162003875E-1,2.987632336E0
4.717660836E0,2.139777660E0,-8.913803101E-1,-3.713807166E-1,2.347579803E0
4.722686357E0,1.422993898E0,-1.062073708E0,-1.143708825E0,2.112103708E0
4.727711877E0,8.483250141E-1,-1.147584915E0,-1.612886429E0,2.153603747E0
4.732737398E0,4.016455412E-1,-1.124093056E0,-1.429133654E0,1.862076083E0
4.737762919E0,-7.950615883E-2,-1.187804222E0,-6.079441309E-1,1.336710951E0
4.742788440E0,-7.046275139E-1,-1.305061340E0,3.702003658E-1,1.528637742E0
4.747813961E0,-1.328947544E0,-1.552070618E0,1.121114612E0,2.330648568E0
4.752839482E0,-1.893769503E0,-1.751395226E0,1.653990507E0,3.064218132E0
4.757865002E0,-2.269202232E0,-1.745011330E0,2.154900789E0,3.583007218E0
4.762890523E0,-2.564946651E0,-1.542540550E0,2.441898584E0,3.862803564E0
4.767916044E0,-2.828557014E0,-1.335363388E0,2.458134413E0,3.978235156E0
4.772941565E0,-2.964231491E0,-1.152060509E0,2.467393875E0,4.025163883E0
4.777967086E0,-2.995876551E0,-9.877042770E-1,2.364759684E0,3.942451573E0
4.782992607E0,-3.014479876E0,-8.135061264E-1,2.203539610E0,3.821579248E0
4.788018127E0,-2.919919968E0,-6.342878342E-1,1.950890064E0,3.568504689E0
4.793043648E0,-2.822675228E0,-4.883584976E-1,1.597846270E0,3.280107036E0
4.798069169E0,-2.665734529E0,-3.422698975E-1,1.102413774E0,2.904927778E0
4.803094690E0,-2.425980091E0,-1.818580627E-1,8.240156770E-1,2.568550874E0
4.808120211E0,-2.195143461E0,-1.213550568E-2,6.189422607E-1,2.280765575E0
4.813145732E0,-2.093323946E0,8.063983917E-2,2.817586958E-1,2.113739787E0
4.818171252E0,-2.048813820E0,1.538925171E-1,1.094513535E-1,2.057498621E0
4.823196773E0,-2.028203487E0,2.554283142E-1,1.876451671E-1,2.052818482E0
4.828222294E0,-2.126955986E0,2.896175385E-1,1.712075919E-1,2.153400131E0
4.833247815E0,-2.220323563E0,3.140277863E-1,2.608013451E-1,2.257535717E0
4.838273336E0,-2.465635777E0,2.810335159E-1,3.075774014E-1,2.500588626E0
4.843298857E0,-2.790125370E0,1.623315811E-1,2.541789711E-1,2.806378106E0
4.848324377E0,-3.178512812E0,3.966617584E-2,2.204326987E-1,3.186394149E0
4.853349898E0,-3.553178549E0,-1.200132370E-1,3.114118874E-1,3.568817499E0
4.858375419E0,-3.760337830E0,-2.063169479E-1,3.164566457E-1,3.779266077E0
4.863400940E0,-3.895283937E0,-2.477598190E-1,3.121645451E-1,3.915618544E0
4.868426461E0,-4.067732334E0,-3.015851974E-1,1.838327646E-1,4.083037406E0
4.873451982E0,-4.177168369E0,-2.864179611E-1,-2.953819931E-2,4.187080527E0
4.878477502E0,-4.252320290E0,-2.357683182E-1,-5.962206423E-2,4.259268639E0
4.883503023E0,-4.283962250E0,-8.281135559E-2,5.489489436E-2,4.285114202E0
4.888528544E0,-4.119605064E0,1.530246735E-1,1.604842395E-1,4.125568764E0
4.893554065E0,-3.855931282E0,4.474325180E-1,1.993761659E-1,3.886920731E0
4.898579586E0,-3.837842464E0,6.566991806E-1,2.002209723E-1,3.898766091E0
4.903605107E0,-3.802003145E0,8.478794098E-1,-2.347102761E-2,3.895468945E0
4.908630627E0,-3.629253387E0,1.087787628E0,-2.126920372E-1,3.794733189E0
4.913656148E0,-3.477814436E0,1.347563267E0,-3.145816922E-1,3.743004361E0
4.918681669E0,-3.271619081E0,1.636551857E0,-3.294322789E-1,3.672916964E0
4.923707190E0,-3.140254021E0,1.830216408E0,-3.054246902E-1,3.647488404E0
4.928732711E0,-2.969064236E0,2.048156261E0,-2.765908241E-1,3.617566722E0
4.933758232E0,-2.767841101E0,2.237677097E0,-2.245187759E-1,3.566307871E0
4.938783752E0,-2.565501690E0,2.370062351E0,-1.689066291E-1,3.496787657E0
4.943809273E0,-2.424214602E0,2.450183392E0,-4.831361771E-2,3.447107380E0
4.948834794E0,-2.300909519E0,2.535488605E0,5.065563321E-2,3.424244892E0
4.953860315E0,-2.147932291E0,2.582874298E0,1.179028749E-1,3.361361905E0
4.958886565E0,-2.008121490E0,2.573348999E0,1.580261588E-1,3.267973265E0
4.963911565E0,-1.867334366E0,2.511671543E0,1.520625353E-1,3.133457290E0
4.968936565E0,-1.768654227E0,2.393094540E0,1.002488583E-1,2.977429946E0
4.973961565E0,-1.587617397E0,2.284636974E0,7.967591286E-3,2.782114050E0
4.978986617E0,-1.429870725E0,2.186139584E0,-1.003182828E-1,2.614153845E0
4.984011721E0,-1.328943372E0,2.073623657E0,-2.049734294E-1,2.471440807E0
4.989036877E0,-1.232234716E0,1.961400986E0,-3.197830915E-1,2.338323641E0
4.994062138E0,-1.096877337E0,1.849389076E0,-4.395360053E-1,2.194668938E0
4.999087502E0,-9.947304726E-1,1.766239166E0,-5.541146994E-1,2.101459637E0
5.004112971E0,-9.210076332E-1,1.707108498E0,-6.345010400E-1,2.040849346E0
5.009138544E0,-9.045526981E-1,1.647990227E0,-5.945548415E-1,1.971695420E0
5.014164221E0,-9.261078835E-1,1.564997196E0,-5.016753674E-1,1.886417295E0
5.019189950E0,-9.710841179E-1,1.472571850E0,-4.661840200E-1,1.824499865E0
5.024215732E0,-9.963538647E-1,1.365960598E0,-5.216991305E-1,1.769389545E0
5.029241565E0,-1.016267061E0,1.273874760E0,-6.631578207E-1,1.759356115E0
5.034267450E0,-9.782016277E-1,1.196291924E0,-8.232452273E-1,1.750921328E0
5.039293336E0,-9.155862331E-1,1.123659134E0,-9.731175900E-1,1.745813805E0
5.044319221E0,-7.805542946E-1,1.027286530E0,-1.155606389E0,1.732053333E0
5.049345107E0,-5.875220299E-1,8.976364136E-1,-1.217588186E0,1.622792118E0
5.054370836E0,-3.363995552E-1,7.634963989E-1,-1.064068317E0,1.352158569E0
5.059396357E0,-6.078982353E-2,5.866050720E-1,-7.633848786E-1,9.646540240E-1
5.064421877E0,2.109665871E-1,3.432188034E-1,-5.416357517E-1,6.750372845E-1
5.069447398E0,4.742746353E-1,3.346252441E-2,-3.421843946E-1,5.857869324E-1
5.074472919E0,7.484085560E-1,-3.186521530E-1,-2.611895204E-1,8.543269438E-1
5.079498440E0,1.009484529E0,-6.174507141E-1,-3.559139073E-1,1.235709962E0
5.084523961E0,1.223742247E0,-7.866048813E-1,-3.482896686E-1,1.495860294E0
5.089549482E0,2.097880363E0,-1.352684975E0,-4.391307235E-1,2.534500829E0
5.094575002E0,2.755136490E0,-1.832380295E0,-3.649815321E-1,3.328904646E0
5.099600471E0,3.333569288E0,-2.216472626E0,-2.931156456E-1,4.013894852E0
5.104625940E0,3.846884727E0,-2.514823914E0,-2.375536263E-1,4.602096604E0
5.109651409E0,4.303799152E0,-2.684708595E0,-2.503645122E-1,5.078683862E0
5.114676877E0,4.851869106E0,-2.755134583E0,-3.641614318E-1,5.591423248E0
5.119702346E0,5.437209129E0,-2.702546120E0,-5.590091944E-1,6.097498661E0
5.124727815E0,6.001518250E0,-2.579849243E0,-7.669708729E-1,6.577392168E0
5.129753284E0,6.367485046E0,-2.267597198E0,-9.823890328E-1,6.830223355E0
5.134778752E0,7.041934967E0,-1.923889160E0,-8.704177141E-1,7.351722559E0
5.139804221E0,7.149287224E0,-1.357454300E0,-7.377740145E-1,7.314321601E0
5.144829690E0,7.144957542E0,-9.558639526E-1,-4.892599881E-1,7.225196850E0
5.149855159E0,6.700808048E0,-4.650640488E-1,-1.686229110E-1,6.719043589E0
5.154880627E0,6.111186028E0,3.877735138E-2,2.283348739E-1,6.115573167E0
5.159906096E0,5.220959663E0,4.749403000E-1,5.101673603E-1,5.267281921E0
5.164931565E0,4.138527870E0,6.768369675E-1,7.062999010E-1,4.252573428E0
5.169957034E0,3.086694479E0,5.306911469E-1,8.278223872E-1,3.239537900E0
5.174982502E0,2.149211168E0,1.619863510E-1,8.093843460E-1,2.302270888E0
5.180007971E0,1.461322784E0,-3.568191528E-1,6.765623093E-1,1.649400117E0
5.185033440E0,8.989517689E-1,-1.030152321E0,5.213172436E-1,1.463249724E0
5.190058909E0,6.101214886E-1,-1.671385765E0,4.345956445E-1,1.831570905E0
5.195084377E0,5.164332390E-1,-2.252346039E0,3.634337187E-1,2.339198589E0
5.200109846E0,4.007163048E-1,-2.419748306E0,1.877910197E-1,2.459882292E0
5.205135315E0,8.345227242E-1,-3.040406227E0,-2.106294036E-2,3.152925919E0
5.210160784E0,1.441049099E0,-3.832439423E0,-7.005236149E-1,4.153907530E0
5.215186252E0,1.887414932E0,-4.327617645E0,-1.956845760E0,5.110758744E0
5.220211721E0,2.027715206E0,-4.981178284E0,-2.727917433E0,6.030364796E0
5.225237190E0,2.275978565E0,-6.018147469E0,-2.632411718E0,6.951817664E0
5.230262659E0,1.965266109E0,-6.477140427E0,-2.108015537E0,7.089382800E0
5.235288180E0,1.440017581E0,-6.325465202E0,-1.410248876E0,6.638822377E0
5.240313700E0,8.201649189E-1,-5.630764008E0,-6.839706302E-1,5.731142087E0
5.245339221E0,8.289754391E-2,-4.541725159E0,-9.202513099E-2,4.543413699E0
5.250364742E0,-7.507321835E-1,-3.235407829E0,3.279833198E-1,3.337519392E0
5.255390263E0,-1.577623129E0,-1.926760674E0,6.108898520E-1,2.564076411E0
5.260415784E0,-2.275884867E0,-7.779035568E-1,7.438313961E-1,2.517552585E0
5.265441305E0,-2.657103539E0,1.209192276E-1,7.995414734E-1,2.777424570E0
5.270466825E0,-2.811337948E0,8.993940353E-1,7.785418034E-1,3.052647708E0
5.275492346E0,-2.910492420E0,1.648643970E0,7.335050702E-1,3.424474085E0
5.280517867E0,-2.973573208E0,2.387874603E0,6.787842512E-1,3.873606950E0
5.285543388E0,-3.028981209E0,3.074115753E0,6.094372272E-1,4.358477780E0
5.290568909E0,-3.005013943E0,3.726553440E0,5.159270763E-1,4.814923684E0
5.295594430E0,-2.978471756E0,4.306931496E0,4.223487377E-1,5.253506578E0
5.300619950E0,-2.973454952E0,4.848771572E0,3.860087395E-1,5.700966835E0
5.305645471E0,-2.947135448E0,5.294680595E0,4.308607578E-1,6.074939584E0
5.310670992E0,-2.894942760E0,5.654291630E0,5.374121070E-1,6.374991701E0
5.315696513E0,-2.869761467E0,5.913302422E0,6.193029881E-1,6.601985504E0
5.320722034E0,-2.809484005E0,6.047892570E0,6.429486275E-1,6.699521465E0
5.325747555E0,-2.719104767E0,5.938618660E0,5.846483707E-1,6.557631893E0
5.330773075E0,-2.498685122E0,5.413547516E0,3.878112435E-1,5.974974611E0
5.335798596E0,-2.187273264E0,4.535285473E0,2.019142210E-1,5.039220972E0
5.340824117E0,-1.862022519E0,3.557671070E0,8.031761646E-2,4.016292099E0
5.345849638E0,-1.580940008E0,2.633788586E0,1.895076036E-2,3.071900512E0
5.350875159E0,-1.363425255E0,1.763529301E0,-2.505677938E-2,2.229258142E0
5.355900680E0,-1.218966961E0,9.611864090E-1,-2.261853218E-2,1.552504867E0
5.360926200E0,-1.080554247E0,2.218866348E-1,4.538294673E-2,1.104033863E0
5.365951721E0,-1.062770844E0,-3.444356918E-1,2.215543091E-1,1.138948692E0
5.370977242E0,-1.221728802E0,-8.526172638E-1,5.577145815E-1,1.590793204E0
5.376002763E0,-1.193395972E0,-1.479653358E0,7.754939795E-1,2.053036512E0
5.381028284E0,-1.159378767E0,-1.914509773E0,9.843071699E-1,2.445070020E0
5.386053805E0,-1.157842159E0,-2.200474739E0,1.212139368E0,2.766219332E0
5.391079325E0,-1.159957051E0,-2.342527390E0,1.496363044E0,3.011982286E0
5.396104846E0,-1.232642412E0,-2.417379379E0,1.783231854E0,3.247005732E0
5.401130367E0,-1.246622443E0,-2.386860847E0,2.033548832E0,3.374387807E0
5.406155888E0,-1.201973200E0,-2.222419739E0,2.212881804E0,3.358680536E0
5.411181409E0,-1.127947807E0,-1.976910591E0,2.358822107E0,3.277877892E0
5.416206930E0,-1.063399196E0,-1.688779831E0,2.470748663E0,3.176065825E0
5.421232450E0,-9.706232548E-1,-1.353384018E0,2.505265951E0,3.008340953E0
5.426257971E0,-8.503270149E-1,-1.047409058E0,2.442988634E0,2.790755316E0
5.431283492E0,-7.701193690E-1,-7.087411880E-1,2.346279621E0,2.569129420E0
5.436309013E0,-7.254713178E-1,-3.709573746E-1,2.224838495E0,2.369351037E0
5.441334534E0,-7.451686263E-1,-4.844570160E-2,2.059856176E0,2.191034170E0
5.446360055E0,-8.098628521E-1,2.635822296E-1,1.875530362E0,2.059846492E0
5.451385575E0,-8.760410547E-1,5.412425995E-1,1.696066380E0,1.984195717E0
5.456411096E0,-9.338573813E-1,7.606601715E-1,1.497966766E0,1.922133694E0
5.461436617E0,-9.492510557E-1,9.315071106E-1,1.281665802E0,1.847011178E0
5.466462138E0,-9.603893757E-1,1.092072487E0,1.076082706E0,1.809122456E0
5.471487659E0,-9.525103569E-1,1.237588882E0,8.575319648E-1,1.781646231E0
5.476513180E0,-9.538537264E-1,1.320272446E0,6.121444106E-1,1.740022138E0
5.481538700E0,-9.258083105E-1,1.383260727E0,3.404598832E-1,1.698953854E0
5.486564221E0,-8.682844043E-1,1.436152458E0,5.277246237E-2,1.679058255E0
5.491589742E0,-8.336538672E-1,1.455115318E0,-2.594856620E-1,1.696959684E0
5.496615263E0,-7.787365913E-1,1.459390640E0,-5.857841372E-1,1.754820440E0
5.501640784E0,-7.036526203E-1,1.453859329E0,-9.154995680E-1,1.856602655E0
5.506666305E0,-6.228331327E-1,1.433867455E0,-1.190150738E0,1.964778809E0
5.511691825E0,-5.412412286E-1,1.389990807E0,-1.451823592E0,2.081539875E0
5.516717346E0,-4.351884127E-1,1.341496468E0,-1.690226436E0,2.201333035E0
5.521742867E0,-3.289917111E-1,1.278949738E0,-1.875825047E0,2.294050476E0
5.526768388E0,-2.180297375E-1,1.197690964E0,-1.993906975E0,2.336164728E0
5.531793909E0,-1.454461217E-1,1.073922157E0,-2.020391703E0,2.292694050E0
5.536819430E0,-6.804925203E-2,9.269304276E-1,-2.022086620E0,2.225458384E0
5.541844950E0,-1.441454887E-2,7.759504318E-1,-1.975035191E0,2.122044028E0
5.546870471E0,8.273041248E-2,6.305913925E-1,-1.932146788E0,2.034129060E0
5.551895992E0,2.091286778E-1,5.147686005E-1,-1.841075182E0,1.923091090E0
5.556921513E0,3.314427137E-1,4.045028687E-1,-1.697592497E0,1.776315605E0
5.561947034E0,4.450742006E-1,3.045015335E-1,-1.512012959E0,1.605302281E0
5.566972555E0,5.597611666E-1,2.099037170E-1,-1.289772630E0,1.421585583E0
5.571998075E0,6.756850481E-1,1.636314392E-1,-1.050963640E0,1.260099244E0
5.577023596E0,7.882124782E-1,1.320247650E-1,-7.774022222E-1,1.114927650E0
5.582049117E0,9.070239663E-1,1.149291992E-1,-5.131507516E-1,1.048439264E0
5.587074638E0,1.046486616E0,1.121568680E-1,-2.498192787E-1,1.081722272E0
5.592100159E0,1.163423061E0,1.617927551E-1,-2.667140961E-2,1.174921904E0
5.597125680E0,1.267181158E0,2.444896698E-1,1.698116064E-1,1.301675562E0
5.602151200E0,1.314472675E0,3.839874268E-1,3.006434441E-1,1.402023979E0
5.607176721E0,1.300120592E0,5.370492935E-1,3.749130964E-1,1.455779972E0
5.612202242E0,1.238089323E0,6.605625153E-1,3.304402828E-1,1.441665283E0
5.617227763E0,1.132996917E0,7.402400970E-1,2.442911863E-1,1.375251104E0
5.622253284E0,1.008587003E0,8.000802994E-1,1.408644915E-1,1.295074914E0
5.627278805E0,8.840461969E-1,8.497467041E-1,2.080595493E-2,1.226393097E0
5.632304325E0,7.928088903E-1,8.749837875E-1,-9.608268738E-2,1.184641063E0
5.637329846E0,7.302935719E-1,9.189319611E-1,-2.380224466E-1,1.197672466E0
5.642355367E0,6.917586923E-1,9.577255249E-1,-3.327347040E-1,1.227387735E0
5.647380888E0,7.059409022E-1,9.866399765E-1,-4.229680300E-1,1.284800745E0
5.652406409E0,7.537101507E-1,1.010521889E0,-4.940422773E-1,1.353998246E0
5.657431930E0,8.446700573E-1,1.024600029E0,-5.602994561E-1,1.441252305E0
5.662457450E0,9.595817327E-1,1.024154663E0,-6.214138865E-1,1.534876247E0
5.667482971E0,1.122366548E0,9.661865234E-1,-7.346516252E-1,1.653159422E0
5.672508492E0,1.313798308E0,8.747482300E-1,-8.947748542E-1,1.814351813E0
5.677534013E0,1.514493942E0,7.547464371E-1,-1.058245659E0,1.995800080E0
5.682559534E0,1.695672870E0,5.967454910E-1,-1.200665236E0,2.161714290E0
5.687585055E0,1.862139225E0,4.152612686E-1,-1.316700935E0,2.318125486E0
5.692610575E0,2.028394222E0,1.482067108E-1,-1.372691512E0,2.453697279E0
5.697636096E0,2.166119337E0,-1.659955978E-1,-1.392408013E0,2.580392915E0
5.702661617E0,2.366675854E0,-5.177154541E-1,-1.328054428E0,2.762772602E0
5.707687138E0,2.644888163E0,-9.356718063E-1,-1.146632671E0,3.030788941E0
5.712712659E0,3.025243282E0,-1.348172188E0,-8.632276654E-1,3.422692970E0
5.717738180E0,3.488997936E0,-1.764996529E0,-5.745669603E-1,3.952018034E0
5.722763700E0,4.040889740E0,-2.229375839E0,-3.150390387E-1,4.625814103E0
5.727789221E0,4.622889042E0,-2.727020264E0,-1.377316713E-1,5.369051371E0
5.732814742E0,5.233627319E0,-3.234032631E0,-1.242548227E-1,6.153475541E0
5.737840263E0,5.742324352E0,-3.702468872E0,-3.027797937E-1,6.839169564E0
5.742865784E0,6.152324200E0,-4.122581482E0,-5.718551874E-1,7.427906131E0
5.747891305E0,6.490956306E0,-4.508505821E0,-8.778786063E-1,7.951717384E0
5.752916825E0,6.799969673E0,-4.874320984E0,-1.186296463E0,8.450200702E0
5.757942346E0,7.059419155E0,-5.258008957E0,-1.448238134E0,8.920731511E0
5.762967867E0,7.274066448E0,-5.630639076E0,-1.701187611E0,9.354687509E0
5.767993388E0,7.539774418E0,-5.963306427E0,-2.001515865E0,9.819128657E0
5.773018909E0,7.751530647E0,-6.193701744E0,-2.391199589E0,1.020617480E1
5.778044430E0,8.005035400E0,-6.293040276E0,-2.821074009E0,1.056604970E1
5.783069950E0,8.204137802E0,-6.280431747E0,-3.261252642E0,1.083454977E1
5.788095471E0,8.334129333E0,-6.165468216E0,-3.672445297E0,1.099807095E1
5.793120992E0,8.428173065E0,-5.800021172E0,-4.010892868E0,1.098915868E1
5.798146513E0,8.423403740E0,-5.222759247E0,-4.252290726E0,1.078484683E1
5.803172034E0,8.367129326E0,-4.434224129E0,-4.334763527E0,1.041447894E1
5.808197555E0,8.000329018E0,-3.569020271E0,-4.335858822E0,9.774601875E0
5.813223075E0,7.380437374E0,-2.728178978E0,-4.337970734E0,8.985088005E0
5.818248596E0,6.693830013E0,-1.960047722E0,-4.404485703E0,8.249160056E0
5.823274117E0,6.006839752E0,-1.298547745E0,-4.569851398E0,7.658452315E0
5.828299638E0,5.294674873E0,-7.345123291E-1,-4.868200302E0,7.229969886E0
5.833325159E0,4.594964504E0,-3.353214264E-1,-5.185139656E0,6.936267909E0
5.838350680E0,3.959678411E0,-6.310272217E-2,-5.468470573E0,6.751829788E0
5.843376200E0,3.325972080E0,8.163452148E-2,-5.623264313E0,6.533747470E0
5.848401721E0,2.717460871E0,1.030845642E-1,-5.584043026E0,6.211018960E0
5.853427242E0,2.124266148E0,-1.374530792E-2,-5.252861023E0,5.666149003E0
5.858452763E0,1.484874249E0,-2.837486267E-1,-4.585379601E0,4.828153984E0
5.863478284E0,7.906715870E-1,-7.120752335E-1,-3.685760975E0,3.836280316E0
5.868503805E0,-2.826249599E-2,-1.279685020E0,-2.786174536E0,3.066131286E0
5.873529325E0,-1.007727385E0,-1.881228447E0,-2.002900839E0,2.926798032E0
5.878554846E0,-2.149207592E0,-2.502049446E0,-1.231111407E0,3.520650508E0
5.883580367E0,-3.339138269E0,-3.093769073E0,-4.706264138E-1,4.576323927E0
5.888605888E0,-4.454262257E0,-3.684296608E0,3.555873632E-1,5.791453714E0
5.893631409E0,-5.572702408E0,-4.353940964E0,1.334207177E0,7.196660533E0
5.898656930E0,-6.595609188E0,-4.957920074E0,2.250160456E0,8.552558337E0
5.903682450E0,-7.257737637E0,-5.370768547E0,2.950429916E0,9.498681334E0
5.908707971E0,-7.634525299E0,-5.677714348E0,3.158016682E0,1.002474369E1
5.913733492E0,-7.921385288E0,-5.873140335E0,3.251945496E0,1.038350961E1
5.918759013E0,-8.098739624E0,-5.970700264E0,3.419181347E0,1.062683613E1
5.923784534E0,-8.166609764E0,-5.950722694E0,3.649874926E0,1.074365872E1
5.928810055E0,-8.063414574E0,-5.793809891E0,3.843036652E0,1.064686895E1
5.933835575E0,-7.900197983E0,-5.538221359E0,3.921755075E0,1.041466211E1
5.938861096E0,-7.745096684E0,-5.184136391E0,3.728471041E0,1.003809190E1
5.943886617E0,-7.408025265E0,-4.645830154E0,3.303099155E0,9.347354715E0
5.948912138E0,-6.914834023E0,-3.904914856E0,2.800771475E0,8.420665677E0
5.953937659E0,-6.325029373E0,-2.990988731E0,2.338099718E0,7.376904531E0
5.958963180E0,-5.827075958E0,-2.072305679E0,1.763628006E0,6.431146771E0
5.963988700E0,-5.350265980E0,-1.225799561E0,1.012085438E0,5.581419851E0
5.969014221E0,-4.871397018E0,-4.516248703E-1,1.239686683E-1,4.893857596E0
5.974039742E0,-4.476945877E0,2.071809769E-1,-7.597123384E-1,4.545671697E0
5.979065263E0,-4.157473087E0,7.364244461E-1,-1.636673927E0,4.528311493E0
5.984090784E0,-3.898713112E0,1.169797421E0,-2.514471531E0,4.784449500E0
5.989116305E0,-3.662476301E0,1.540958405E0,-3.128004074E0,5.056945219E0
5.994141825E0,-3.558689594E0,1.811840057E0,-3.371226788E0,5.226108119E0
5.999167346E0,-3.582151413E0,2.049685001E0,-3.311220407E0,5.291237845E0
6.004192867E0,-3.565217018E0,2.316753864E0,-3.063346148E0,5.240439912E0
6.009218388E0,-3.622358084E0,2.531832695E0,-2.647580624E0,5.151828611E0
6.014243909E0,-3.676599026E0,2.671175003E0,-2.170146465E0,5.036079028E0
6.019269430E0,-3.679656982E0,2.825875282E0,-1.670559645E0,4.931147549E0
6.024294950E0,-3.588437080E0,2.981544971E0,-1.216984272E0,4.821570472E0
6.029320471E0,-3.479613781E0,3.095054150E0,-7.963703871E-1,4.724539983E0
6.034345992E0,-3.334236383E0,3.190247059E0,-4.053155184E-1,4.632395625E0
6.039371513E0,-3.200282574E0,3.224033833E0,2.638249099E-2,4.542785351E0
6.044397034E0,-3.106748104E0,3.239422321E0,4.679429233E-1,4.512727705E0
6.049422555E0,-2.991839647E0,3.159788609E0,8.889318705E-1,4.441347588E0
6.054448075E0,-2.899154902E0,3.032955647E0,1.297114849E0,4.391631363E0
6.059473596E0,-2.876931667E0,2.839799404E0,1.647812724E0,4.365373208E0
6.064499117E0,-2.882631779E0,2.594637871E0,1.978114367E0,4.353693616E0
6.069524638E0,-2.921552896E0,2.316576004E0,2.272644043E0,4.366566919E0
6.074550159E0,-3.070476055E0,2.015231609E0,2.530600309E0,4.460147931E0
6.079575680E0,-3.286474228E0,1.738469601E0,2.741906166E0,4.619657869E0
6.084601200E0,-3.607895374E0,1.495837212E0,2.915881634E0,4.874095167E0
6.089626721E0,-4.072511673E0,1.320975304E0,2.990577698E0,5.222440239E0
6.094652242E0,-4.636619091E0,1.233165741E0,2.961625338E0,5.638276242E0
6.099677763E0,-5.227444172E0,1.218345642E0,2.872804642E0,6.087983671E0
6.104703284E0,-5.796186447E0,1.262462616E0,2.696266651E0,6.516091086E0
6.109728805E0,-6.308224678E0,1.356336594E0,2.466670990E0,6.907808141E0
6.114754325E0,-6.738900185E0,1.509745598E0,2.252184629E0,7.263913757E0
6.119779846E0,-7.073383808E0,1.689313412E0,2.111096859E0,7.572533806E0
6.124805367E0,-7.306534767E0,1.904705524E0,2.024833202E0,7.817499788E0
6.129830888E0,-7.476351738E0,2.122483730E0,1.960494280E0,8.015254850E0
6.134856409E0,-7.582911491E0,2.337767601E0,1.951919794E0,8.171639672E0
6.139881930E0,-7.664421082E0,2.540959358E0,1.965783238E0,8.310483062E0
6.144907450E0,-7.711319923E0,2.722412586E0,1.940193295E0,8.404780501E0
6.149932971E0,-7.723444939E0,2.858217716E0,1.884969711E0,8.448320605E0
6.154958492E0,-7.671991825E0,2.972280025E0,1.838714957E0,8.430585971E0
6.159984013E0,-7.514144897E0,3.035724163E0,1.816050291E0,8.305181117E0
6.165009534E0,-7.264345646E0,3.034133434E0,1.759895802E0,8.066840558E0
6.170035055E0,-6.951666832E0,2.981677532E0,1.713440180E0,7.755768814E0
6.175060575E0,-6.567034721E0,2.868540287E0,1.695804715E0,7.364117194E0
6.180086096E0,-6.106212616E0,2.737516403E0,1.687762618E0,6.901331120E0
6.185111617E0,-5.603424072E0,2.559550285E0,1.646090746E0,6.376462479E0
6.190137138E0,-5.154830456E0,2.310489178E0,1.594910145E0,5.869784974E0
6.195162659E0,-4.732241154E0,1.932719231E0,1.496086240E0,5.326141568E0
6.200188180E0,-4.445910454E0,1.349686146E0,1.220767021E0,4.803961342E0
6.205213700E0,-4.348239899E0,4.802751541E-1,6.263276339E-1,4.419291883E0
6.210239221E0,-3.888604641E0,-6.846637726E-1,-6.929676533E-1,4.008767230E0
6.215264742E0,-2.473923445E0,-2.053822517E0,-4.227886677E0,5.311639097E0
6.220290263E0,8.980545998E-1,-3.445512772E0,-9.307479858E0,9.965301884E0
6.225315784E0,4.825110435E0,-4.707586288E0,-1.091509628E1,1.282896669E1
6.230341305E0,7.256437302E0,-5.941452980E0,-9.243449211E0,1.316807120E1
6.235366825E0,8.852391243E0,-7.644821167E0,-5.913876534E0,1.310656542E1
6.240392346E0,9.833501816E0,-8.922825813E0,-2.717901468E0,1.355365511E1
6.245417867E0,1.025848675E1,-9.110990524E0,-6.428233385E-1,1.373535295E1
6.250443388E0,1.148919773E1,-9.057523727E0,6.615857482E-1,1.464507072E1
6.255468909E0,1.240289879E1,-8.811042786E0,9.824262857E-1,1.524570545E1
6.260494430E0,1.338584137E1,-8.496304512E0,8.392297029E-1,1.587678324E1
6.265519950E0,1.346210480E1,-7.658915520E0,5.600222349E-1,1.549841532E1
6.270545471E0,1.249568081E1,-6.241558075E0,2.394654751E-1,1.396984001E1
6.275570992E0,1.150865459E1,-4.492944717E0,2.394050360E-1,1.235690081E1
6.280596513E0,9.986660957E0,-2.862383842E0,4.975947738E-2,1.038889380E1
6.285622034E0,8.377893448E0,-1.607197762E0,-3.990908563E-1,8.539991615E0
6.290647555E0,7.315762520E0,-9.224224091E-1,-6.510936618E-1,7.402375788E0
6.295673075E0,6.958074570E0,-5.154380798E-1,-5.583870411E-1,6.999448137E0
6.300698596E0,6.395565987E0,-3.189821243E-1,-2.288449109E-1,6.407603599E0
6.305724117E0,5.615079880E0,-2.466831207E-1,1.328559816E-1,5.622065931E0
6.310749638E0,4.484331131E0,-2.026290894E-1,3.462140560E-1,4.502238156E0
6.315775159E0,3.363197327E0,-2.058429718E-1,2.712760270E-1,3.380393212E0
6.320800680E0,2.547265530E0,-3.138685226E-1,2.097827792E-1,2.575089113E0
6.325826200E0,2.005748272E0,-6.226301193E-1,2.852554619E-1,2.119449238E0
6.330851721E0,1.722115278E0,-1.323688507E0,2.265035510E-1,2.183835194E0
6.335877242E0,1.765774965E0,-2.689738274E0,-9.510635138E-1,3.355171384E0
6.340902763E0,2.206382751E0,-4.409428596E0,-2.648527384E0,5.596952983E0
6.345928284E0,2.760024071E0,-6.530212402E0,-3.297420740E0,7.818848408E0
6.350953805E0,2.554109097E0,-8.066692352E0,-3.021088600E0,8.984540896E0
6.355979325E0,1.947805285E0,-9.215817451E0,-2.562626839E0,9.761777146E0
6.361004846E0,1.056605935E0,-9.332379341E0,-2.509369373E0,9.721453334E0
6.366030367E0,-3.629207611E-2,-8.450632095E0,-2.698698521E0,8.871159655E0
6.371055888E0,-1.161031246E0,-6.886683464E0,-2.966951847E0,7.587964546E0
6.376081409E0,-2.094994068E0,-4.917878151E0,-3.088832855E0,6.173768222E0
6.381106930E0,-2.721633434E0,-3.012742043E0,-2.946498156E0,5.016548071E0
6.386132450E0,-3.016043663E0,-1.472193718E0,-2.516004562E0,4.194538434E0
6.391157971E0,-3.006916285E0,-3.102540970E-1,-1.828711748E0,3.532985962E0
6.396183492E0,-2.804683685E0,6.693143845E-1,-1.247022867E0,3.141543944E0
6.401209013E0,-2.634494543E0,1.605134487E0,-7.642582655E-1,3.178224176E0
6.406234534E0,-2.534706831E0,2.540061474E0,-3.542517722E-1,3.605848767E0
6.411260055E0,-2.428968906E0,3.445199966E0,-1.433694363E-2,4.215388275E0
6.416285575E0,-2.327027559E0,4.248721123E0,2.488883436E-1,4.850632314E0
6.421311096E0,-2.362756491E0,5.003330231E0,4.246996641E-1,5.549441543E0
6.426336617E0,-2.469176769E0,5.632534504E0,5.361725688E-1,6.173310285E0
6.431362138E0,-2.660190344E0,6.136591911E0,5.828105807E-1,6.713720364E0
6.436387659E0,-2.968939781E0,6.606600285E0,7.360692620E-1,7.280354985E0
6.441413180E0,-3.285030127E0,7.119214058E0,8.512756228E-1,7.886653404E0
6.446438700E0,-3.728446960E0,7.588243008E0,1.098455071E0,8.525805078E0
6.451464221E0,-4.213285446E0,7.779394627E0,1.275182128E0,8.938503480E0
6.456489742E0,-4.690773964E0,7.635880947E0,1.525385141E0,9.090480628E0
6.461515263E0,-5.082382202E0,7.192065239E0,1.783280253E0,8.985349170E0
6.466540784E0,-5.123210907E0,6.381799698E0,1.920950770E0,8.406230382E0
6.471566305E0,-4.702992439E0,5.440013409E0,1.825082541E0,7.419084179E0
6.476591825E0,-4.262773514E0,4.500636578E0,1.693416476E0,6.426089557E0
6.481617346E0,-4.032457352E0,3.553984165E0,1.603607297E0,5.609195317E0
6.486642867E0,-3.844712734E0,2.604726315E0,1.499051690E0,4.879915076E0
6.491668388E0,-3.628157139E0,1.705326557E0,1.351748109E0,4.230707487E0
6.496693909E0,-3.354784250E0,8.842287064E-1,1.191125631E0,3.668135499E0
6.501719430E0,-3.025305510E0,1.028909683E-1,1.122995019E0,3.228649530E0
6.506744950E0,-2.531139851E0,-6.294660568E-1,1.161697268E0,2.855247275E0
6.511770471E0,-2.036794186E0,-1.284543037E0,1.345312238E0,2.758341238E0
6.516795992E0,-1.677526355E0,-1.915275574E0,1.639581561E0,3.028300330E0
6.521821513E0,-1.425687313E0,-2.411884308E0,2.019553185E0,3.453746559E0
6.526847034E0,-1.219854832E0,-2.922899246E0,2.479132175E0,4.022124085E0
6.531872555E0,-1.070604801E0,-3.347991943E0,2.911829472E0,4.564427189E0
6.536898075E0,-1.031259537E0,-3.625164032E0,3.292643547E0,5.004679013E0
6.541923596E0,-1.063863754E0,-3.730704308E0,3.654160976E0,5.329432724E0
6.546949117E0,-1.178073406E0,-3.650470734E0,3.981161594E0,5.528421218E0
6.551974638E0,-1.373479605E0,-3.384636879E0,4.186891556E0,5.556282384E0
6.557000159E0,-1.649425268E0,-2.919023514E0,4.156631470E0,5.340307778E0
6.562025680E0,-1.952077627E0,-2.311143875E0,3.910031319E0,4.943717021E0
6.567051200E0,-2.218068838E0,-1.628016472E0,3.524323702E0,4.471143540E0
6.572076721E0,-2.364912510E0,-9.078702927E-1,3.105777025E0,4.007853612E0
6.577102242E0,-2.391987801E0,-1.793889999E-1,2.678934336E0,3.595896999E0
6.582127763E0,-2.332207203E0,5.192136765E-1,2.244507074E0,3.278198482E0
6.587153284E0,-2.199752092E0,1.121023178E0,1.783918381E0,3.045975545E0
6.592178805E0,-2.061608791E0,1.616586685E0,1.355235696E0,2.949618130E0
6.597204325E0,-1.884307146E0,2.025161266E0,9.399858713E-1,2.921551816E0
6.602229846E0,-1.753981352E0,2.342081070E0,5.770075917E-1,2.982403742E0
6.607255367E0,-1.608255267E0,2.553146362E0,2.715832591E-1,3.029653251E0
6.612280888E0,-1.480482578E0,2.668089390E0,2.880614996E-2,3.051452023E0
6.617306409E0,-1.365564823E0,2.706202030E0,-1.989676952E-1,3.037743383E0
6.622331930E0,-1.248858094E0,2.638957500E0,-4.303729534E-1,2.951095408E0
6.627357450E0,-1.129981875E0,2.476129532E0,-6.171379685E-1,2.790866491E0
6.632382971E0,-1.013438225E0,2.222676277E0,-7.830092907E-1,2.565238862E0
6.637408492E0,-8.652824759E-1,1.902715206E0,-9.179541469E-1,2.282910146E0
6.642434013E0,-7.091815472E-1,1.549846649E0,-1.002780676E0,1.977506558E0
6.647459534E0,-5.542600751E-1,1.159383774E0,-1.056487322E0,1.663592627E0
6.652485055E0,-3.762766123E-1,8.031330109E-1,-1.117311239E0,1.426531152E0
6.657510575E0,-1.608300805E-1,5.097579956E-1,-1.180215001E0,1.295618377E0
6.662536096E0,5.859303474E-2,2.265596390E-1,-1.273774505E0,1.295092237E0
6.667561617E0,3.010402918E-1,-8.248329163E-3,-1.345286369E0,1.378582137E0
6.672587138E0,5.708772540E-1,-2.139101028E-1,-1.375551581E0,1.504593142E0
6.677612659E0,8.534482121E-1,-3.618593216E-1,-1.350557327E0,1.638084587E0
6.682638180E0,1.143768668E0,-4.809770584E-1,-1.275617242E0,1.779535064E0
6.687663700E0,1.446614504E0,-5.810508728E-1,-1.137487411E0,1.929816378E0
6.692689221E0,1.752299309E0,-6.145162582E-1,-1.095306039E0,2.155893879E0
6.697714742E0,2.074862480E0,-5.290250778E-1,-1.168788791E0,2.439464917E0
6.702740263E0,2.379970789E0,-3.152322769E-1,-1.482004404E0,2.821341773E0
6.707765784E0,2.694665670E0,-3.542327881E-2,-1.852120161E0,3.269988834E0
6.712791305E0,2.959598541E0,2.482786179E-1,-2.144190788E0,3.663116151E0
6.717816825E0,3.177648783E0,5.264539719E-1,-2.348121643E0,3.986010640E0
6.722842346E0,3.289975405E0,7.849407196E-1,-2.444416285E0,4.173157206E0
6.727867867E0,3.295664787E0,9.856338501E-1,-2.385429621E0,4.186066764E0
6.732893388E0,3.127634287E0,1.171714783E0,-2.190904140E0,3.994380142E0
6.737918909E0,2.858364582E0,1.300124168E0,-1.885783076E0,3.662888034E0
6.742944430E0,2.565676928E0,1.375602722E0,-1.576451421E0,3.310616261E0
6.747969950E0,2.303709030E0,1.407662392E0,-1.321078300E0,3.005634139E0
6.752995471E0,2.111806870E0,1.410597801E0,-1.168004751E0,2.795308482E0
6.758020992E0,2.000528097E0,1.417892456E0,-1.155338407E0,2.710597447E0
6.763046513E0,1.970500946E0,1.391288757E0,-1.244387865E0,2.714232773E0
6.768072034E0,2.022153616E0,1.340519905E0,-1.400614619E0,2.801396112E0
6.773097555E0,2.174482822E0,1.246669769E0,-1.603717089E0,2.975646074E0
6.778123075E0,2.393600464E0,1.109990120E0,-1.819133401E0,3.204785106E0
6.783148596E0,2.635781288E0,9.451103210E-1,-2.012384892E0,3.448227004E0
6.788174117E0,2.890551805E0,7.714061737E-1,-2.149288416E0,3.683720663E0
6.793199638E0,3.118793011E0,6.177797318E-1,-2.200646877E0,3.866699926E0
6.798225159E0,3.276987076E0,5.560731888E-1,-2.151914835E0,3.959621086E0
6.803250680E0,3.331673861E0,4.809894562E-1,-1.984148383E0,3.907460349E0
6.808276200E0,3.364470959E0,3.494691849E-1,-1.659481049E0,3.767714280E0
6.813301721E0,3.447676182E0,1.471033096E-1,-1.250449419E0,3.670386109E0
6.818327242E0,3.615352631E0,-1.405582428E-1,-7.340862155E-1,3.691803602E0
6.823352763E0,3.819916010E0,-5.614547729E-1,-1.737957001E-1,3.864866716E0
6.828378284E0,4.109372616E0,-1.125181198E0,3.289043903E-1,4.273307165E0
6.833403805E0,4.402278900E0,-1.783886909E0,7.301286459E-1,4.805767354E0
6.838429325E0,4.703143597E0,-2.537521362E0,1.134631991E0,5.463145990E0
6.843454846E0,5.016394138E0,-3.309561729E0,1.522387981E0,6.199602742E0
6.848480367E0,5.308228970E0,-4.104846001E0,1.849685669E0,6.960487954E0
6.853505888E0,5.630793095E0,-4.899439812E0,1.987119436E0,7.723922902E0
6.858531409E0,5.940157413E0,-5.602377892E0,1.973267674E0,8.400350793E0
6.863556930E0,6.244850159E0,-6.218383789E0,1.722654104E0,8.979642956E0
6.868582450E0,6.548349380E0,-6.742507935E0,1.365594387E0,9.497743989E0
6.873607971E0,6.754087448E0,-7.337208748E0,9.128820896E-1,1.001427397E1
6.878633492E0,6.918797016E0,-7.815619469E0,4.902102947E-1,1.044959166E1
6.883659013E0,7.113692760E0,-8.201642990E0,1.653640270E-1,1.085812680E1
6.888684534E0,7.228238106E0,-8.524012566E0,-4.685032368E-2,1.117624317E1
6.893710055E0,7.258160591E0,-8.696825027E0,-1.320700645E-1,1.132842016E1
6.898735575E0,7.199145317E0,-8.443065643E0,-1.528556347E-1,1.109668489E1
6.903761096E0,6.880099773E0,-7.648755074E0,-1.001850367E-1,1.028830715E1
6.908786617E0,6.317259312E0,-6.491885185E0,-3.722763062E-2,9.058351084E0
6.913812138E0,5.661443710E0,-5.221895218E0,-3.853771687E-1,7.711591931E0
6.918837659E0,5.029958248E0,-3.972804070E0,-1.444376826E0,6.570378723E0
6.923863180E0,4.553920746E0,-2.772784233E0,-3.458648443E0,6.355216410E0
6.928888700E0,4.325257301E0,-1.668441772E0,-7.166006565E0,8.534822714E0
6.933914221E0,4.318490028E0,-7.583065033E-1,-1.168271732E1,1.247839208E1
6.938939742E0,4.369933605E0,-1.511478424E-1,-1.394813538E1,1.461744320E1
6.943965263E0,4.266201973E0,2.531023026E-1,-1.346646690E1,1.412834990E1
6.948990784E0,3.924813509E0,5.577983856E-1,-1.146564865E1,1.213162805E1
6.954016305E0,3.419328451E0,7.509307861E-1,-9.241698265E0,9.882544760E0
6.959041825E0,2.830256939E0,8.110933304E-1,-7.348320484E0,7.916188519E0
6.964067346E0,2.167938232E0,7.507562637E-1,-5.688879490E0,6.134080289E0
6.969092867E0,1.352969527E0,5.064287186E-1,-4.005167961E0,4.257742006E0
6.974118388E0,2.739672065E-1,8.247661591E-2,-2.463984966E0,2.480540735E0
6.979143909E0,-8.065446615E-1,-3.820590973E-1,-1.267107010E0,1.549852773E0
6.984169430E0,-1.851314664E0,-9.056854248E-1,-5.019081831E-1,2.121212836E0
6.989194950E0,-2.851803780E0,-1.444530487E0,-1.276234984E-1,3.199334444E0
6.994220471E0,-3.790255070E0,-1.930852890E0,5.146604031E-2,4.254042211E0
6.999245992E0,-4.672970295E0,-2.426069260E0,2.123595178E-1,5.269493334E0
7.004271513E0,-5.487422943E0,-2.972313881E0,4.687290788E-1,6.258287890E0
7.009297034E0,-6.259421349E0,-3.554113388E0,9.618813396E-1,7.262044706E0
7.014322555E0,-6.861854553E0,-4.055395126E0,1.788028717E0,8.168740676E0
7.019348075E0,-7.665583611E0,-4.369705200E0,2.415639639E0,9.148268169E0
7.024373596E0,-8.233344078E0,-4.558135033E0,2.753620863E0,9.805456519E0
7.029399117E0,-8.407016754E0,-4.892433167E0,3.141183615E0,1.022158831E1
7.034424638E0,-8.411972046E0,-5.223418236E0,3.682212353E0,1.056428226E1
7.039450159E0,-8.292066574E0,-5.383226395E0,4.121556282E0,1.071096264E1
7.044475680E0,-7.967308998E0,-5.395858765E0,4.128941059E0,1.047098175E1
7.049501200E0,-7.458854675E0,-5.252207756E0,3.815851450E0,9.888423619E0
7.054526721E0,-6.993619919E0,-5.019898415E0,3.490743399E0,9.289531158E0
7.059552242E0,-6.573573589E0,-4.604001999E0,3.055229187E0,8.587381995E0
7.064577763E0,-6.238554478E0,-4.014837265E0,2.578699827E0,7.854181882E0
7.069603284E0,-5.946866035E0,-3.281781197E0,2.192129135E0,7.137277745E0
7.074628805E0,-5.718868732E0,-2.467608452E0,1.862939239E0,6.501160947E0
7.079654325E0,-5.622098923E0,-1.596525192E0,1.467496753E0,6.025814111E0
7.084679846E0,-5.522364616E0,-7.402210236E-1,9.013589025E-1,5.644190464E0
7.089705367E0,-5.424161911E0,2.979373932E-2,2.374678850E-1,5.429439299E0
7.094730888E0,-5.245784760E0,7.330493927E-1,-4.603657126E-1,5.316724155E0
7.099756409E0,-4.953894615E0,1.341082096E0,-1.118712783E0,5.252722279E0
7.104781930E0,-4.658940792E0,1.863616943E0,-1.716885924E0,5.303441778E0
7.109807450E0,-4.323106289E0,2.324657917E0,-2.301251411E0,5.421165970E0
7.114832971E0,-3.932840586E0,2.724114418E0,-2.875180483E0,5.581639297E0
7.119858492E0,-3.417068958E0,3.124090672E0,-3.370413780E0,5.726778487E0
7.124884013E0,-3.001494408E0,3.399944305E0,-3.609498978E0,5.796298200E0
7.129909534E0,-2.705707788E0,3.570663452E0,-3.592695713E0,5.742643521E0
7.134935055E0,-2.548962593E0,3.636150360E0,-3.344753265E0,5.559332167E0
7.139960575E0,-2.483023882E0,3.658652306E0,-2.924401999E0,5.301251865E0
7.144986096E0,-2.550395250E0,3.595191956E0,-2.357157707E0,4.998611166E0
7.150011617E0,-2.635683537E0,3.469820023E0,-1.673829556E0,4.667781494E0
7.155037138E0,-2.743286610E0,3.292209625E0,-9.387795329E-1,4.386977621E0
7.160062659E0,-2.843962431E0,3.053021908E0,-1.974755526E-1,4.177087702E0
7.165088180E0,-2.903949022E0,2.781155109E0,5.094701648E-1,4.053061006E0
7.170113700E0,-2.990020752E0,2.495946884E0,1.194159508E0,4.073817850E0
7.175139221E0,-3.011414051E0,2.159214497E0,1.730154872E0,4.089530255E0
7.180164742E0,-3.092738628E0,1.799787998E0,2.240304470E0,4.221757120E0
7.185190263E0,-3.234284401E0,1.451171875E0,2.622770309E0,4.409696077E0
7.190215784E0,-3.402726889E0,1.166009426E0,2.876822948E0,4.605891720E0
7.195241305E0,-3.751207829E0,9.538531303E-1,3.059429884E0,4.933711299E0
7.200266825E0,-4.365415096E0,8.339190483E-1,3.151305676E0,5.448210477E0
7.205292346E0,-5.024423599E0,8.590435982E-1,3.224102259E0,6.031386556E0
7.210317867E0,-5.670214176E0,9.289050102E-1,3.187114239E0,6.570531979E0
7.215343388E0,-6.239769936E0,1.091637135E0,3.103312016E0,7.053860358E0
7.220368909E0,-6.708685875E0,1.275592804E0,2.997410536E0,7.457752550E0
7.225394430E0,-7.157632351E0,1.495346069E0,2.889317751E0,7.862309953E0
7.230419950E0,-7.562080860E0,1.751019001E0,2.751327991E0,8.235346999E0
7.235445471E0,-7.864224434E0,2.047421932E0,2.617802382E0,8.537613942E0
7.240470992E0,-8.054386139E0,2.374886513E0,2.432348251E0,8.742398986E0
7.245496513E0,-8.123035431E0,2.680647850E0,2.186384916E0,8.828921594E0
7.250522034E0,-8.098967552E0,2.959805012E0,1.981415391E0,8.847583177E0
7.255547555E0,-7.968055725E0,3.197833538E0,1.760821700E0,8.764504803E0
7.260573075E0,-7.745035172E0,3.384953499E0,1.568539977E0,8.596731801E0
7.265598596E0,-7.439806938E0,3.530552864E0,1.404960036E0,8.354007631E0
7.270624117E0,-7.067197800E0,3.586561203E0,1.246634960E0,8.022643251E0
7.275649638E0,-6.618363380E0,3.519232750E0,1.074891329E0,7.572524305E0
7.280675159E0,-6.146477699E0,3.309299946E0,9.142254591E-1,7.040345335E0
7.285700680E0,-5.752308846E0,3.004563808E0,7.509067655E-1,6.533017810E0
7.290726200E0,-5.435993195E0,2.624112129E0,5.712091923E-1,6.063189459E0
7.295751721E0,-5.183050156E0,2.167985439E0,3.851938844E-1,5.631389181E0
7.300777242E0,-5.007882118E0,1.626595497E0,9.286871552E-2,5.266243521E0
7.305802763E0,-5.001401424E0,9.616842270E-1,-4.580858946E-1,5.113579514E0
7.310828284E0,-5.115892410E0,-1.758861542E-1,-2.477064610E0,5.686751285E0
7.315853805E0,-3.964081764E0,-2.019677162E0,-1.181135941E1,1.262145994E1
7.320879325E0,1.300559521E0,-3.760615349E0,-2.074086952E1,2.111912288E1
7.325904846E0,5.814728737E0,-5.065337181E0,-1.750645065E1,1.912967657E1
7.330930367E0,7.173810482E0,-6.618867874E0,-1.117157841E1,1.483499690E1
7.335955888E0,7.679262161E0,-8.282037735E0,-5.173865795E0,1.242304728E1
7.340981409E0,8.299783707E0,-9.246120453E0,-7.556324005E-1,1.244781641E1
7.346006930E0,8.766761780E0,-9.134257317E0,1.445794344E0,1.274288390E1
7.351032450E0,1.028258801E1,-9.282665253E0,2.663052082E0,1.410642891E1
7.356057971E0,1.185177803E1,-9.462236404E0,2.856593847E0,1.543239089E1
7.361083492E0,1.354746437E1,-9.362565994E0,1.982587934E0,1.658680463E1
7.366109013E0,1.346931362E1,-8.596643448E0,1.261672974E0,1.602861525E1
7.371134534E0,1.216062069E1,-7.571311951E0,6.092766523E-1,1.433794540E1
7.376160055E0,1.079141617E1,-6.697511673E0,1.411601603E-1,1.270162398E1
7.381185575E0,9.735990524E0,-5.807151794E0,-2.781150341E-1,1.133974741E1
7.386211096E0,8.131018639E0,-5.129114151E0,-6.422233582E-1,9.635026047E0
7.391236617E0,6.631821632E0,-4.389703751E0,-6.882910728E-1,7.982750264E0
7.396262138E0,5.294553757E0,-3.387576103E0,-1.993705928E-1,6.288697796E0
7.401287659E0,4.412771225E0,-2.280750275E0,6.846786737E-1,5.014295223E0
7.406313180E0,3.622152805E0,-1.414007187E0,1.698296309E0,4.243067006E0
7.411338700E0,2.982781410E0,-1.184548378E0,2.222521782E0,3.903811326E0
7.416364221E0,2.677783012E0,-1.616135597E0,1.608839750E0,3.517212173E0
7.421389742E0,2.952507973E0,-2.488391876E0,-2.306301892E-1,3.868150429E0
7.426415263E0,3.874999523E0,-3.834515572E0,-2.417839289E0,5.963646351E0
7.431440784E0,4.638006210E0,-5.285796165E0,-3.739147902E0,7.964418983E0
7.436466305E0,4.436168671E0,-6.344719887E0,-4.155544758E0,8.786558778E0
7.441491825E0,3.328574896E0,-6.868049622E0,-3.908723831E0,8.574825854E0
7.446517346E0,2.139954090E0,-6.822834969E0,-3.315192938E0,7.881686668E0
7.451542867E0,7.388072014E-1,-6.008725166E0,-2.377494812E0,6.504083009E0
7.456568388E0,-7.322285771E-1,-4.660649300E0,-1.343410254E0,4.905360506E0
7.461593909E0,-1.871918797E0,-3.161348343E0,-5.845655203E-1,3.720204319E0
7.466619430E0,-2.477044106E0,-1.768877983E0,-2.363904566E-1,3.052958773E0
7.471644950E0,-2.628466368E0,-6.789922714E-1,-1.884312481E-1,2.721281368E0
7.476670471E0,-2.604198217E0,1.373882294E-1,-1.621153951E-1,2.612853858E0
7.481695992E0,-2.591130257E0,8.814315796E-1,-4.234281182E-2,2.737274292E0
7.486721513E0,-2.565344810E0,1.687114239E0,2.037119418E-1,3.077149169E0
7.491747034E0,-2.378870964E0,2.511246681E0,4.456024468E-1,3.487685264E0
7.496772555E0,-2.104403496E0,3.320194244E0,5.818745494E-1,3.973761679E0
7.501798075E0,-1.953199506E0,4.113859177E0,6.644696593E-1,4.602210943E0
7.506823596E0,-1.982797027E0,4.844401836E0,8.026798964E-1,5.295659375E0
7.511849117E0,-2.116327763E0,5.526296139E0,9.434386492E-1,5.992400913E0
7.516874638E0,-2.348632812E0,6.092723846E0,1.143497586E0,6.629098482E0
7.521900159E0,-2.726995230E0,6.563075066E0,1.564558268E0,7.277245349E0
7.526925680E0,-3.087997437E0,6.913731575E0,2.147507668E0,7.870654461E0
7.531951200E0,-3.316435814E0,7.207153320E0,2.589468956E0,8.345487102E0
7.536976721E0,-3.417049885E0,7.433932304E0,2.865737200E0,8.669027000E0
7.542002242E0,-3.523926258E0,7.546346664E0,3.023825884E0,8.860526352E0
7.547027763E0,-3.617845535E0,7.444117546E0,3.073201180E0,8.828831058E0
7.552053284E0,-3.636365891E0,6.792739391E0,2.789901972E0,8.194389443E0
7.557078805E0,-3.612864017E0,5.798487186E0,2.367198467E0,7.230412757E0
7.562104325E0,-3.471110106E0,4.772515774E0,1.907532692E0,6.201950753E0
7.567129846E0,-3.154285908E0,3.819925785E0,1.427037001E0,5.155364894E0
7.572155367E0,-2.845144033E0,2.926093578E0,9.463948607E-1,4.189574135E0
7.577180888E0,-2.554302216E0,2.042927742E0,5.722998977E-1,3.320472969E0
7.582206409E0,-2.253793240E0,1.184638977E0,3.392708898E-1,2.568668567E0
7.587231930E0,-2.044851542E0,3.510971069E-1,2.430655360E-1,2.088963346E0
7.592257450E0,-1.875281096E0,-3.908290863E-1,2.599700093E-1,1.933135010E0
7.597282971E0,-1.774188757E0,-1.065198898E0,4.328667223E-1,2.114182593E0
7.602308492E0,-1.732274532E0,-1.686463356E0,7.134120464E-1,2.520692455E0
7.607334013E0,-1.816561699E0,-2.211641312E0,1.062373757E0,3.052849767E0
7.612359534E0,-1.892929792E0,-2.750823021E0,1.450083494E0,3.640460497E0
7.617385055E0,-1.985151529E0,-3.155703545E0,1.904063463E0,4.186257174E0
7.622410575E0,-2.145731926E0,-3.440782547E0,2.432397127E0,4.728605060E0
7.627436096E0,-2.254908085E0,-3.544032097E0,2.885292530E0,5.096046208E0
7.632461617E0,-2.389153481E0,-3.470462799E0,3.218699217E0,5.302093081E0
7.637487138E0,-2.514890671E0,-3.234662056E0,3.431885242E0,5.344674922E0
7.642512659E0,-2.593882084E0,-2.798613548E0,3.486181974E0,5.168551714E0
7.647538180E0,-2.621275425E0,-2.267811775E0,3.400940180E0,4.855970470E0
7.652563700E0,-2.649674416E0,-1.651979446E0,3.191084862E0,4.464620162E0
7.657589221E0,-2.597371578E0,-1.003829956E0,2.823855162E0,3.965875902E0
7.662614742E0,-2.574008942E0,-3.568611145E-1,2.333994150E0,3.492907182E0
7.667640263E0,-2.512258530E0,2.459020615E-1,1.861176133E0,3.136221826E0
7.672665784E0,-2.468966961E0,7.376136780E-1,1.468365669E0,2.965799982E0
7.677691305E0,-2.419778109E0,1.194955826E0,1.151071548E0,2.933975329E0
7.682716825E0,-2.311731100E0,1.594091415E0,8.523294330E-1,2.934568722E0
7.687742346E0,-2.197232008E0,1.925553799E0,5.295118690E-1,2.969169707E0
7.692767867E0,-2.057054043E0,2.155975342E0,2.501217127E-1,2.990361497E0
7.697793388E0,-1.910141706E0,2.299860954E0,-1.422089338E-2,2.989682923E0
7.702818909E0,-1.742082596E0,2.362134933E0,-2.486987710E-1,2.945570283E0
7.707844430E0,-1.567230821E0,2.371615410E0,-4.435128570E-1,2.877060262E0
7.712869950E0,-1.390339851E0,2.318816185E0,-6.081340909E-1,2.771241685E0
7.717895471E0,-1.206602097E0,2.194274902E0,-7.566964626E-1,2.615974102E0
7.722920992E0,-9.968071580E-1,2.017239094E0,-8.698499799E-1,2.412367522E0
7.727946513E0,-7.896728516E-1,1.792540073E0,-9.430416822E-1,2.173961992E0
7.732972034E0,-5.852828622E-1,1.515433311E0,-9.764015675E-1,1.895377053E0
7.737997555E0,-3.500654697E-1,1.233789444E0,-1.008374333E0,1.631441394E0
7.743023075E0,-9.835222363E-2,9.476089478E-1,-1.086739779E0,1.445212519E0
7.748048596E0,1.507168710E-1,6.569042206E-1,-1.187358022E0,1.365305022E0
7.753074117E0,3.779752851E-1,3.760442734E-1,-1.329045057E0,1.432003972E0
7.758099638E0,6.120929718E-1,1.194057465E-1,-1.511302352E0,1.634916003E0
7.763125159E0,7.907623053E-1,-1.034097672E-1,-1.680873036E0,1.860465739E0
7.768150680E0,9.904654622E-1,-2.923812866E-1,-1.837204456E0,2.107564676E0
7.773176200E0,1.163255930E0,-4.570608139E-1,-1.946387410E0,2.313113248E0
7.778201721E0,1.332823515E0,-5.687561035E-1,-1.984303117E0,2.457104167E0
7.783227242E0,1.522910595E0,-6.227712631E-1,-1.941589117E0,2.544969357E0
7.788252763E0,1.723862052E0,-6.192722321E-1,-1.871540904E0,2.618752342E0
7.793278284E0,1.921225667E0,-5.392913818E-1,-1.726910830E0,2.638970305E0
7.798303805E0,2.076563597E0,-3.926258087E-1,-1.561246037E0,2.627500825E0
7.803329325E0,2.232885122E0,-1.986646652E-1,-1.380455256E0,2.632660314E0
7.808354846E0,2.389939308E0,3.282737732E-2,-1.252405882E0,2.698408425E0
7.813380367E0,2.532762766E0,2.634677887E-1,-1.182364464E0,2.807541314E0
7.818405888E0,2.665371180E0,4.980258942E-1,-1.170580149E0,2.953386395E0
7.823431409E0,2.748864889E0,7.317361832E-1,-1.150149107E0,3.068312075E0
7.828456930E0,2.801744461E0,9.359645844E-1,-1.116325736E0,3.157844974E0
7.833482450E0,2.809632778E0,1.139456749E0,-1.117111802E0,3.231151004E0
7.838507971E0,2.791630030E0,1.289687157E0,-1.166517973E0,3.288959618E0
7.843533492E0,2.781408072E0,1.386787415E0,-1.259413123E0,3.353435792E0
7.848559013E0,2.822128057E0,1.445269585E0,-1.371306419E0,3.454517657E0
7.853584534E0,2.942183733E0,1.465314865E0,-1.492076039E0,3.609693017E0
7.858610055E0,3.079124451E0,1.442309380E0,-1.592592001E0,3.754678816E0
7.863635575E0,3.223128319E0,1.342948914E0,-1.677302122E0,3.873681757E0
7.868661096E0,3.359551907E0,1.215267181E0,-1.741162419E0,3.974306217E0
7.873686617E0,3.483551025E0,1.068954468E0,-1.769615650E0,4.050843239E0
7.878712138E0,3.637962341E0,8.610715866E-1,-1.738726139E0,4.123030786E0
7.883737659E0,3.760584354E0,6.108694077E-1,-1.615063906E0,4.138065676E0
7.888763180E0,3.937664986E0,2.896690369E-1,-1.399127126E0,4.188874599E0
7.893788700E0,4.097804070E0,-6.427383423E-2,-1.086702585E0,4.239935356E0
7.898814221E0,4.284543514E0,-4.797372818E-1,-6.784964204E-1,4.364380641E0
7.903839742E0,4.536252975E0,-8.850221634E-1,-1.657739878E-1,4.624752567E0
7.908865263E0,4.838686466E0,-1.280280113E0,3.644070625E-1,5.018445615E0
7.913890784E0,5.134357929E0,-1.689540863E0,8.155936003E-1,5.466385698E0
7.918916305E0,5.380040646E0,-2.122401237E0,1.048642278E0,5.877846118E0
7.923941825E0,5.575236797E0,-2.593068123E0,1.011353135E0,6.231380489E0
7.928967346E0,5.714374065E0,-3.053421974E0,7.191393375E-1,6.518789619E0
7.933992867E0,5.825310230E0,-3.474451065E0,4.030150175E-1,6.794738449E0
7.939018388E0,5.926488876E0,-3.908555031E0,2.360250950E-1,7.103223260E0
7.944043909E0,6.050926208E0,-4.365095139E0,2.233860493E-1,7.464426627E0
7.949069430E0,6.155457973E0,-4.729217529E0,1.881321669E-1,7.764699287E0
7.954094950E0,6.287808418E0,-5.005763054E0,6.837344170E-2,8.037342433E0
7.959120471E0,6.371103764E0,-5.218608856E0,-1.972737312E-1,8.237946254E0
7.964145992E0,6.457740784E0,-5.386822701E0,-5.456465483E-1,8.427218105E0
7.969171513E0,6.504358292E0,-5.519906044E0,-8.802575469E-1,8.576181719E0
7.974197034E0,6.525109291E0,-5.660870552E0,-1.195686579E0,8.720789704E0
7.979222555E0,6.629978180E0,-5.781000137E0,-1.362242460E0,8.901251472E0
7.984248075E0,6.747021675E0,-5.832615852E0,-1.284545064E0,9.010647323E0
7.989273596E0,6.862216949E0,-5.686959267E0,-9.205247164E-1,8.959848934E0
7.994299117E0,6.866058350E0,-5.205988884E0,-4.201325178E-1,8.626794819E0
7.999324638E0,6.668488026E0,-4.543598175E0,-1.246391535E-1,8.070226257E0
8.004350159E0,6.380578041E0,-3.791144371E0,-3.116275072E-1,7.428436140E0
8.009375680E0,6.127185345E0,-3.020522118E0,-9.559705257E-1,6.897813694E0
8.014401200E0,5.989562035E0,-2.255508423E0,-1.954745293E0,6.692025162E0
8.019426721E0,5.871693134E0,-1.495785713E0,-3.486020088E0,6.990457154E0
8.024452242E0,5.739164352E0,-7.838802338E-1,-5.936163902E0,8.294004917E0
8.029477763E0,5.527548313E0,-2.340373993E-1,-8.303249359E0,9.977600602E0
8.034503284E0,5.122953892E0,9.640979767E-2,-9.235368729E0,1.056153336E1
8.039528805E0,4.612730980E0,2.593002319E-1,-8.654034615E0,9.810037656E0
8.044554325E0,3.965990305E0,2.341032028E-1,-7.325608730E0,8.333572264E0
8.049579846E0,3.268054247E0,-1.414966583E-2,-5.772665024E0,6.633554119E0
8.054605367E0,2.400088310E0,-4.485464096E-1,-4.159387589E0,4.823082302E0
8.059630888E0,1.407302380E0,-1.007941246E0,-2.683350563E0,3.193245338E0
8.064656409E0,3.638980985E-1,-1.697759628E0,-1.398364663E0,2.229402008E0
8.069681930E0,-6.177102923E-1,-2.456006050E0,-2.617301047E-1,2.545983969E0
8.074707450E0,-1.611310482E0,-3.244256973E0,6.318532825E-1,3.677059062E0
8.079732971E0,-2.589827061E0,-4.028585434E0,1.304972172E0,4.963834926E0
8.084758492E0,-3.530762434E0,-4.827481270E0,2.159689903E0,6.358861475E0
8.089784013E0,-4.669628620E0,-5.582665443E0,2.484203100E0,7.690438866E0
8.094809534E0,-5.667514801E0,-6.049178123E0,2.429675102E0,8.638090130E0
8.099835055E0,-6.520830154E0,-6.345613480E0,2.634507418E0,9.472521611E0
8.104860575E0,-7.327009678E0,-6.604643822E0,3.151822805E0,1.035569302E1
8.109886096E0,-8.169204712E0,-6.724275589E0,3.607917070E0,1.117894688E1
8.114911617E0,-8.853919029E0,-6.813202858E0,3.515352964E0,1.171193075E1
8.119937138E0,-9.160375595E0,-6.927725792E0,3.287302256E0,1.194622207E1
8.124962659E0,-9.070062637E0,-6.861477852E0,3.040185452E0,1.177236774E1
8.129988180E0,-8.776003838E0,-6.585783958E0,2.775480747E0,1.131786584E1
8.135013700E0,-8.386067390E0,-6.139496803E0,2.666355610E0,1.072981824E1
8.140039221E0,-7.893709183E0,-5.600024223E0,2.641632318E0,1.003240436E1
8.145064742E0,-7.306913853E0,-4.853598595E0,2.415258646E0,9.098455017E0
8.150090263E0,-6.815080166E0,-3.958742142E0,2.037383556E0,8.140509122E0
8.155115784E0,-6.591998100E0,-3.140933037E0,1.678265095E0,7.492427712E0
8.160141305E0,-6.508814812E0,-2.534064293E0,1.321132660E0,7.108554255E0
8.165166825E0,-6.531988144E0,-2.003819466E0,9.106357098E-1,6.892852745E0
8.170192346E0,-6.599054337E0,-1.487645149E0,3.816535175E-1,6.775416270E0
8.175217867E0,-6.575970650E0,-8.991470337E-1,-1.874921918E-1,6.639804869E0
8.180243388E0,-6.486712456E0,-1.998672485E-1,-6.995608807E-1,6.527386217E0
8.185268909E0,-6.293245792E0,5.863380432E-1,-1.172682643E0,6.428368338E0
8.190294430E0,-6.005411148E0,1.416447163E0,-1.620788813E0,6.379517380E0
8.195319950E0,-5.623594284E0,2.218705654E0,-2.158334255E0,6.419180182E0
8.200345471E0,-5.114925861E0,2.945233345E0,-2.756061792E0,6.514041958E0
8.205370992E0,-4.432399750E0,3.619848251E0,-3.465752125E0,6.690359235E0
8.210396513E0,-3.782521248E0,4.156279087E0,-3.999714613E0,6.897814134E0
8.215422034E0,-3.246947289E0,4.506610870E0,-4.081023216E0,6.892529196E0
8.220447555E0,-2.983844280E0,4.708919525E0,-3.663870335E0,6.670921646E0
8.225473075E0,-2.878016233E0,4.715331078E0,-3.000105381E0,6.286330958E0
8.230498596E0,-2.804987907E0,4.640594482E0,-2.198153973E0,5.851064450E0
8.235524117E0,-2.869936228E0,4.475058556E0,-1.323484182E0,5.478530223E0
8.240549638E0,-3.015346527E0,4.190021992E0,-4.795122147E-1,5.184450881E0
8.245575159E0,-3.198200941E0,3.838176250E0,2.741238475E-1,5.003521767E0
8.250600680E0,-3.413555145E0,3.424480438E0,9.643248916E-1,4.930451044E0
8.255626200E0,-3.584784269E0,2.982598782E0,1.532383680E0,4.908642734E0
