"Time (s)","Linear Acceleration x (m/s^2)","Linear Acceleration y (m/s^2)","Linear Acceleration z (m/s^2)","Absolute acceleration (m/s^2)"
0.000000000E0,6.868791580E-2,1.096673012E-1,-5.658636093E-1,5.804709907E-1
0.000000000E0,1.162178516E-1,1.144826412E-1,-5.569095612E-1,5.803112298E-1
0.000000000E0,1.422908306E-1,1.079075336E-1,-5.687742233E-1,5.961500092E-1
0.000000000E0,1.853103638E-1,1.230921745E-1,-5.680465698E-1,6.100561612E-1
3.107510000E-3,2.546973228E-1,1.499333382E-1,-5.451993942E-1,6.201557156E-1
8.133031000E-3,2.978272438E-1,1.595549583E-1,-5.097513199E-1,6.115596946E-1
1.315855100E-2,2.909896374E-1,1.612777710E-1,-4.188947678E-1,5.349376739E-1
1.818349900E-2,2.912843227E-1,1.929373741E-1,-3.821287155E-1,5.177776958E-1
2.320844700E-2,2.841906548E-1,2.256855965E-1,-3.893880844E-1,5.322794351E-1
2.823339500E-2,3.029334545E-1,2.926986217E-1,-4.307479858E-1,6.024823552E-1
3.325839500E-2,2.903349400E-1,3.081085682E-1,-4.393949509E-1,6.101583319E-1
3.828344700E-2,2.941937447E-1,2.865414619E-1,-3.823356628E-1,5.611029566E-1
4.330855100E-2,2.623047829E-1,1.949095726E-1,-2.885751724E-1,4.359692314E-1
4.833370800E-2,1.949913502E-1,9.527492523E-2,-2.010488510E-1,2.958370810E-1
5.335896800E-2,1.064088345E-1,2.066683769E-2,-1.004877090E-1,1.478098031E-1
5.838433300E-2,-8.652925491E-3,3.895521164E-3,3.767967224E-3,1.021008236E-2
6.340980100E-2,-1.364195347E-1,-3.665089607E-2,2.259731293E-1,2.664909619E-1
6.843537400E-2,-2.727100849E-1,-1.015906334E-1,4.658584595E-1,5.492864020E-1
7.346099900E-2,-4.040251970E-1,-1.771209240E-1,6.524419785E-1,7.875841014E-1
7.848667600E-2,-5.122766495E-1,-2.399547100E-1,7.390384674E-1,9.306897898E-1
8.351240600E-2,-5.697401762E-1,-2.526128292E-1,7.314500809E-1,9.609559463E-1
8.853818700E-2,-5.251723528E-1,-2.301247120E-1,6.496543884E-1,8.664953593E-1
9.356396800E-2,-4.417068958E-1,-1.823301315E-1,5.655870438E-1,7.404309304E-1
9.858974900E-2,-3.909363747E-1,-1.474952698E-1,4.982452393E-1,6.502571969E-1
1.036155310E-1,-3.441350460E-1,-5.415296555E-2,3.049669266E-1,4.629970841E-1
1.086413120E-1,-3.583061695E-1,-2.103877068E-2,1.148586273E-1,3.768533471E-1
1.136669370E-1,-2.999484539E-1,6.221151352E-2,-1.672935486E-1,3.490365007E-1
1.186923530E-1,-2.312315702E-1,1.437695026E-1,-3.938093185E-1,4.787728985E-1
1.237177700E-1,-1.565036774E-1,2.004916668E-1,-4.419755936E-1,5.099340495E-1
1.287431870E-1,-8.429455757E-2,2.235429287E-1,-3.801193237E-1,4.489629313E-1
1.337686030E-1,-7.525753975E-2,2.086598873E-1,-3.044185638E-1,3.766607331E-1
1.387940200E-1,-1.043992043E-1,1.661174297E-1,-2.960109711E-1,3.551291164E-1
1.438194370E-1,-1.091957092E-1,1.345155239E-1,-3.640527725E-1,4.031780627E-1
1.488448530E-1,-1.180458069E-1,1.236789227E-1,-4.558658600E-1,4.868726432E-1
1.538702700E-1,-7.360959053E-2,1.148381233E-1,-5.049629211E-1,5.230618683E-1
1.588956870E-1,-9.251594543E-3,1.366870403E-1,-5.260820389E-1,5.436278604E-1
1.639211030E-1,7.039892673E-2,1.700398922E-1,-5.385293961E-1,5.691076210E-1
1.689465200E-1,-2.424793243E-1,7.263588905E-2,-7.135515213E-1,7.571181999E-1
1.739719370E-1,-4.822812080E-1,-7.277178764E-2,-9.507188797E-1,1.068530432E0
1.789973530E-1,-8.273839951E-3,3.344035149E-2,-7.462224960E-1,7.470172201E-1
1.840227700E-1,5.506621599E-1,1.748485565E-1,-3.360071182E-1,6.683574011E-1
1.890481870E-1,6.135742664E-1,2.455480099E-1,1.285457611E-2,6.610086578E-1
1.940736030E-1,3.408174515E-1,3.070230484E-1,8.755970001E-2,4.669972040E-1
1.990990200E-1,1.238628626E-1,3.163731098E-1,2.359294891E-2,3.405738989E-1
2.041244370E-1,8.492922783E-2,3.023035526E-1,2.653312683E-2,3.151260359E-1
2.091498530E-1,1.316667795E-1,2.408387661E-1,7.234001160E-2,2.838530066E-1
2.141752700E-1,1.966592073E-1,1.603283882E-1,2.510690689E-1,3.569533769E-1
2.192006870E-1,2.511863708E-1,8.883738518E-2,4.620647430E-1,5.333765093E-1
2.242261030E-1,2.477660179E-1,3.034496307E-2,6.672677994E-1,7.124290368E-1
2.292515200E-1,1.721316576E-1,8.150815964E-3,8.051691055E-1,8.234033227E-1
2.342769370E-1,7.648670673E-2,-1.155972481E-2,9.097404480E-1,9.130232890E-1
2.393023530E-1,-1.563966274E-2,-2.445340157E-2,9.766664505E-1,9.770977041E-1
2.443277700E-1,-6.170713902E-2,-1.629400253E-2,9.872608185E-1,9.893215803E-1
2.493531870E-1,-5.737149715E-2,-1.100015640E-2,9.182319641E-1,9.200882740E-1
2.543786030E-1,-3.581619263E-2,-3.203082085E-2,8.223037720E-1,8.237064201E-1
2.594040200E-1,-5.870985985E-2,-3.605127335E-2,7.897720337E-1,7.927713461E-1
2.644294370E-1,-4.043698311E-2,-4.208517075E-2,9.198303223E-1,9.216800600E-1
2.694548530E-1,1.400744915E-2,-7.482051849E-3,1.044932365E0,1.045053031E0
2.744802700E-1,3.407311440E-2,5.810022354E-3,1.015463829E0,1.016051929E0
2.795056870E-1,1.619803905E-2,2.214336395E-2,8.477478027E-1,8.481916305E-1
2.845311030E-1,2.308571339E-2,6.110143661E-2,6.565322876E-1,6.597734311E-1
2.895565200E-1,5.997502804E-2,7.047152519E-2,4.655656815E-1,4.746731966E-1
2.945819370E-1,1.321990490E-1,7.462525368E-2,2.363796234E-1,2.809285379E-1
2.996073530E-1,2.354329824E-1,5.973529816E-2,-1.206779480E-2,2.431925713E-1
3.046327700E-1,4.019954205E-1,-2.288103104E-3,-2.749271393E-1,4.870220584E-1
3.096581870E-1,3.187071085E-1,7.567739487E-2,-1.454420090E-1,3.584057297E-1
3.146836030E-1,2.683014870E-1,1.207666397E-1,-2.094936371E-2,2.949731259E-1
3.197090200E-1,2.604608536E-1,1.371798515E-1,-5.912399292E-2,3.002562480E-1
3.247344370E-1,3.385686874E-1,7.682132721E-2,-2.214851379E-1,4.118081334E-1
3.297598530E-1,7.467815876E-1,-1.843633652E-1,-4.984273911E-1,9.165710306E-1
3.347852700E-1,6.327679157E-1,-2.489278316E-1,-5.980415344E-1,9.055462315E-1
3.398106870E-1,3.793731928E-1,-2.221450806E-1,-6.496639252E-1,7.844333445E-1
3.448361030E-1,2.439171076E-1,-1.757473946E-1,-6.627769470E-1,7.277746791E-1
3.498615200E-1,1.249430180E-1,-1.529021263E-1,-6.372652054E-1,6.671557239E-1
3.548869890E-1,1.941533089E-1,-2.059316635E-1,-6.401348114E-1,6.999113759E-1
3.599124580E-1,3.892544508E-1,-4.444048405E-1,-5.997285843E-1,8.418367208E-1
3.649379260E-1,-9.721028805E-2,-2.563464642E-1,-1.096315384E-1,2.952666998E-1
3.699633950E-1,-1.632828712E-1,-6.189346313E-3,-3.608798981E-2,1.673378232E-1
3.749888640E-1,-1.384932995E-1,7.634067535E-2,3.257846832E-2,1.614609839E-1
3.800143330E-1,-1.271159649E-1,6.789708138E-2,8.665943146E-2,1.681616462E-1
3.850398010E-1,9.135425091E-2,-4.092049599E-2,-7.956790924E-2,1.278715697E-1
3.900652700E-1,3.135904074E-1,-1.815834045E-1,-2.678842545E-1,4.506367164E-1
3.950907390E-1,5.258280039E-1,-2.545063496E-1,-3.314161301E-1,6.716436726E-1
4.001162080E-1,6.184606552E-1,-3.317615986E-1,-3.375263214E-1,7.787704142E-1
4.051416760E-1,4.514949322E-1,-3.138890266E-1,-2.093219757E-2,5.502837011E-1
4.101671450E-1,5.079467297E-1,-3.678240776E-1,-3.057537079E-1,6.977032049E-1
4.151926140E-1,4.147362709E-1,-4.495191574E-1,-6.124706268E-1,8.655598859E-1
4.202180830E-1,3.382978439E-1,-4.960730076E-1,-7.890424728E-1,9.915250294E-1
4.252435510E-1,4.706418514E-1,-7.450503111E-1,-1.140088081E0,1.440973474E0
4.302690200E-1,5.138417482E-1,-9.579900503E-1,-9.696435928E-1,1.456704148E0
4.352944890E-1,6.132252216E-1,-8.036353588E-1,-1.492042542E-1,1.021830158E0
4.403199580E-1,8.243976831E-1,-6.222600937E-1,1.233386993E-1,1.040217092E0
4.453454260E-1,9.091556072E-1,-4.708204269E-1,6.139373779E-2,1.025672942E0
4.503708950E-1,9.475753307E-1,-3.443660736E-1,-1.325159073E-1,1.016881245E0
4.553963640E-1,1.048402667E0,-2.620038986E-1,-2.481126785E-1,1.108762417E0
4.604218330E-1,1.194441676E0,-1.853337288E-1,-2.959308624E-1,1.244433439E0
4.654473010E-1,1.332100153E0,-1.995127201E-1,-3.009910583E-1,1.380178162E0
4.704727700E-1,1.108154893E0,-5.697667599E-1,-2.071514130E-1,1.263152063E0
4.754982390E-1,8.305631876E-1,-8.287434578E-1,-2.941417694E-2,1.173676327E0
4.805237080E-1,6.574246883E-1,-7.219442129E-1,4.643726349E-2,9.775311181E-1
4.855491760E-1,5.080114603E-1,-5.373311043E-1,-1.023426056E-1,7.465081167E-1
4.905746450E-1,4.108678102E-1,-4.316051006E-1,-2.746267319E-1,6.561365424E-1
4.956001140E-1,1.544059515E-1,-3.942849636E-1,-3.606576920E-1,5.562156067E-1
5.006255830E-1,-1.784391403E-1,-3.584544659E-1,-2.939348221E-1,4.967170327E-1
5.056510510E-1,-4.495409727E-1,-2.012872696E-1,1.247205734E-1,5.080933698E-1
5.106765200E-1,-5.787971616E-1,-1.467657089E-2,2.332687378E-1,6.242081864E-1
5.157019890E-1,-8.219279647E-1,1.255242825E-1,-8.887863159E-2,8.361945562E-1
5.207274580E-1,-1.055498362E0,1.733090878E-1,-4.916963577E-1,1.177233256E0
5.257529260E-1,-1.165318012E0,1.542639732E-1,-7.422084808E-1,1.390193106E0
5.307783950E-1,-1.056633472E0,1.716423035E-2,-8.324308395E-1,1.345254626E0
5.358038640E-1,-1.038220406E0,-2.555491924E-1,-9.207506180E-1,1.411023990E0
5.408293330E-1,-8.785961270E-1,-6.572613716E-1,-1.079021454E0,1.538899270E0
5.458548010E-1,-6.108329296E-1,-7.864296436E-1,-9.709463120E-1,1.390800199E0
5.508802700E-1,-2.102509737E-1,-8.871146441E-1,-9.636545181E-1,1.326577511E0
5.559057390E-1,8.244047165E-1,-1.020106792E0,-5.584955215E-1,1.425544897E0
5.609312080E-1,1.794579387E0,-1.120221496E0,2.683534622E-1,2.132469216E0
5.659566760E-1,2.576274633E0,-1.099695802E0,1.311593056E0,3.093024117E0
5.709821450E-1,3.182944775E0,-1.033626199E0,2.003045082E0,3.900219245E0
5.760076140E-1,3.570271969E0,-8.718124628E-1,2.358532906E0,4.366872607E0
5.810330830E-1,3.598673820E0,-7.542548180E-1,2.340878487E0,4.358791769E0
5.860585510E-1,3.439383030E0,-6.331439018E-1,2.204400063E0,4.133957724E0
5.910840200E-1,3.143633366E0,-5.034229755E-1,2.054776192E0,3.789191289E0
5.961094890E-1,2.705172539E0,-3.692953587E-1,1.782240868E0,3.260478498E0
6.011349580E-1,2.184693336E0,-2.633230686E-1,1.367901802E0,2.591018980E0
6.061604260E-1,1.661927104E0,-1.414017677E-1,8.788995743E-1,1.885327722E0
6.111858950E-1,1.116501927E0,6.953096390E-2,4.203367233E-1,1.195028899E0
6.162113120E-1,5.854291320E-1,3.610577583E-1,-8.934879303E-2,6.935943917E-1
6.212367280E-1,1.197121143E-1,6.101455688E-1,-6.838703156E-1,9.242765896E-1
6.262621450E-1,-2.437102199E-1,8.712136745E-1,-1.210597038E0,1.511275331E0
6.312875620E-1,-5.009225607E-1,1.092905283E0,-1.612676620E0,2.011489809E0
6.363129780E-1,-7.051918507E-1,1.232830524E0,-1.857064247E0,2.337916651E0
6.413383950E-1,-9.718050957E-1,1.400953531E0,-1.848358154E0,2.514657791E0
6.463638120E-1,-9.988170862E-1,1.491642714E0,-1.974276066E0,2.668407679E0
6.513892280E-1,-9.725962877E-1,1.552338600E0,-2.038530827E0,2.740676303E0
6.564146450E-1,-8.835719824E-1,1.520330906E0,-2.108038425E0,2.745165116E0
6.614400620E-1,-8.227449656E-1,1.442984819E0,-2.182658672E0,2.742829442E0
6.664654780E-1,-8.477361202E-1,1.281537056E0,-2.233542919E0,2.711034439E0
6.714908950E-1,-8.057154417E-1,9.879045486E-1,-2.222371578E0,2.562043755E0
6.765163120E-1,-5.725091100E-1,5.335912704E-1,-2.053625584E0,2.197695239E0
6.815417280E-1,-2.086348832E-1,9.726524353E-3,-1.493300438E0,1.507835972E0
6.865671450E-1,2.895132005E-1,-4.783554077E-1,-1.015524864E0,1.159281044E0
6.915925620E-1,5.560492277E-1,-8.540976048E-1,-1.648352623E0,1.937973125E0
6.966179780E-1,6.574107409E-1,-1.055393934E0,-2.022448063E0,2.374098019E0
7.016433950E-1,7.420064211E-1,-1.040127277E0,-1.645325661E0,2.083155014E0
7.066688120E-1,5.981749296E-1,-9.437608719E-1,-9.863100052E-1,1.490404393E0
7.116942280E-1,3.524083793E-1,-1.006734371E0,-4.327955246E-1,1.151094143E0
7.167196450E-1,2.708408535E-1,-1.286508799E0,-4.053478241E-1,1.375778512E0
7.217450620E-1,7.736338377E-1,-1.055395126E0,-5.447692871E-1,1.417441979E0
7.267704780E-1,1.047244549E0,-1.610143781E0,-6.834392548E-1,2.038718557E0
7.317958950E-1,1.094218016E0,-1.951333046E0,-5.769777298E-1,2.310393261E0
7.368213120E-1,1.256388903E0,-1.734456539E0,-7.232589722E-1,2.260521201E0
7.418467280E-1,1.638029814E0,-1.599709153E0,-1.418846130E0,2.693572978E0
7.468721450E-1,1.956444621E0,-1.479854107E0,-1.964565754E0,3.142795306E0
7.518975620E-1,2.066834688E0,-1.279633999E0,-1.944183826E0,3.112735059E0
7.569229780E-1,1.969742775E0,-9.852063656E-1,-1.927201748E0,2.926538016E0
7.619483950E-1,2.062399864E0,-6.683545113E-1,-2.162090778E0,3.061834007E0
7.669738120E-1,2.144628525E0,-3.524439335E-1,-2.218104839E0,3.105420634E0
7.719992280E-1,2.151339531E0,-1.040022373E-1,-2.162442684E0,3.052087254E0
7.770246450E-1,2.147036076E0,8.228969574E-2,-2.062315464E0,2.978200896E0
7.820500620E-1,2.113091469E0,2.599315643E-1,-1.684115410E0,2.714583704E0
7.870754780E-1,1.990584016E0,4.012894630E-1,-1.388204575E0,2.459790621E0
7.921008950E-1,1.754220486E0,4.445192814E-1,-1.476535797E0,2.335603747E0
7.971263120E-1,1.512481570E0,3.986318111E-1,-1.565859795E0,2.213238513E0
8.021517280E-1,1.292292476E0,3.585207462E-1,-1.526705742E0,2.032089415E0
8.071771450E-1,1.121584773E0,3.764579296E-1,-1.497855186E0,1.908728146E0
8.122025620E-1,8.184751272E-1,4.812347889E-1,-1.364685059E0,1.662484215E0
8.172279780E-1,3.255515099E-1,6.587295532E-1,-1.065347672E0,1.294169259E0
8.222533950E-1,-3.764761686E-1,7.511312962E-1,-7.053232193E-1,1.097001993E0
8.272788120E-1,-8.638531566E-1,5.143909454E-1,-4.469041824E-1,1.100256183E0
8.323042280E-1,-9.240238070E-1,-3.566980362E-3,-4.377193451E-1,1.022463175E0
8.373296450E-1,-7.501477003E-1,-6.450045109E-1,-5.383825302E-1,1.126325060E0
8.423551140E-1,-5.922349691E-1,-1.214011431E0,-5.906257629E-1,1.474247199E0
8.473805830E-1,-3.939983845E-1,-1.653716564E0,-7.662944794E-1,1.864730659E0
8.524060510E-1,-1.755591631E-1,-1.902103901E0,-9.645776749E-1,2.139913634E0
8.574315200E-1,-1.048644781E-1,-1.973832250E0,-9.078798294E-1,2.175145074E0
8.624569890E-1,-2.914988995E-2,-1.917114496E0,-8.832406998E-1,2.110993094E0
8.674824580E-1,-1.010859013E-2,-1.775202155E0,-7.710685730E-1,1.935456437E0
8.725079260E-1,5.419635773E-2,-1.615465879E0,-6.720476151E-1,1.750518566E0
8.775333950E-1,1.699473858E-1,-1.404448986E0,-6.342735291E-1,1.550374786E0
8.825588640E-1,3.861618042E-1,-1.237635255E0,-7.249755859E-1,1.485412927E0
8.875843330E-1,6.127965450E-1,-1.128975630E0,-8.726043701E-1,1.552914668E0
8.926098010E-1,8.263337612E-1,-1.101672888E0,-1.163507462E0,1.802847817E0
8.976352700E-1,9.124796391E-1,-1.178905487E0,-1.420912743E0,2.059473297E0
9.026607390E-1,9.003336430E-1,-1.369276524E0,-1.716978550E0,2.373506732E0
9.076862080E-1,7.468726635E-1,-1.576363087E0,-1.927534580E0,2.599640151E0
9.127116760E-1,4.713621140E-1,-1.823627472E0,-2.014593601E0,2.757967871E0
9.177371450E-1,1.360213757E-1,-2.096589565E0,-2.078772545E0,2.955585376E0
9.227626140E-1,-3.357255459E-1,-2.280540228E0,-1.990928173E0,3.045877602E0
9.277880830E-1,-9.686160088E-1,-2.395121098E0,-1.927795887E0,3.223541380E0
9.328135510E-1,-1.385777831E0,-2.416952133E0,-1.831470013E0,3.334114608E0
9.378390200E-1,-1.674783111E0,-2.385382891E0,-1.782591343E0,3.416516047E0
9.428644890E-1,-1.814234495E0,-2.315821648E0,-1.818272114E0,3.458408621E0
9.478899580E-1,-1.840734482E0,-2.266525507E0,-2.004083633E0,3.541439328E0
9.529154260E-1,-1.776519775E0,-2.242182016E0,-2.333957672E0,3.691986067E0
9.579408950E-1,-1.733766198E0,-2.223153830E0,-2.601272106E0,3.836010265E0
9.629663640E-1,-1.665793896E0,-2.094041824E0,-2.709880352E0,3.808324039E0
9.679918330E-1,-1.543448448E0,-1.878151178E0,-2.683838367E0,3.621142547E0
9.730173010E-1,-1.393580198E0,-1.651220918E0,-2.595530033E0,3.377184099E0
9.780427700E-1,-1.170196056E0,-1.455736518E0,-2.460236073E0,3.088897725E0
9.830682390E-1,-8.990037441E-1,-1.324836254E0,-2.379403591E0,2.867919155E0
9.880937080E-1,-6.254467964E-1,-1.239178419E0,-2.339431286E0,2.720236312E0
9.931191760E-1,-3.859999180E-1,-1.174739003E0,-2.293097973E0,2.605245857E0
9.981446450E-1,-2.462482452E-1,-1.126912951E0,-2.212197781E0,2.494872746E0
1.003170114E0,-2.387738228E-1,-1.148426533E0,-2.159271717E0,2.457305595E0
1.008195583E0,-3.293538094E-1,-1.234568477E0,-2.110657215E0,2.467287404E0
1.013221051E0,-5.557820797E-1,-1.328001738E0,-1.966125965E0,2.436828604E0
1.018246520E0,-8.077805042E-1,-1.472061038E0,-1.811941147E0,2.470344867E0
1.023271989E0,-1.099718571E0,-1.662009120E0,-1.777277946E0,2.670275669E0
1.028297458E0,-1.403592825E0,-1.864057541E0,-1.799548626E0,2.946719972E0
1.033322926E0,-1.692076445E0,-2.005979538E0,-1.887604713E0,3.232665797E0
1.038348395E0,-1.919196129E0,-2.063107491E0,-1.954345226E0,3.429167765E0
1.043373864E0,-2.076905727E0,-2.039379358E0,-1.941593170E0,3.498912632E0
1.048399333E0,-2.161066532E0,-2.005919456E0,-1.719872952E0,3.413485666E0
1.053424801E0,-2.089997053E0,-1.995811939E0,-1.351694584E0,3.190365375E0
1.058450270E0,-1.882116795E0,-2.008958340E0,-9.570994377E-1,2.914501085E0
1.063475739E0,-1.574561596E0,-2.040937424E0,-5.031552315E-1,2.626372969E0
1.068501208E0,-1.223645210E0,-2.082931757E0,1.148166656E-1,2.418490267E0
1.073526676E0,-8.617420197E-1,-2.164792538E0,8.005018234E-1,2.463682043E0
1.078552145E0,-5.597267151E-1,-2.278304815E0,1.443487167E0,2.754563855E0
1.083577614E0,-3.505907059E-1,-2.333866119E0,2.091544628E0,3.153474883E0
1.088603083E0,-2.437324524E-1,-2.361557961E0,2.730424404E0,3.618228701E0
1.093628551E0,-2.440314293E-1,-2.348348141E0,3.274330616E0,4.036772388E0
1.098654020E0,-2.654561996E-1,-2.319184065E0,3.690061569E0,4.366421430E0
1.103679489E0,-3.320646286E-1,-2.303529978E0,3.915696144E0,4.555128271E0
1.108704958E0,-3.867697716E-1,-2.282404900E0,3.942073345E0,4.571532045E0
1.113730374E0,-3.776226044E-1,-2.193321466E0,3.803320885E0,4.406643580E0
1.118755791E0,-3.433675766E-1,-2.040411234E0,3.533321857E0,4.094574782E0
1.123781208E0,-2.841138840E-1,-1.837133050E0,3.256487846E0,3.749732209E0
1.128806624E0,-1.663179398E-1,-1.640102386E0,2.982179165E0,3.407490289E0
1.133832041E0,2.466392517E-2,-1.434125662E0,2.748160362E0,3.099953242E0
1.138857458E0,3.084816933E-1,-1.218737483E0,2.630169392E0,2.915179761E0
1.143882874E0,6.524524689E-1,-1.027033925E0,2.626934528E0,2.895043683E0
1.148908291E0,9.715728760E-1,-8.971474171E-1,2.622050762E0,2.936660951E0
1.153933708E0,1.257346630E0,-8.098395467E-1,2.618818283E0,3.015786770E0
1.158959124E0,1.462885857E0,-7.698672414E-1,2.615800858E0,3.094373075E0
1.163984541E0,1.564927578E0,-6.864057779E-1,2.678857803E0,3.177488056E0
1.169009958E0,1.563598156E0,-6.264207959E-1,2.778760433E0,3.249423295E0
1.174035374E0,1.516133308E0,-5.705664158E-1,2.862784863E0,3.289337838E0
1.179060791E0,1.479474068E0,-5.137539506E-1,2.955142975E0,3.344496470E0
1.184086208E0,1.477141857E0,-4.462407827E-1,3.089493752E0,3.453411436E0
1.189111624E0,1.504053116E0,-4.061999023E-1,3.241969109E0,3.596878902E0
1.194137041E0,1.617324829E0,-3.556879163E-1,3.484394550E0,3.857882694E0
1.199162458E0,1.807140350E0,-3.146286607E-1,3.706655025E0,4.135702953E0
1.204187874E0,1.953730583E0,-2.408608198E-1,3.918288708E0,4.384981588E0
1.209213291E0,1.966114044E0,-1.447538286E-1,4.128890991E0,4.575401504E0
1.214238708E0,1.896464348E0,-2.215346694E-2,4.324753284E0,4.722346744E0
1.219264124E0,1.825467587E0,7.415890694E-2,4.454138279E0,4.814268300E0
1.224289541E0,1.742746830E0,1.106761396E-1,4.460769176E0,4.790394281E0
1.229314958E0,1.719287395E0,1.306397617E-1,4.412755966E0,4.737660933E0
1.234340374E0,1.701663017E0,1.629607975E-1,4.344655991E0,4.668859488E0
1.239365791E0,1.679636002E0,2.123611867E-1,4.300423145E0,4.621678656E0
1.244391208E0,1.662468433E0,2.549782991E-1,4.285205841E0,4.603455694E0
1.249416624E0,1.649975777E0,2.621498406E-1,4.275264740E0,4.590101437E0
1.254442041E0,1.642152786E0,2.675379813E-1,4.327950478E0,4.636744298E0
1.259467458E0,1.576888084E0,2.472730875E-1,4.409572601E0,4.689568268E0
1.264492874E0,1.530890465E0,2.205029726E-1,4.515092373E0,4.772662392E0
1.269518291E0,1.556661129E0,2.062670588E-1,4.548891544E0,4.812291996E0
1.274543708E0,1.620338440E0,2.618580461E-1,4.559263229E0,4.845714343E0
1.279569124E0,1.640438557E0,3.726055026E-1,4.551138401E0,4.852085558E0
1.284594541E0,1.621699333E0,4.953061342E-1,4.481584549E0,4.791642408E0
1.289619958E0,1.588132858E0,5.917220116E-1,4.317094803E0,4.637845238E0
1.294645374E0,1.544510841E0,6.812369823E-1,4.115228176E0,4.447999607E0
1.299670791E0,1.524189949E0,7.450227141E-1,3.914525032E0,4.266347392E0
1.304696208E0,1.488780022E0,8.360387087E-1,3.815618992E0,4.180236233E0
1.309721624E0,1.476584435E0,9.064486027E-1,3.780084133E0,4.158243225E0
1.314747041E0,1.468707085E0,9.419548512E-1,3.707009792E0,4.097108864E0
1.319772458E0,1.446201324E0,9.569417238E-1,3.667874336E0,4.057158843E0
1.324797874E0,1.409261703E0,9.704161882E-1,3.638408184E0,4.020664154E0
1.329823343E0,1.381978989E0,1.015836954E0,3.623106480E0,4.008577205E0
1.334848812E0,1.402585983E0,1.088290095E0,3.641057014E0,4.050792386E0
1.339874281E0,1.475771904E0,1.211634040E0,3.682681084E0,4.148264664E0
1.344899749E0,1.539402008E0,1.347553730E0,3.656902313E0,4.190297618E0
1.349925218E0,1.689229965E0,1.491123557E0,3.573166847E0,4.224271376E0
1.354950687E0,1.949258804E0,1.651649475E0,3.426361084E0,4.274050322E0
1.359976156E0,2.185706139E0,1.800156951E0,3.268656254E0,4.324579757E0
1.365001624E0,2.365480423E0,1.936461091E0,3.080277920E0,4.339757050E0
1.370027093E0,2.331310272E0,2.151280403E0,3.037364960E0,4.391878967E0
1.375052562E0,2.476022720E0,2.157687664E0,2.713451862E0,4.260179054E0
1.380078031E0,2.622749329E0,2.123572588E0,2.337989330E0,4.105431608E0
1.385103499E0,2.718911171E0,2.097047806E0,1.987561226E0,3.967428271E0
1.390128968E0,2.726294518E0,2.092448235E0,1.738680363E0,3.851497217E0
1.395154437E0,2.626086235E0,2.076496601E0,1.543138504E0,3.686386237E0
1.400179906E0,2.399540901E0,2.097373247E0,1.367108822E0,3.467817412E0
1.405205374E0,2.175909042E0,2.059814453E0,1.186863422E0,3.222741151E0
1.410230843E0,2.065026283E0,1.945232272E0,9.071893692E-1,2.978465158E0
1.415256312E0,1.903763771E0,1.878496051E0,7.298541069E-1,2.772318691E0
1.420281781E0,1.706179619E0,1.835890412E0,5.932383537E-1,2.575553191E0
1.425307249E0,1.567660332E0,1.760308146E0,5.026788712E-1,2.410172138E0
1.430332718E0,1.468814850E0,1.709263563E0,4.202113152E-1,2.292504425E0
1.435358187E0,1.347357750E0,1.654109478E0,3.746757507E-1,2.166063939E0
1.440383656E0,1.222441673E0,1.594998360E0,3.134951591E-1,2.033878715E0
1.445409124E0,1.165708542E0,1.555892825E0,2.607946396E-1,1.961553653E0
1.450434593E0,1.196012497E0,1.536564827E0,2.120532990E-1,1.958684243E0
1.455460062E0,1.241225243E0,1.536726475E0,2.011265755E-1,1.985603249E0
1.460485531E0,1.305726051E0,1.522506714E0,2.045488358E-1,2.016131802E0
1.465510999E0,1.431990147E0,1.521941662E0,3.185911179E-1,2.113859622E0
1.470536468E0,1.581259727E0,1.510298967E0,4.335322380E-1,2.229200641E0
1.475561937E0,1.676460266E0,1.511026144E0,4.830451012E-1,2.308040641E0
1.480587406E0,1.702944279E0,1.547720790E0,5.011119843E-1,2.355116150E0
1.485612874E0,1.741683483E0,1.596187115E0,4.787073135E-1,2.410484464E0
1.490638343E0,1.811295509E0,1.637154698E0,4.165143967E-1,2.476802610E0
1.495663812E0,1.877673149E0,1.622470617E0,3.966045380E-1,2.513038503E0
1.500689281E0,1.997811794E0,1.571173310E0,4.672408104E-1,2.584211971E0
1.505714749E0,1.999591351E0,1.492448807E0,5.658874512E-1,2.558514729E0
1.510740218E0,1.916895390E0,1.448316336E0,5.869197845E-1,2.473172654E0
1.515765687E0,1.773958206E0,1.414994121E0,5.062956810E-1,2.324966966E0
1.520791156E0,1.604525089E0,1.416679621E0,3.287725449E-1,2.165542264E0
1.525816624E0,1.361117363E0,1.444522381E0,1.307573318E-1,1.989065827E0
1.530842093E0,8.290834427E-1,1.628612995E0,1.414136887E-1,1.832964122E0
1.535867562E0,7.313709259E-1,1.429340005E0,-4.098925591E-1,1.657084244E0
1.540893031E0,8.335208893E-1,1.216199875E0,-9.585804939E-1,1.758628947E0
1.545918499E0,9.200820923E-1,1.085146546E0,-1.394613266E0,1.992245026E0
1.550943968E0,9.530091286E-1,9.979773760E-1,-1.727937460E0,2.211323836E0
1.555969437E0,7.082314491E-1,9.979971647E-1,-1.906930208E0,2.265827210E0
1.560994906E0,3.685193062E-1,1.052256584E0,-2.052263021E0,2.335558586E0
1.566020374E0,2.019729614E-1,1.070234418E0,-2.264636993E0,2.512921706E0
1.571045843E0,1.747322083E-1,1.057336807E0,-2.457617521E0,2.681114759E0
1.576071312E0,1.475906372E-1,1.094971180E0,-2.530343771E0,2.761047714E0
1.581096781E0,1.108093262E-1,1.125388384E0,-2.492344141E0,2.736888204E0
1.586122249E0,5.962848663E-2,1.138672829E0,-2.420359373E0,2.675494508E0
1.591147718E0,4.192924500E-2,1.091240644E0,-2.228481293E0,2.481671428E0
1.596173187E0,1.474189758E-2,1.006734014E0,-2.003156900E0,2.241956348E0
1.601198656E0,-4.094505310E-2,9.516650438E-1,-1.840292692E0,2.072201739E0
1.606224124E0,-1.347775459E-1,9.352362752E-1,-1.706195593E0,1.950367985E0
1.611249593E0,-2.907280922E-1,9.430047870E-1,-1.634151220E0,1.908986921E0
1.616275062E0,-4.418349266E-1,9.416502118E-1,-1.628745794E0,1.932546529E0
1.621300478E0,-5.260691643E-1,9.504727125E-1,-1.651417494E0,1.976695951E0
1.626325895E0,-5.626406670E-1,9.790385962E-1,-1.663874865E0,2.010860676E0
1.631351312E0,-5.852007866E-1,1.032118797E0,-1.713774920E0,2.084407265E0
1.636376728E0,-6.463689804E-1,1.071507096E0,-1.815411329E0,2.204912382E0
1.641402145E0,-7.413663864E-1,1.111638546E0,-1.944717407E0,2.359510578E0
1.646427562E0,-8.701419830E-1,1.114450932E0,-2.082521200E0,2.517149677E0
1.651452978E0,-1.042209625E0,1.089896679E0,-2.233583689E0,2.694990124E0
1.656478395E0,-1.195411205E0,1.052828550E0,-2.349924564E0,2.838943706E0
1.661503812E0,-1.320326328E0,1.037285447E0,-2.431358814E0,2.954780600E0
1.666529228E0,-1.417005062E0,1.024254441E0,-2.387020588E0,2.958862584E0
1.671554645E0,-1.428138256E0,1.037607670E0,-2.255241394E0,2.863969675E0
1.676580062E0,-1.344339848E0,1.048370004E0,-2.069479227E0,2.681244778E0
1.681605478E0,-1.223220825E0,1.036761761E0,-1.939625978E0,2.516603479E0
1.686630895E0,-1.107994080E0,1.050155401E0,-1.822345495E0,2.377271619E0
1.691656312E0,-9.749155045E-1,1.068850756E0,-1.707740784E0,2.238142257E0
1.696681728E0,-8.145508766E-1,1.068526387E0,-1.562100887E0,2.060437078E0
1.701707145E0,-6.459393501E-1,1.039043665E0,-1.390416384E0,1.852054832E0
1.706732562E0,-5.596451759E-1,9.466881156E-1,-1.279284716E0,1.687006371E0
1.711757978E0,-5.552554131E-1,8.681458235E-1,-1.229109526E0,1.603962584E0
1.716783395E0,-6.036744118E-1,7.891140580E-1,-1.221171141E0,1.574288013E0
1.721808812E0,-6.711649895E-1,7.098608017E-1,-1.188770533E0,1.538681312E0
1.726834228E0,-7.098212242E-1,6.735584736E-1,-1.160717726E0,1.518154415E0
1.731859645E0,-7.387499809E-1,6.372611523E-1,-1.137094259E0,1.498277900E0
1.736885062E0,-7.771601677E-1,6.296441555E-1,-1.112977982E0,1.496378855E0
1.741910478E0,-8.587231636E-1,6.317141056E-1,-1.097515583E0,1.530035502E0
1.746935895E0,-9.645495415E-1,6.338313818E-1,-1.023145199E0,1.542376133E0
1.751961312E0,-1.118843079E0,6.457104087E-1,-8.748958111E-1,1.560190516E0
1.756986728E0,-1.283725739E0,6.674276590E-1,-6.757929325E-1,1.596905614E0
1.762012145E0,-1.435592651E0,6.991888881E-1,-3.677084446E-1,1.638597224E0
1.767037562E0,-1.565103531E0,7.697284222E-1,5.462741852E-2,1.744997152E0
1.772062978E0,-1.624451637E0,8.690744042E-1,5.577950478E-1,1.924907467E0
1.777088395E0,-1.647014618E0,9.965597391E-1,1.055440903E0,2.195391529E0
1.782113812E0,-1.666083336E0,1.098983288E0,1.480360508E0,2.484967843E0
1.787139228E0,-1.662439346E0,1.142286420E0,1.780074120E0,2.690201984E0
1.792164645E0,-1.578637123E0,1.145310163E0,1.940485954E0,2.751239044E0
1.797190062E0,-1.486360550E0,1.126961589E0,1.985649824E0,2.724355948E0
1.802215478E0,-1.423699856E0,1.135025024E0,1.925208807E0,2.649836228E0
1.807240895E0,-1.380637646E0,1.160272598E0,1.801700830E0,2.549219232E0
1.812266312E0,-1.370880604E0,1.117103338E0,1.609199524E0,2.390973987E0
1.817291728E0,-1.350704670E0,1.006293774E0,1.422862053E0,2.204896071E0
1.822317145E0,-1.362681866E0,8.573158979E-1,1.260574818E0,2.044735016E0
1.827342614E0,-1.669419289E0,8.527527452E-1,1.255089998E0,2.255969616E0
1.832368083E0,-2.208169460E0,1.051192641E0,1.749768019E0,3.007109319E0
1.837393551E0,-1.854608536E0,7.166410089E-1,1.447148323E0,2.459143230E0
1.842419020E0,-1.288973331E0,4.857169092E-1,1.299626112E0,1.893779606E0
1.847444489E0,-9.517793655E-1,5.868599415E-1,1.460535288E0,1.839416179E0
1.852469958E0,-5.032987595E-1,7.075312138E-1,1.508645296E0,1.740666737E0
1.857495426E0,-5.375385284E-2,7.507891059E-1,1.491897583E0,1.671027276E0
1.862520895E0,1.144943237E-1,8.784450889E-1,1.439459562E0,1.690212577E0
1.867546364E0,3.499794006E-2,1.089925885E0,1.428696632E0,1.797313929E0
1.872571833E0,-3.878974915E-2,1.260896325E0,1.331549168E0,1.834226642E0
1.877597301E0,-3.058815002E-2,1.281754136E0,1.201659679E0,1.757218053E0
1.882622770E0,4.024314880E-2,1.138583779E0,1.097084999E0,1.581640929E0
1.887648239E0,1.976613998E-1,8.939566612E-1,1.050887585E0,1.393769442E0
1.892673708E0,2.409830093E-1,7.010302544E-1,1.147877932E0,1.366433304E0
1.897699176E0,-3.501129150E-2,6.607236266E-1,1.372110844E0,1.523308790E0
1.902724645E0,-7.302751541E-1,8.506350517E-1,2.162734032E0,2.436041930E0
1.907750114E0,-4.907732010E-1,5.875909328E-1,2.279500246E0,2.404629454E0
1.912775583E0,3.953199387E-1,5.804304779E-2,2.115269661E0,2.152675681E0
1.917801051E0,1.310078621E0,-3.327513337E-1,2.182747602E0,2.567375418E0
1.922826520E0,2.071824074E0,-5.967756510E-1,2.500016212E0,3.301314470E0
1.927851989E0,2.561518669E0,-6.881623268E-1,2.897068501E0,3.927843069E0
1.932877458E0,2.751047134E0,-7.326003313E-1,2.922317505E0,4.079816562E0
1.937902926E0,2.186448097E0,-6.581646800E-1,2.943917274E0,3.725638864E0
1.942928395E0,1.294057846E0,-5.541228056E-1,2.733286858E0,3.074490989E0
1.947953864E0,6.526165009E-1,-6.194790602E-1,2.239824295E0,2.413809329E0
1.952979333E0,1.514739990E-1,-7.948480248E-1,1.355654836E0,1.578774141E0
1.958004801E0,1.731338501E-1,-1.074405313E0,-4.123199582E-1,1.163756785E0
1.963030270E0,-1.436672211E-1,-1.184686780E0,-1.644703865E0,2.032036870E0
1.968055739E0,-5.209379196E-1,-1.139124632E0,-2.602448225E0,2.888203249E0
1.973081208E0,-1.030160904E0,-9.749997854E-1,-3.469604969E0,3.748334925E0
1.978106676E0,-1.575539589E0,-8.536221981E-1,-3.998115301E0,4.381315078E0
1.983132145E0,-2.066389084E0,-9.074460268E-1,-4.421530724E0,4.964207497E0
1.988157614E0,-2.364453316E0,-1.058898211E0,-4.393141270E0,5.100156382E0
1.993183083E0,-2.317324638E0,-1.212100983E0,-4.087523937E0,4.852528641E0
1.998208551E0,-2.002260685E0,-1.343795300E0,-3.688970566E0,4.407191565E0
2.003234020E0,-1.285864830E0,-1.493783712E0,-3.257954121E0,3.807768795E0
2.008259489E0,-1.153923988E0,-1.501552939E0,-2.573104143E0,3.194850033E0
2.013284958E0,-2.146287918E0,-1.400369287E0,-2.059414864E0,3.287670231E0
2.018310426E0,-3.214612961E0,-1.187793374E0,-1.643095851E0,3.800572794E0
2.023335895E0,-2.900691509E0,-1.087626576E0,-1.019874096E0,3.261454579E0
2.028361364E0,-1.622535229E0,-1.078003764E0,-6.952347159E-1,2.068348132E0
2.033386833E0,-3.712406158E-1,-1.215265512E0,-3.050874472E-1,1.306816059E0
2.038412301E0,-4.116725922E-2,-1.100524187E0,3.473509550E-1,1.154773101E0
2.043437770E0,-5.689163208E-1,-8.112757206E-1,7.494944334E-1,1.242407333E0
2.048463239E0,-1.475092888E0,-6.138902903E-1,6.570724249E-1,1.727571847E0
2.053488708E0,-2.697143078E0,-5.817129612E-1,2.672507763E-1,2.772073904E0
2.058514176E0,-3.823562145E0,-7.687572837E-1,-4.468840361E-1,3.925598118E0
2.063539645E0,-4.902455807E0,-9.335541129E-1,-1.028528214E0,5.095435850E0
2.068565114E0,-5.594162464E0,-1.184508085E0,-1.701775670E0,5.966050076E0
2.073590583E0,-5.630829334E0,-1.626058221E0,-2.299755335E0,6.295965290E0
2.078616051E0,-5.442933559E0,-2.123530865E0,-2.991672993E0,6.563917760E0
2.083641520E0,-4.776385784E0,-2.586024761E0,-3.258794308E0,6.334123899E0
2.088666989E0,-4.037508011E0,-2.712950945E0,-3.950389385E0,6.266350618E0
2.093692458E0,-3.163635254E0,-2.280506134E0,-4.344880581E0,5.838431597E0
2.098717926E0,-1.537423134E0,-1.601326346E0,-4.478006363E0,4.998045313E0
2.103743395E0,1.333175659E0,-7.788575292E-1,-4.343083382E0,4.609376275E0
2.108768864E0,5.025804520E0,1.433680654E-1,-3.963634491E0,6.402317069E0
2.113794333E0,8.137730598E0,1.149940372E0,-3.860375404E0,9.080061697E0
2.118819801E0,1.039154339E1,2.039977551E0,-2.960704803E0,1.099597451E1
2.123845270E0,1.091230583E1,2.763669014E0,-1.984659195E0,1.143044868E1
2.128870739E0,1.070114899E1,3.140007496E0,-8.179864883E-1,1.118227788E1
2.133896208E0,1.021771622E1,3.099125147E0,3.585290313E-1,1.068339106E1
2.138921624E0,9.385689735E0,2.638581038E0,1.899389505E0,9.932822469E0
2.143947041E0,8.382552147E0,1.894940019E0,3.114662647E0,9.141066764E0
2.148972458E0,7.246956825E0,1.157537937E0,3.904038668E0,8.312628659E0
2.153997874E0,6.333193779E0,4.088886976E-1,4.440018177E0,7.745340201E0
2.159023291E0,5.239424706E0,1.808966398E-1,4.083209515E0,6.645065446E0
2.164048708E0,4.166972160E0,-1.349771023E-2,3.267024040E0,5.295024575E0
2.169074124E0,3.713934898E0,-4.365434647E-1,2.254160166E0,4.366362408E0
2.174099541E0,3.372983932E0,-9.303882122E-1,1.428275943E0,3.779234711E0
2.179124958E0,3.541273117E0,-1.989144921E0,8.895277381E-1,4.157952910E0
2.184150374E0,3.333262444E0,-3.572219849E0,1.130849242E0,5.014998821E0
2.189175791E0,1.868660927E0,-4.217429161E0,1.941921711E0,5.004963768E0
2.194201208E0,9.024333954E-2,-4.341331959E0,2.540563345E0,5.030881548E0
2.199226624E0,-6.344566345E-1,-4.813016415E0,2.212254524E0,5.334953824E0
2.204252041E0,-1.774679661E0,-5.136495590E0,2.253856182E0,5.883276514E0
2.209277458E0,-2.908166885E0,-5.154831886E0,1.706125140E0,6.159593282E0
2.214302874E0,-4.043824196E0,-5.448120117E0,8.183748722E-1,6.834051827E0
2.219328291E0,-4.444191456E0,-5.452564240E0,2.117078304E-1,7.037479285E0
2.224353708E0,-4.291092396E0,-4.718073845E0,1.309295893E-1,6.378937005E0
2.229379124E0,-4.521582127E0,-3.842784643E0,8.839726448E-2,5.934603004E0
2.234404541E0,-5.014235497E0,-2.393714428E0,1.395006180E-1,5.558047031E0
2.239429958E0,-4.844539642E0,-1.259399891E0,9.667956829E-2,5.006495718E0
2.244455374E0,-4.495703220E0,-4.209649563E-1,7.414102554E-3,4.515375279E0
2.249480791E0,-4.220886707E0,2.646849155E-1,-3.860327005E-1,4.246759229E0
2.254506208E0,-3.852090836E0,9.264018536E-1,-8.094406128E-1,4.043762889E0
2.259531624E0,-3.709452629E0,1.472743034E0,-1.471442342E0,4.253722301E0
2.264557041E0,-4.542951584E0,1.315678120E0,-1.905730486E0,5.099139799E0
2.269582458E0,-4.644077301E0,1.048982859E0,-2.887251139E0,5.568126988E0
2.274607874E0,-3.346536636E0,1.277882814E0,-4.194337368E0,5.515864203E0
2.279633291E0,-2.052146435E0,1.658416033E0,-5.375258923E0,5.987909252E0
2.284658708E0,-1.611356735E-1,2.544932365E0,-6.151616096E0,6.659206112E0
2.289684124E0,1.768600464E0,3.286214828E0,-5.732919216E0,6.840578794E0
2.294709541E0,2.850797653E0,3.481268883E0,-4.705015659E0,6.510257495E0
2.299734958E0,3.374096870E0,3.381490231E0,-2.463543177E0,5.374760539E0
2.304760374E0,3.293611526E0,2.976678371E0,-1.092196941E0,4.571803274E0
2.309785791E0,2.726535797E0,2.215252399E0,-4.520106316E-1,3.541984508E0
2.314811208E0,1.947842598E0,1.491293907E0,1.810078621E-1,2.459839863E0
2.319836624E0,1.246495724E0,8.925786018E-1,4.598157406E-1,1.600586975E0
2.324862041E0,6.237082481E-1,4.825615883E-1,5.182775855E-1,9.436574171E-1
2.329887458E0,3.146867752E-1,2.761564255E-1,7.822538614E-1,8.872492556E-1
2.334912874E0,1.761026382E-1,1.200842857E-1,1.002013326E0,1.024433053E0
2.339938343E0,-8.812093735E-2,9.573125839E-2,1.018851757E0,1.027126417E0
2.344963812E0,-4.296245575E-1,1.310105324E-1,1.032369733E0,1.125845587E0
2.349989281E0,-9.580583572E-1,1.395525932E-1,8.783262372E-1,1.307213724E0
2.355014749E0,-1.362187862E0,2.694444656E-1,7.230989933E-1,1.565576011E0
2.360040218E0,-1.671650887E0,4.142694473E-1,1.020515680E0,2.001871153E0
2.365065687E0,-1.939772606E0,4.205980301E-1,1.874793053E0,2.730287431E0
2.370091156E0,-1.847515106E0,1.048615932E0,2.666816950E0,3.409519040E0
2.375116624E0,-1.794983864E0,1.722612381E0,3.176178932E0,4.034535053E0
2.380142093E0,-1.755912781E0,2.164567947E0,3.285898447E0,4.308794808E0
2.385167562E0,-1.521805286E0,2.599318981E0,3.149306774E0,4.357807207E0
2.390193031E0,-1.286200523E0,2.907056332E0,3.450424194E0,4.691557889E0
2.395218499E0,-1.156050205E0,3.150098801E0,3.528187275E0,4.869053294E0
2.400243968E0,-9.703116417E-1,3.395336151E0,3.392703056E0,4.896962966E0
2.405269437E0,-7.688651085E-1,3.609069824E0,3.298679829E0,4.949527974E0
2.410294906E0,-6.200780869E-1,3.685978889E0,3.428388119E0,5.071960400E0
2.415320374E0,-3.193087578E-1,3.597559929E0,3.575978994E0,5.082521155E0
2.420345843E0,-8.266019821E-2,3.363314152E0,3.855700731E0,5.117142066E0
2.425371312E0,-1.540255547E-1,3.270802975E0,4.395055771E0,5.480729076E0
2.430396781E0,-3.986697197E-1,3.176651955E0,4.638829231E0,5.636381093E0
2.435422249E0,-5.771579742E-1,3.209775925E0,4.860309124E0,5.853065658E0
2.440447718E0,-7.038180828E-1,2.776518345E0,5.194605827E0,5.931976375E0
2.445473187E0,-1.101838827E0,2.528275013E0,5.417796135E0,6.079369894E0
2.450498656E0,-1.727417231E0,2.155753136E0,5.271242142E0,5.951238156E0
2.455524124E0,-2.816205978E0,1.494449615E0,4.483482361E0,5.501455248E0
2.460549593E0,-3.288951874E0,1.513051033E0,2.007702112E0,4.139733763E0
2.465575062E0,-3.804991007E0,1.036599636E0,-1.199781775E0,4.122131933E0
2.470600531E0,-2.539856434E0,1.453305244E0,-7.983973503E0,8.503340505E0
2.475625999E0,-2.611637115E0,2.833976269E0,-7.982968807E0,8.864528239E0
2.480651468E0,-3.171056509E0,3.093447208E0,-5.453686714E0,7.026216179E0
2.485676937E0,-3.247617960E0,2.506309509E0,-6.540344238E0,7.720408831E0
2.490702406E0,-3.444914818E0,2.000883579E0,-8.047554970E0,8.979650004E0
2.495727874E0,-3.014550686E0,2.536657333E0,-8.281054497E0,9.170496706E0
2.500753343E0,-2.735476971E0,3.196587086E0,-7.531495094E0,8.626959001E0
2.505778812E0,-3.145015240E0,3.074651241E0,-5.910687923E0,7.367552704E0
2.510804281E0,-3.309619904E0,3.279871464E0,-3.529229879E0,5.845220635E0
2.515829749E0,-3.141821384E0,3.744233131E0,-1.662008762E0,5.162615275E0
2.520855218E0,-3.301022291E0,3.615521908E0,-3.176444769E-1,4.906082434E0
2.525880687E0,-3.355572224E0,3.400875568E0,2.482219785E-1,4.784081284E0
2.530906156E0,-2.832869053E0,3.630472660E0,2.518498600E-1,4.611822542E0
2.535931624E0,-2.338533878E0,3.618884563E0,-8.855356276E-2,4.309629673E0
2.540957093E0,-2.261259794E0,3.064409256E0,-6.725710630E-1,3.867331351E0
2.545982562E0,-1.811502218E0,2.909475327E0,-1.870445371E0,3.904504174E0
2.551008031E0,-1.300940037E0,2.727477551E0,-3.919707537E0,4.949311663E0
2.556033499E0,-1.297967672E0,2.097122192E0,-6.086756706E0,6.567438524E0
2.561058968E0,-1.000982165E0,1.736857891E0,-4.925854683E0,5.318146762E0
2.566084437E0,-1.215885580E-2,2.399371147E0,-1.789381504E0,2.993161524E0
2.571109906E0,9.002259374E-1,3.353254318E0,-1.712702513E-1,3.476212704E0
2.576135374E0,1.602925301E0,3.857316017E0,5.536525846E-1,4.213643027E0
2.581160843E0,2.607306719E0,2.616136074E0,8.223990202E-1,3.783986844E0
2.586186312E0,4.478760719E0,3.163185120E-1,8.283814192E-1,4.565694992E0
2.591211781E0,5.600214005E0,-2.130673409E0,6.443452835E-1,6.026387551E0
2.596237249E0,5.100021839E0,-3.914407730E0,4.319537878E-1,6.443554509E0
2.601262718E0,4.831713200E0,-6.812937737E0,-1.087689400E-2,8.352346458E0
2.606288187E0,6.041531563E0,-1.098514748E1,-1.193132997E-1,1.253745606E1
2.611313656E0,6.257858276E0,-1.463837528E1,1.421338618E-1,1.592052208E1
2.616339124E0,6.514928818E0,-1.851256561E1,1.209796906E0,1.966273103E1
2.621364593E0,5.791907787E0,-2.209000397E1,1.760278463E0,2.290443301E1
2.626390062E0,3.899168015E0,-2.434889984E1,2.396198988E0,2.477527405E1
2.631415531E0,1.589987755E0,-2.544184113E1,3.301291943E0,2.570435507E1
2.636440999E0,-8.209289312E-1,-2.511036301E1,4.445075035E0,2.551397552E1
2.641466468E0,-2.808292866E0,-2.318217468E1,5.696795464E0,2.403649747E1
2.646491937E0,-3.798298836E0,-2.012023163E1,6.754830360E0,2.156104190E1
2.651517406E0,-4.240617752E0,-1.647191238E1,7.920489311E0,1.876275266E1
2.656542874E0,-5.053566933E0,-1.228593826E1,9.093804359E0,1.609907126E1
2.661568343E0,-5.037829876E0,-8.323085785E0,7.480749607E0,1.227253444E1
2.666593812E0,-4.333935261E0,-5.008128166E0,5.389491558E0,8.538791591E0
2.671619281E0,-3.609506607E0,-2.411502838E0,3.497210503E0,5.574438553E0
2.676644697E0,-2.986016035E0,-4.602575302E-1,1.964346886E0,3.603718558E0
2.681670114E0,-2.474434853E0,9.852972031E-1,6.071377397E-1,2.731712769E0
2.686695531E0,-2.071089983E0,1.997666836E0,-5.430245996E-1,2.928303642E0
2.691720947E0,-1.733819962E0,2.711410046E0,-1.550656915E0,3.572451954E0
2.696746364E0,-1.477890015E0,3.112674236E0,-2.370571136E0,4.182404489E0
2.701771781E0,-1.141631603E0,3.398072243E0,-2.910276175E0,4.617350441E0
2.706797197E0,-7.838866115E-1,3.520095825E0,-3.402775288E0,4.958269103E0
2.711822614E0,-5.779288411E-1,3.536493301E0,-3.712574005E0,5.159844219E0
2.716848031E0,-5.815725923E-1,3.514458656E0,-3.886310339E0,5.271911833E0
2.721873447E0,-5.990018249E-1,3.396746635E0,-3.923029900E0,5.223682081E0
2.726898864E0,-6.115314364E-1,3.154851913E0,-3.855432272E0,5.019105428E0
2.731924281E0,-6.722121239E-1,2.812881947E0,-3.702283859E0,4.697986777E0
2.736949697E0,-6.712298989E-1,2.500083923E0,-3.439771891E0,4.304997080E0
2.741975114E0,-6.710781455E-1,2.125524044E0,-3.192606926E0,3.893704833E0
2.747000531E0,-7.434823513E-1,1.770504475E0,-2.870441914E0,3.453532812E0
2.752025947E0,-7.876509428E-1,1.434895515E0,-2.560273886E0,3.038802645E0
2.757051364E0,-8.272027373E-1,1.089870453E0,-2.253574133E0,2.636413918E0
2.762076781E0,-8.951834440E-1,6.779546738E-1,-1.865694642E0,2.177565713E0
2.767102197E0,-9.864969254E-1,2.996015549E-1,-1.355321169E0,1.702889529E0
2.772127614E0,-1.081329107E0,7.340431213E-3,-8.153913021E-1,1.354322523E0
2.777153031E0,-1.241042972E0,-4.045915604E-1,-3.670856953E-1,1.355962350E0
2.782178447E0,-1.245041013E0,-7.112445831E-1,1.272826195E-1,1.439512711E0
2.787203864E0,-1.155410051E0,-8.457221985E-1,6.473063231E-1,1.571376435E0
2.792229281E0,-9.676109552E-1,-8.320360184E-1,1.144004822E0,1.713855866E0
2.797254697E0,-7.394213080E-1,-7.276325226E-1,1.587775946E0,1.896635287E0
2.802280114E0,-5.286257863E-1,-6.137914658E-1,1.958752871E0,2.119645724E0
2.807305531E0,-3.117455244E-1,-4.712667465E-1,2.270742655E0,2.339989278E0
2.812330947E0,-1.227713227E-1,-2.904214859E-1,2.513946295E0,2.533642321E0
2.817356364E0,4.263943434E-2,-9.034347534E-2,2.669106245E0,2.670975143E0
2.822381781E0,1.696176231E-1,9.552764893E-2,2.779475451E0,2.786284165E0
2.827407197E0,2.577506304E-1,2.576665878E-1,2.845473289E0,2.868718477E0
2.832432614E0,3.498191237E-1,3.961067200E-1,2.862736702E0,2.911105525E0
2.837458031E0,4.310691953E-1,5.347833633E-1,2.836516142E0,2.918499224E0
2.842483447E0,4.916073680E-1,6.306238174E-1,2.805688143E0,2.917404696E0
2.847508864E0,5.599441528E-1,6.836385727E-1,2.746943951E0,2.885584901E0
2.852534281E0,5.688748956E-1,6.890573502E-1,2.679984570E0,2.825019641E0
2.857559697E0,5.422081947E-1,6.564588547E-1,2.648343086E0,2.781842745E0
2.862585114E0,4.897264838E-1,5.762786865E-1,2.589995861E0,2.698148942E0
2.867610531E0,4.165371656E-1,4.772100449E-1,2.495746851E0,2.574875722E0
2.872635999E0,3.325042725E-1,3.209695816E-1,2.375307560E0,2.419848460E0
2.877661468E0,2.335034907E-1,1.075649261E-1,2.195435524E0,2.210436887E0
2.882686937E0,9.131339192E-2,-1.677770615E-1,1.999590635E0,2.008693602E0
2.887712406E0,-7.303148508E-3,-4.237289429E-1,1.744930863E0,1.795656780E0
2.892737874E0,-2.818217874E-2,-5.981979370E-1,1.455718637E0,1.574087595E0
2.897763343E0,8.608603477E-2,-6.291379929E-1,1.127604008E0,1.294108271E0
2.902788812E0,4.068365693E-1,-5.023927689E-1,6.798171997E-1,9.381182832E-1
2.907814281E0,6.274077892E-1,-4.572916031E-1,9.909689426E-2,7.826725616E-1
2.912839749E0,7.474645376E-1,-5.128650665E-1,-5.079075098E-1,1.039087990E0
2.917865218E0,8.959854841E-1,-5.542135239E-1,-1.139470100E0,1.551881029E0
2.922890687E0,1.001075625E0,-5.717773438E-1,-1.751003861E0,2.096448488E0
2.927916156E0,1.091344476E0,-5.177373886E-1,-2.245803595E0,2.550042853E0
2.932941624E0,1.099590778E0,-4.638891220E-1,-2.604273081E0,2.864704396E0
2.937967093E0,1.030728698E0,-4.150009155E-1,-2.821547270E0,3.032450561E0
2.942992562E0,9.567658901E-1,-3.375921249E-1,-2.893018246E0,3.065766459E0
2.948018031E0,8.824529648E-1,-2.460479736E-1,-2.814381361E0,2.959730610E0
2.953043499E0,8.126481771E-1,-1.499643326E-1,-2.586533785E0,2.715334856E0
2.958068968E0,6.900987625E-1,-8.284187317E-2,-2.272588491E0,2.376501111E0
2.963094437E0,5.388887525E-1,-4.943847656E-2,-1.888057232E0,1.964078756E0
2.968119906E0,3.736270964E-1,-3.059005737E-2,-1.491463780E0,1.537854729E0
2.973145374E0,1.850463301E-1,-7.148742676E-3,-1.007229805E0,1.024111873E0
2.978170843E0,4.045487940E-2,3.524017334E-2,-5.847383738E-1,5.871945443E-1
2.983196312E0,-5.964919180E-2,-3.858566284E-3,-2.868992388E-1,2.930598708E-1
2.988221781E0,2.376551181E-2,3.348159790E-2,4.840882719E-1,4.858263804E-1
2.993247249E0,2.278660089E-1,1.232690811E-1,1.110601902E0,1.140418681E0
2.998272718E0,4.089093804E-1,8.853530884E-2,1.678040504E0,1.729411841E0
3.003298187E0,8.724354506E-1,2.403678894E-1,2.013016224E0,2.207069246E0
3.008323656E0,2.004721642E0,7.316303253E-1,1.679872751E0,2.715909471E0
3.013349124E0,3.067636967E0,1.337191582E0,7.980575562E-1,3.440257803E0
3.018374593E0,3.299770355E0,1.444819450E0,1.900477707E-1,3.607229657E0
3.023400062E0,3.136748791E0,1.246426582E0,7.575154305E-2,3.376168020E0
3.028425531E0,2.431170702E0,4.410533905E-1,1.446692348E-1,2.475085506E0
3.033450999E0,1.233090639E0,-6.023521423E-1,2.111089826E-1,1.388491134E0
3.038476468E0,2.145024985E-1,-1.300068855E0,3.619617820E-1,1.366457713E0
3.043501937E0,-5.664082170E-1,-1.647757530E0,5.259165764E-1,1.820030602E0
3.048527406E0,-1.170986772E0,-1.822777748E0,6.645787954E-1,2.266140709E0
3.053552874E0,-1.660771012E0,-1.949655533E0,7.969046831E-1,2.682233048E0
3.058578343E0,-1.948974729E0,-1.947128296E0,9.562416673E-1,2.916197733E0
3.063603812E0,-2.016478062E0,-1.753175735E0,1.080274224E0,2.882152205E0
3.068629281E0,-1.849333525E0,-1.396748543E0,1.150060892E0,2.587195592E0
3.073654749E0,-1.505937099E0,-9.020042419E-1,1.060875416E0,2.051076510E0
3.078680218E0,-1.097896099E0,-3.839464188E-1,8.852542043E-1,1.461665387E0
3.083705687E0,-6.649202108E-1,1.429939270E-1,5.713809729E-1,8.882805672E-1
3.088731156E0,-2.322257310E-1,6.596431732E-1,1.582328379E-1,7.170045586E-1
3.093756624E0,1.654892415E-1,1.146864891E0,-2.915037274E-1,1.194847350E0
3.098782093E0,5.318058133E-1,1.575996399E0,-7.295752764E-1,1.816277004E0
3.103807562E0,9.230725169E-1,2.018816471E0,-8.442929387E-1,2.374976501E0
3.108833031E0,1.419178605E0,2.580408096E0,-5.521804690E-1,2.996243836E0
3.113858499E0,1.525916100E0,2.595794678E0,-7.465331554E-1,3.102238177E0
3.118883968E0,1.348060131E0,2.854759693E0,-6.668951511E-1,3.226711664E0
3.123909437E0,5.413807631E-1,3.093778133E0,-1.827146769E0,3.633596233E0
3.128934906E0,-1.165431738E-2,1.658156395E0,-9.945632815E-1,1.933591108E0
3.133960374E0,-3.614082932E-1,7.073125839E-1,2.413431406E-1,8.301527313E-1
3.138985843E0,-8.313354254E-1,3.174076080E-1,7.908220887E-1,1.190489712E0
3.144011312E0,-1.352724314E0,1.577978134E-1,5.592572689E-1,1.472254024E0
3.149036781E0,-1.842633247E0,-7.318401337E-2,8.541899920E-2,1.846063268E0
3.154062249E0,-2.252124548E0,-2.368011475E-1,-6.475251913E-2,2.265465217E0
3.159087718E0,-2.804931879E0,3.602056503E-1,-6.307559013E-1,2.897454739E0
3.164113187E0,-3.303726673E0,1.247973442E0,-1.220828772E0,3.736638935E0
3.169138656E0,-3.456346512E0,1.282956123E0,-1.005106926E0,3.821327983E0
3.174164124E0,-3.048304558E0,-1.314392090E-1,2.328677773E-1,3.060010514E0
3.179189593E0,-2.606934547E0,-1.548751831E0,1.272019506E0,3.288278211E0
3.184215062E0,-2.271548748E0,-2.485661507E0,1.740634084E0,3.790547962E0
3.189240531E0,-1.808805227E0,-3.071733475E0,1.972209811E0,4.073933533E0
3.194265999E0,-1.234912872E0,-3.096970558E0,1.990796804E0,3.883234265E0
3.199291468E0,-7.051141262E-1,-2.657841682E0,1.525344610E0,3.144516580E0
3.204316937E0,-1.637961417E-1,-1.774294853E0,5.936402082E-1,1.878126753E0
3.209342406E0,1.488856375E-1,-9.636535645E-1,-2.552727461E-1,1.007948064E0
3.214367874E0,3.237166405E-1,-4.268693924E-1,-7.465298772E-1,9.188671281E-1
3.219393343E0,2.418235093E-1,-3.071374893E-1,-9.227217436E-1,1.002111502E0
3.224418760E0,1.674848199E-1,-2.643814087E-1,-9.660183191E-1,1.015450682E0
3.229444176E0,1.061499044E-1,-1.263074875E-1,-9.104733467E-1,9.253016258E-1
3.234469593E0,1.872272491E-1,1.643819809E-1,-7.805853486E-1,8.193832833E-1
3.239495010E0,4.294572175E-1,5.645256042E-1,-6.634626985E-1,9.712391115E-1
3.244520426E0,5.407600999E-1,7.297058105E-1,-4.211252332E-1,1.001118633E0
3.249545843E0,6.363120675E-1,9.042234421E-1,1.076767445E-1,1.110903849E0
3.254571260E0,8.354955316E-1,1.011679649E0,7.155309319E-1,1.494500924E0
3.259596676E0,7.509391904E-1,7.461795807E-1,9.327164292E-1,1.410905231E0
3.264622093E0,6.756238341E-1,5.242767334E-1,1.051394939E0,1.355273027E0
3.269647510E0,6.530080438E-1,3.794031143E-1,1.262982607E0,1.471560836E0
3.274672926E0,6.835808158E-1,1.727733612E-1,1.280521393E0,1.461803134E0
3.279698343E0,8.251398802E-1,-4.772853851E-2,1.181040764E0,1.441523889E0
3.284723760E0,1.029958487E0,-2.008008957E-1,1.036644459E0,1.475048209E0
3.289749176E0,1.288100481E0,-2.769565582E-1,8.233879209E-1,1.553665167E0
3.294774593E0,1.426367998E0,-3.145656586E-1,6.370660067E-1,1.593527633E0
3.299800010E0,1.424940348E0,-3.854389191E-1,4.060553312E-1,1.530979780E0
3.304825426E0,1.345783591E0,-4.417572021E-1,1.212489009E-1,1.421613237E0
3.309850843E0,1.198479176E0,-5.601119995E-1,-1.067951918E-1,1.327208725E0
3.314876260E0,9.832727909E-1,-7.883043289E-1,-4.258100390E-1,1.330249332E0
3.319901676E0,9.588785768E-1,-6.910619736E-1,-6.962894201E-1,1.371799451E0
3.324927093E0,1.081494451E0,-9.666728973E-2,-6.214179993E-1,1.251053612E0
3.329952510E0,1.120829582E0,2.434062958E-1,-7.515934110E-1,1.371276133E0
3.334977926E0,1.058007836E0,3.294706345E-1,-8.234978318E-1,1.380608619E0
3.340003343E0,9.460064173E-1,2.144918442E-1,-7.276990414E-1,1.212633823E0
3.345028760E0,9.094908834E-1,1.331014633E-1,-6.227132082E-1,1.110252857E0
3.350054176E0,9.197901487E-1,6.615543365E-2,-5.040959716E-1,1.050953476E0
3.355079593E0,9.721074700E-1,1.427717209E-1,-4.485968947E-1,1.080099936E0
3.360105010E0,9.901686311E-1,2.432212830E-1,-5.279828310E-1,1.148197013E0
3.365130426E0,1.003118038E0,3.531284332E-1,-7.037727237E-1,1.275241756E0
3.370155843E0,9.059481621E-1,4.293985367E-1,-9.083908796E-1,1.352885496E0
3.375181260E0,6.033600569E-1,4.576416016E-1,-1.202880502E0,1.421407997E0
3.380206676E0,1.060347855E-1,5.047616959E-1,-1.413223147E0,1.504402675E0
3.385232093E0,-3.885922730E-1,4.893760681E-1,-1.356461763E0,1.493479630E0
3.390257510E0,-9.130451083E-1,3.685445786E-1,-9.895923138E-1,1.395983318E0
3.395282926E0,-1.361479402E0,2.524242401E-1,-6.190057397E-1,1.516743968E0
3.400308343E0,-1.509106159E0,1.314029694E-1,-4.019665122E-1,1.567241276E0
3.405333760E0,-1.352841854E0,-4.174232483E-3,-3.283670545E-1,1.392129099E0
3.410359228E0,-1.143002868E0,-2.020664215E-1,-1.459172368E-1,1.169862485E0
3.415384697E0,-9.763774276E-1,-4.094181061E-1,3.267842531E-2,1.059246877E0
3.420410166E0,-9.388464093E-1,-6.786241531E-1,1.096415520E-1,1.163608436E0
3.425435635E0,-8.479750156E-1,-7.894649506E-1,1.364341974E-1,1.166589399E0
3.430461103E0,-6.459652185E-1,-7.420625687E-1,1.604658365E-1,9.968335890E-1
3.435486572E0,-3.901927769E-1,-6.130886078E-1,2.293217182E-1,7.620475672E-1
3.440512041E0,-1.573021412E-1,-4.552488327E-1,3.955843449E-1,6.232835929E-1
3.445537510E0,2.364492416E-2,-3.642292023E-1,5.108070374E-1,6.278103405E-1
3.450562978E0,2.147017121E-1,-2.921352386E-1,5.225396156E-1,6.359932962E-1
3.455588447E0,3.484961092E-1,-2.533178329E-1,5.075604916E-1,6.657605540E-1
3.460613916E0,4.394438267E-1,-2.716779709E-1,3.753485680E-1,6.385971689E-1
3.465639385E0,5.161205530E-1,-2.516002655E-1,1.556722522E-1,5.949092107E-1
3.470664853E0,7.027189732E-1,-1.454105377E-1,-1.360337734E-1,7.303857660E-1
3.475690322E0,1.017235994E0,1.997003555E-1,-3.506054878E-1,1.094337018E0
3.480715791E0,9.039751291E-1,1.377229691E-1,-5.018776059E-1,1.043081867E0
3.485741260E0,7.560124993E-1,1.569557190E-1,-4.891716242E-1,9.140453352E-1
3.490766728E0,4.200784862E-1,8.031654358E-2,-4.272342324E-1,6.045211089E-1
3.495792197E0,-1.120390892E-1,-5.374717712E-2,-1.442528963E-1,1.903954166E-1
3.500817666E0,-5.142860413E-1,2.271556854E-2,-1.394903660E-2,5.149764120E-1
3.505843135E0,-7.195816040E-1,1.564493179E-1,2.791649103E-1,7.875322984E-1
3.510868603E0,-7.802128792E-1,2.470464706E-1,4.615355134E-1,9.395632632E-1
3.515894072E0,-4.515583515E-1,5.146360397E-1,3.988855481E-1,7.923792518E-1
3.520919541E0,-3.559851348E-1,3.850259781E-1,3.744013309E-1,6.443188470E-1
3.525945010E0,-4.027602077E-1,2.125968933E-1,3.880349398E-1,5.983179242E-1
3.530970478E0,-3.389041126E-1,1.503992081E-1,3.059723973E-1,4.807234415E-1
3.535995947E0,-2.145060897E-2,2.508726120E-1,2.241361737E-1,3.370967524E-1
3.541021416E0,5.960437059E-1,5.137691498E-1,2.478286028E-1,8.250126393E-1
3.546046885E0,4.662003219E-1,3.028774261E-2,1.755472422E-1,4.990760681E-1
3.551072353E0,5.761427879E-1,-7.950973511E-2,6.472694874E-2,5.851938892E-1
3.556097822E0,6.333041191E-1,-1.652231216E-1,1.114703417E-1,6.639265202E-1
3.561123291E0,3.889690936E-1,-4.611778259E-1,6.641131639E-2,6.069533803E-1
3.566148760E0,1.546509564E-1,-5.558404922E-1,-3.657621145E-2,5.781119186E-1
3.571174228E0,5.986338258E-1,1.722354889E-1,-1.833322644E-1,6.493367695E-1
3.576199697E0,1.226438403E0,8.945875168E-1,-5.072360039E-1,1.600539392E0
3.581225166E0,3.452799618E-1,2.337741852E-2,-5.862153172E-1,6.807445585E-1
3.586250635E0,-1.515054703E-1,-3.972454071E-1,-6.500250697E-1,7.767177172E-1
3.591276103E0,-5.028535724E-1,-6.404609680E-1,-6.265305877E-1,1.027420335E0
3.596301572E0,-6.680756807E-3,1.564979553E-2,-4.729938507E-1,4.732998325E-1
3.601327041E0,1.017043948E0,1.129863739E0,-5.576707721E-1,1.619248947E0
3.606352510E0,1.178887486E0,1.343299866E0,-6.215585470E-1,1.892238162E0
3.611377978E0,1.203577876E0,1.398412704E0,-7.030749917E-1,1.974454922E0
3.616403447E0,1.484179974E0,1.639676094E0,-7.823292613E-1,2.345925608E0
3.621428916E0,2.202495337E0,2.262899399E0,-6.724440455E-1,3.228603474E0
3.626454385E0,2.210339308E0,2.100697994E0,-2.542288899E-1,3.059928798E0
3.631479853E0,1.953750610E0,1.479360580E0,2.126631737E-1,2.459852597E0
3.636505322E0,1.323786139E0,6.435127258E-1,6.790497303E-1,1.620995653E0
3.641530791E0,1.330699682E0,5.165777206E-1,1.086404800E0,1.793847701E0
3.646556260E0,1.196681380E0,2.559309006E-1,1.166378498E0,1.690557823E0
3.651581728E0,6.357638836E-1,-1.333208084E-1,1.324686766E0,1.475386451E0
3.656607197E0,1.083138883E-1,-2.874956131E-1,1.302725554E0,1.338461615E0
3.661632666E0,-1.163960099E-1,-1.016159058E-1,1.253908396E0,1.263392294E0
3.666658135E0,5.773842335E-2,2.517147064E-1,9.779938459E-1,1.011516674E0
3.671683603E0,-5.078346729E-1,-2.511825562E-1,9.778665304E-1,1.130137904E0
3.676709072E0,-8.990435600E-1,-4.758186340E-1,1.109743357E0,1.505394637E0
3.681734541E0,-1.617859364E0,-1.020307541E0,1.048149705E0,2.181080971E0
3.686760010E0,-1.171853781E0,-7.987060547E-1,6.935326457E-1,1.578657713E0
3.691785478E0,-1.108742118E0,-5.151643753E-1,1.427952051E-1,1.230891501E0
3.696810947E0,-7.925645709E-1,7.397174835E-2,-3.537773490E-1,8.710848588E-1
3.701836416E0,-2.753610611E-1,6.908779144E-1,-6.372228265E-1,9.793819159E-1
3.706861885E0,1.712973118E-1,8.143148422E-1,-6.360684633E-1,1.047394158E0
3.711887353E0,6.857009530E-1,9.997024536E-1,-3.465360403E-1,1.260824341E0
3.716912822E0,7.782391310E-1,1.026950836E0,-1.524221301E-1,1.297504016E0
3.721938291E0,5.869157314E-1,6.570730209E-1,-1.732834578E-1,8.979098994E-1
3.726963760E0,6.191343665E-1,3.831663132E-1,-2.463605404E-1,7.686594195E-1
3.731989228E0,7.079258561E-1,2.290592194E-1,-2.089290023E-1,7.728379337E-1
3.737014697E0,3.458591104E-1,-1.210823059E-1,1.554608345E-2,3.667712226E-1
3.742040166E0,-1.693865061E-1,-4.804267883E-1,1.777600646E-1,5.395371423E-1
3.747065635E0,-2.439835072E-1,-3.085155487E-1,1.965705156E-1,4.397155480E-1
3.752091103E0,-4.669661224E-1,-3.473052979E-1,-4.260051250E-2,5.835178944E-1
3.757116572E0,-6.699526310E-1,-4.004402161E-1,-1.755170822E-1,7.999969629E-1
3.762142041E0,-1.268326283E0,-9.078407288E-1,-3.074486852E-1,1.589764461E0
3.767167510E0,-1.328252792E0,-8.454456329E-1,-1.896156073E-1,1.585871331E0
3.772192978E0,-1.510518909E0,-9.743194580E-1,-1.481593847E-1,1.803584482E0
3.777218447E0,-1.485300064E0,-9.020423889E-1,-3.993123770E-2,1.738214962E0
3.782243916E0,-1.391236782E0,-7.627210617E-1,-8.759915829E-3,1.586619027E0
3.787269385E0,-1.271503925E0,-5.946817398E-1,-9.779512882E-2,1.407100739E0
3.792294801E0,-9.927725792E-1,-3.932628632E-1,-2.537882924E-1,1.097570759E0
3.797320218E0,-8.755294085E-1,-4.502553940E-1,-3.711620569E-1,1.052161080E0
3.802345635E0,-8.146526814E-1,-5.501937866E-1,-3.969214559E-1,1.060150384E0
3.807371051E0,-9.004055262E-1,-7.025327682E-1,-2.548585534E-1,1.170143275E0
3.812396468E0,-1.154741645E-1,-3.216934204E-2,-1.839572191E-1,2.195664084E-1
3.817421885E0,3.460077643E-1,4.362840652E-1,-5.517864227E-2,5.595621870E-1
3.822447301E0,2.457608581E-1,3.157730103E-1,6.706833839E-3,4.001949212E-1
3.827472718E0,1.451818943E-1,1.140813828E-1,1.067208052E-1,2.132643303E-1
3.832498135E0,2.212882638E-1,1.374177933E-1,1.871657372E-1,3.207540472E-1
3.837523551E0,2.488800287E-1,2.324714661E-1,2.717570662E-1,4.357019099E-1
3.842548968E0,3.378142715E-1,4.469642639E-1,2.887428999E-1,6.302919938E-1
3.847574385E0,2.580990195E-1,4.842014313E-1,2.287320495E-1,5.944615045E-1
3.852599801E0,-2.472544909E-1,2.879714966E-2,1.783151627E-1,3.062031292E-1
3.857625218E0,-2.975318134E-1,1.143503189E-1,1.617620587E-1,3.574466940E-1
3.862650635E0,-4.051280022E-1,1.949691772E-1,1.552185416E-1,4.756411188E-1
3.867676051E0,-6.556278467E-1,7.461738586E-2,2.016570568E-1,6.899863739E-1
3.872701468E0,-8.952925205E-1,-9.815406799E-2,1.861857176E-1,9.196999727E-1
3.877726885E0,-1.166798115E0,-2.945480347E-1,2.140024900E-1,1.222282067E0
3.882752301E0,-1.311864853E0,-2.801456451E-1,2.657184601E-1,1.367507687E0
3.887777718E0,-1.297107458E0,-1.412582397E-1,2.884088159E-1,1.336271415E0
3.892803135E0,-1.533703089E0,-3.945207596E-1,1.864561439E-1,1.594571318E0
3.897828551E0,-1.700753450E0,-5.994777679E-1,4.630261660E-2,1.803906823E0
3.902853968E0,-1.406293392E0,-2.349290848E-1,3.547084332E-2,1.426222620E0
3.907879385E0,-1.469010830E0,-5.498428345E-1,-1.282050610E-1,1.573771425E0
3.912904801E0,-1.486432791E0,-6.825866699E-1,-2.383182049E-1,1.652937558E0
3.917930218E0,-1.668827057E0,-5.664434433E-1,-1.465519667E-1,1.768422856E0
3.922955635E0,-1.585337639E0,-3.834571838E-1,-7.317078114E-2,1.632693726E0
3.927981051E0,-1.318179488E0,-3.489894867E-1,-4.005812407E-1,1.421216435E0
3.933006468E0,-1.742088437E0,-3.147163391E-1,-6.392250061E-1,1.882160223E0
3.938031885E0,-1.898262620E0,-3.323554993E-3,-6.973214149E-1,2.022293049E0
3.943057301E0,-2.039827108E0,-1.994762421E-1,-4.317618608E-1,2.094541407E0
3.948082718E0,-1.702383041E0,-2.519989014E-1,7.423388958E-2,1.722533639E0
3.953108135E0,-1.346728683E0,-1.705350876E-1,3.689643145E-1,1.406732038E0
3.958133551E0,-1.442281961E0,-1.608409882E-1,7.145742178E-1,1.617610396E0
3.963158968E0,-1.275930166E0,-2.800350189E-1,1.032613754E0,1.665145209E0
3.968184385E0,-9.920083284E-1,-2.026290894E-1,9.629489779E-1,1.397286587E0
3.973209853E0,-6.439919472E-1,-1.057987213E-1,7.159116864E-1,9.687355368E-1
3.978235322E0,-1.328439415E-1,-2.784252167E-2,3.822849989E-1,4.056655509E-1
3.983260791E0,2.486186326E-1,-2.461328506E-1,-4.748404026E-2,3.530542999E-1
3.988286260E0,1.370040923E-1,-5.260581970E-1,-6.969155073E-1,8.838543841E-1
3.993311728E0,1.220362931E-1,-9.202613831E-1,-1.244542599E0,1.552630075E0
3.998337197E0,4.477391243E-1,-1.270825386E0,-1.733455658E0,2.195526361E0
4.003362666E0,9.642486572E-1,-1.276721954E0,-2.396440029E0,2.881443950E0
4.008388135E0,1.554117322E0,-7.330255508E-1,-2.866865635E0,3.342383233E0
4.013413603E0,2.237756252E0,-3.244524002E-1,-3.003654480E0,3.759622673E0
4.018439072E0,2.791213989E0,-1.035051346E-1,-3.115403652E0,4.184175996E0
4.023464541E0,2.791340113E0,3.035831451E-2,-3.079408169E0,4.156351275E0
4.028490010E0,2.487523556E0,-2.803993225E-2,-2.683764219E0,3.659392035E0
4.033515478E0,2.006323576E0,-2.980041504E-2,-1.909861684E0,2.770161369E0
4.038540947E0,1.355688810E0,1.551818848E-2,-9.274764061E-1,1.642664131E0
4.043566416E0,7.349611521E-1,1.463308334E-1,4.939830303E-2,7.510131825E-1
4.048591885E0,2.899841964E-1,3.819665909E-1,1.055386782E0,1.159237064E0
4.053617353E0,-6.909364462E-2,5.457382202E-1,1.938541651E0,2.015080115E0
4.058642822E0,-1.552184224E-1,7.289390564E-1,2.724995613E0,2.825074512E0
4.063668291E0,1.662269235E-2,8.983411789E-1,3.384351254E0,3.501589153E0
4.068693760E0,2.491937429E-1,1.015886307E0,3.757909775E0,3.900770230E0
4.073719228E0,5.083537698E-1,1.053026199E0,3.855154991E0,4.028586320E0
4.078744697E0,7.985777855E-1,9.428749084E-1,3.581013680E0,3.788191989E0
4.083770166E0,1.072300911E0,8.528089523E-1,2.927607059E0,3.232335912E0
4.088795635E0,9.622797370E-1,8.685722351E-1,2.208360434E0,2.560713929E0
4.093821103E0,6.376175284E-1,9.993314743E-1,1.745599747E0,2.110056394E0
4.098846572E0,2.284073234E-1,9.818086624E-1,1.554003239E0,1.852307809E0
4.103872041E0,-2.104960382E-2,9.165277481E-1,1.246552706E0,1.547371916E0
4.108897510E0,-3.450794220E-1,5.070724487E-1,1.124366522E0,1.280781930E0
4.113922978E0,-5.139495134E-1,3.182382584E-1,8.950147629E-1,1.080032924E0
4.118948447E0,-6.617888808E-1,1.918544769E-1,6.549151540E-1,9.506242802E-1
4.123973916E0,-7.408820391E-1,5.124855042E-2,3.856281638E-1,8.368044517E-1
4.128999385E0,-7.324293852E-1,-6.534290314E-2,1.258608699E-1,7.460318075E-1
4.134024853E0,-5.796376467E-1,-1.532020569E-1,-9.529519081E-2,6.070682376E-1
4.139050322E0,-3.692219853E-1,-1.884670258E-1,-4.211310148E-1,5.909281055E-1
4.144075791E0,-1.108367592E-1,-2.095174789E-1,-8.030353785E-1,8.372861997E-1
4.149101260E0,1.525496244E-1,-2.116336823E-1,-1.139863014E0,1.169336519E0
4.154126728E0,3.584461212E-1,-2.092256546E-1,-1.440587044E0,1.499183120E0
4.159152197E0,5.596839786E-1,-1.736593246E-1,-1.685257196E0,1.784235280E0
4.164177666E0,7.511854172E-1,-5.725860596E-2,-1.924945831E0,2.067117445E0
4.169203135E0,8.472795486E-1,2.832107544E-1,-2.258065701E0,2.428363991E0
4.174228603E0,7.502092123E-1,1.904105663E0,-2.733562946E0,3.414791153E0
4.179254072E0,1.162344933E0,3.220459938E0,-2.390420198E0,4.175705531E0
4.184279541E0,1.736469984E0,1.234422684E0,-1.507185459E0,2.609738565E0
4.189305010E0,2.104619503E0,-6.678781509E-1,-6.254186630E-1,2.294914591E0
4.194330478E0,2.603331327E0,-1.481658936E0,2.344356179E-1,3.004597687E0
4.199355947E0,2.657403946E0,-1.681529999E0,6.545776129E-1,3.212134916E0
4.204381416E0,2.406511784E0,-1.502655983E0,7.560545802E-1,2.936135640E0
4.209406885E0,1.943110347E0,-1.414335251E0,7.512299418E-1,2.518008826E0
4.214432353E0,1.474081635E0,-1.397424698E0,7.607263923E-1,2.168966827E0
4.219457822E0,1.009862661E0,-1.298859596E0,6.558596492E-1,1.771160841E0
4.224483291E0,8.285177350E-1,-9.945373535E-1,3.472318053E-1,1.340192565E0
4.229508760E0,8.249662519E-1,-6.426877975E-1,4.237031937E-2,1.046619399E0
4.234534228E0,8.175073862E-1,-3.247985840E-1,-2.955228686E-1,9.279796402E-1
4.239559697E0,8.396329880E-1,-5.526733398E-2,-6.317325234E-1,1.052199607E0
4.244585166E0,9.483242631E-1,1.850385666E-1,-7.932600379E-1,1.250127860E0
4.249610635E0,9.615420103E-1,3.387289047E-1,-8.753460646E-1,1.343700503E0
4.254636103E0,8.651079535E-1,3.915462494E-1,-7.964251637E-1,1.239360028E0
4.259661572E0,7.212020159E-1,3.866510391E-1,-5.038830042E-1,9.610043994E-1
4.264687041E0,5.539062619E-1,3.624095917E-1,-1.275278330E-1,6.741040033E-1
4.269712510E0,3.154242337E-1,3.189182281E-1,1.402967572E-1,4.699834715E-1
4.274737978E0,1.872627288E-1,3.232707977E-1,4.369477630E-1,5.748866722E-1
4.279763447E0,-1.031562984E-1,2.750854492E-1,5.170170069E-1,5.946594081E-1
4.284788916E0,-3.498054147E-1,1.888656616E-1,5.852094293E-1,7.074631739E-1
4.289814385E0,-4.330196381E-1,1.460237503E-1,6.789075732E-1,8.183791515E-1
4.294839853E0,-5.920608640E-1,-4.955387115E-2,6.255501509E-1,8.627309222E-1
4.299865322E0,-7.786931396E-1,-1.251144409E-1,4.543261528E-1,9.101806865E-1
4.304890791E0,-6.963486075E-1,-6.651973724E-2,4.481706619E-1,8.307726529E-1
4.309916260E0,-8.330055475E-1,-1.609477997E-1,1.676297784E-1,8.648133782E-1
4.314941728E0,-8.246388435E-1,-1.452589035E-1,-7.027357817E-2,8.402783748E-1
4.319967197E0,-7.289781570E-1,-5.313396454E-2,-3.459553719E-1,8.086516499E-1
4.324992666E0,-4.937708378E-1,1.248464584E-1,-4.768501520E-1,6.976978901E-1
4.330018135E0,-3.922046721E-1,1.350822449E-1,-6.826049685E-1,7.987623306E-1
4.335043603E0,-3.190153539E-1,1.403808594E-1,-8.194466829E-1,8.904888814E-1
4.340069072E0,-1.163959503E-1,2.603158951E-1,-8.827372193E-1,9.276515407E-1
4.345094541E0,1.095756441E-1,3.656349182E-1,-8.246924877E-1,9.087427659E-1
4.350120010E0,-1.095743179E-1,1.311712265E-1,-7.844660878E-1,8.028695191E-1
4.355145478E0,-2.370224297E-1,-5.526447296E-2,-7.767133117E-1,8.139516955E-1
4.360170947E0,-4.823896289E-2,-9.328365326E-2,-7.729688883E-1,7.800703428E-1
4.365196416E0,2.453842461E-1,1.218414307E-2,-5.250107050E-1,5.796534499E-1
4.370221885E0,3.755614460E-1,6.013202667E-2,-1.579433680E-1,4.118353649E-1
4.375247353E0,3.472533226E-1,-5.454826355E-2,-5.506926775E-2,3.557991110E-1
4.380272822E0,3.519467115E-1,-1.642627716E-1,-1.013795733E-1,4.014057346E-1
4.385298291E0,3.895331025E-1,-1.972904205E-1,-1.673983335E-1,4.676342054E-1
4.390323708E0,4.216545522E-1,-2.111387253E-1,-2.478456497E-1,5.327284381E-1
4.395349124E0,3.861427903E-1,-2.536725998E-1,-2.897272706E-1,5.453420337E-1
4.400374541E0,2.832300663E-1,-3.200864792E-1,-3.072227240E-1,5.263652978E-1
4.405399958E0,2.042695284E-1,-3.625478745E-1,-2.810144126E-1,5.021315581E-1
4.410425374E0,1.589972377E-1,-3.476133347E-1,-2.876679897E-1,4.784015304E-1
4.415450791E0,8.529950678E-2,-3.279590607E-1,-2.507212460E-1,4.215380108E-1
4.420476208E0,5.978821218E-2,-3.179340363E-1,-3.138046563E-1,4.506995052E-1
4.425501624E0,2.008146048E-2,-3.318729401E-1,-4.097346663E-1,5.276603171E-1
4.430527041E0,5.234026909E-2,-2.262735367E-1,-3.280967176E-1,4.019784488E-1
4.435552458E0,1.469192058E-1,-3.954315186E-2,-8.824494481E-2,1.758865662E-1
4.440577874E0,1.745857894E-1,8.240699768E-3,-4.938340187E-2,1.816227612E-1
4.445603291E0,1.736957878E-1,-3.013134003E-2,-1.732168198E-1,2.471481155E-1
4.450628708E0,2.015801966E-1,-6.369113922E-2,-2.202712297E-1,3.053040313E-1
4.455654124E0,2.582177222E-1,-8.765697479E-2,-2.242341042E-1,3.530454231E-1
4.460679541E0,2.669615448E-1,-1.689958572E-1,-2.568009496E-1,4.071545086E-1
4.465704958E0,2.136756480E-1,-2.980718613E-1,-3.036890924E-1,4.761629783E-1
4.470730374E0,1.894097924E-1,-4.270067215E-1,-3.553183973E-1,5.869088286E-1
4.475755791E0,1.991654336E-1,-5.558042526E-1,-4.166179299E-1,7.226034436E-1
4.480781208E0,3.003886342E-1,-6.366539001E-1,-4.969292879E-1,8.616845347E-1
4.485806624E0,4.736235440E-1,-6.600484848E-1,-6.105201244E-1,1.016227379E0
4.490832041E0,6.658558846E-1,-6.834421158E-1,-7.715331316E-1,1.227078057E0
4.495857458E0,8.434300423E-1,-7.164001465E-1,-9.366579652E-1,1.449803969E0
4.500882874E0,1.039578438E0,-7.158708572E-1,-1.096007347E0,1.671653827E0
4.505908291E0,1.206240773E0,-7.344980240E-1,-1.268500924E0,1.898314712E0
4.510933708E0,1.352710724E0,-7.435588837E-1,-1.439514995E0,2.110665662E0
4.515959124E0,1.507609844E0,-7.526216507E-1,-1.546935201E0,2.287429847E0
4.520984541E0,1.594412565E0,-8.095064163E-1,-1.653064132E0,2.435174140E0
4.526009958E0,1.747069359E0,-7.993688583E-1,-1.700574994E0,2.565774196E0
4.531035374E0,1.927135468E0,-7.605371475E-1,-1.708929300E0,2.685648379E0
4.536060791E0,2.053273916E0,-7.360906601E-1,-1.859851122E0,2.866497764E0
4.541086208E0,2.173143148E0,-6.973209381E-1,-1.942394495E0,2.996949117E0
4.546111624E0,2.339172840E0,-5.916595459E-1,-1.989621878E0,3.127360838E0
4.551137041E0,2.426600218E0,-5.052881241E-1,-2.106114626E0,3.252602577E0
4.556162458E0,2.597792149E0,-3.330087662E-1,-1.927475333E0,3.251857938E0
4.561187874E0,2.761248112E0,-1.562461853E-1,-1.673606515E0,3.232624750E0
4.566213343E0,2.787736416E0,-4.197788239E-2,-1.454673052E0,3.144727358E0
4.571238812E0,2.729676247E0,3.378772736E-2,-1.189646244E0,2.977840192E0
4.576264281E0,2.711487293E0,1.141405106E-1,-8.314124942E-1,2.838386537E0
4.581289749E0,2.618413448E0,2.182235718E-1,-6.105966568E-1,2.697506032E0
4.586315218E0,2.345770836E0,4.894227982E-1,-8.808436990E-1,2.553049375E0
4.591340687E0,1.923998594E0,7.886114120E-1,-1.209152222E0,2.405353954E0
4.596366156E0,1.928195477E0,5.944404602E-1,-2.044801116E-1,2.028080218E0
4.601391624E0,2.041474342E0,2.951717377E-1,8.605126143E-1,2.235000180E0
4.606417093E0,2.019055367E0,1.733255386E-1,1.318526387E0,2.417672052E0
4.611442562E0,1.903821468E0,1.331090927E-1,1.389678955E0,2.360818039E0
4.616468031E0,1.786750913E0,1.744127274E-1,1.390386939E0,2.270699113E0
4.621493499E0,1.706140280E0,1.392841339E-1,1.412034035E0,2.219043677E0
4.626518968E0,1.585298300E0,9.952831268E-2,1.349736571E0,2.084434071E0
4.631544437E0,1.453071952E0,5.986499786E-2,1.209048986E0,1.891243339E0
4.636569906E0,1.257154584E0,-1.805400848E-2,9.191460013E-1,1.557431529E0
4.641595374E0,1.050711393E0,-1.151618958E-1,5.529643893E-1,1.192906665E0
4.646620843E0,8.631377220E-1,-2.123966217E-1,2.692254186E-1,9.287633596E-1
4.651646312E0,6.710845232E-1,-2.858963013E-1,1.087886095E-2,7.295268891E-1
4.656671781E0,4.227103591E-1,-3.309354782E-1,-2.552986145E-1,5.944575014E-1
4.661697249E0,9.028950334E-2,-3.762340546E-1,-5.053573847E-1,6.364670804E-1
4.666722718E0,-3.300564885E-1,-3.787193298E-1,-7.250467539E-1,8.820761938E-1
4.671748187E0,-7.133654356E-1,-3.049230576E-1,-8.858891726E-1,1.177568657E0
4.676773656E0,-1.002475619E0,-1.931705475E-1,-9.832973480E-1,1.417443439E0
4.681799124E0,-1.245934248E0,-9.609603882E-2,-1.003188133E0,1.602489635E0
4.686824593E0,-1.473051548E0,-4.102706909E-3,-8.979793787E-1,1.725185399E0
4.691850062E0,-1.708076119E0,7.805824280E-2,-7.110960484E-1,1.851830097E0
4.696875531E0,-1.937087059E0,1.025505066E-1,-5.046988726E-1,2.004381160E0
4.701900999E0,-2.112421513E0,1.124992371E-1,-2.167598009E-1,2.126491368E0
4.706926468E0,-2.253433704E0,1.318359375E-1,1.286715269E-1,2.260951246E0
4.711951937E0,-2.341070890E0,1.414737701E-1,5.550248027E-1,2.410120386E0
4.716977406E0,-2.385155201E0,1.510620117E-1,9.516486526E-1,2.572434688E0
4.722002874E0,-2.328493834E0,1.368064880E-1,1.289049149E0,2.665004175E0
4.727028343E0,-2.267072916E0,1.179580688E-1,1.576260328E0,2.763716761E0
4.732053812E0,-2.196180344E0,8.026409149E-2,1.779341698E0,2.827668174E0
4.737079281E0,-2.110808849E0,6.212139130E-2,1.888233423E0,2.832807534E0
4.742104749E0,-1.982057691E0,4.922485352E-2,1.931504011E0,2.767974624E0
4.747130218E0,-1.829038143E0,5.114555359E-2,1.880608201E0,2.623868061E0
4.752155687E0,-1.608444452E0,6.307506561E-2,1.783714414E0,2.402646276E0
4.757181156E0,-1.320319653E0,7.060909271E-2,1.641298056E0,2.107626375E0
4.762206624E0,-9.888277054E-1,1.023826599E-1,1.482527494E0,1.784979051E0
4.767232093E0,-6.140450835E-1,1.439580917E-1,1.288724899E0,1.434777740E0
4.772257562E0,-2.440447509E-1,1.952400208E-1,1.093907118E0,1.137677146E0
4.777283031E0,9.237396717E-2,2.131109238E-1,9.654367566E-1,9.929840616E-1
4.782308499E0,4.333432913E-1,2.262449265E-1,9.083696604E-1,1.031556404E0
4.787333968E0,7.070116401E-1,2.346162796E-1,8.701675534E-1,1.145470134E0
4.792359437E0,9.086864591E-1,2.334518433E-1,8.364520669E-1,1.256925974E0
4.797384906E0,1.067086220E0,1.940536499E-1,7.929295301E-1,1.343527841E0
4.802410374E0,1.086642623E0,1.547193527E-1,6.775302887E-1,1.289875017E0
4.807435843E0,1.115892410E0,1.728124619E-1,6.005471349E-1,1.278959295E0
4.812461312E0,1.211888552E0,2.864923477E-1,6.911116838E-1,1.424214551E0
4.817486781E0,1.197086573E0,3.760719299E-1,7.001409531E-1,1.436886813E0
4.822512249E0,9.616299272E-1,3.889408112E-1,4.796963334E-1,1.142854166E0
4.827537718E0,6.114968061E-1,4.016819000E-1,3.030662537E-1,7.919127773E-1
4.832563187E0,3.003917933E-1,4.286012650E-1,2.711522579E-1,5.894555291E-1
4.837588656E0,-3.370404243E-2,4.983911514E-1,2.976939678E-1,5.815078682E-1
4.842614124E0,-4.477514923E-1,4.675807953E-1,2.437719107E-1,6.917643698E-1
4.847639593E0,-1.055585265E0,2.932767868E-1,-1.580365896E-1,1.106908799E0
4.852665062E0,-1.301318407E0,4.013299942E-1,-1.227506399E-1,1.367319670E0
4.857690531E0,-1.124010563E0,7.341136932E-1,6.062194705E-1,1.473032487E0
4.862715999E0,-1.190369368E0,8.563079834E-1,8.784903884E-1,1.709382332E0
4.867741468E0,-1.710119367E0,7.155914307E-1,2.929822206E-1,1.876810573E0
4.872766937E0,-1.992919445E0,7.283554077E-1,1.139496565E-1,2.124903301E0
4.877792406E0,-1.939029574E0,8.752622604E-1,5.368869901E-1,2.194121089E0
4.882817874E0,-1.784232855E0,1.089225769E0,9.624989033E-1,2.301369982E0
4.887843343E0,-1.806952238E0,1.217172623E0,9.739528894E-1,2.386455492E0
4.892868812E0,-2.054651260E0,1.163534164E0,5.863413811E-1,2.432940560E0
4.897894281E0,-2.244116545E0,1.129354477E0,2.551586628E-1,2.525194358E0
4.902919749E0,-2.269847870E0,1.133684158E0,1.195355654E-1,2.540027141E0
4.907945218E0,-2.208656311E0,1.099925041E0,4.069674015E-2,2.467722436E0
4.912970687E0,-2.161200762E0,1.133312225E0,-1.959455013E-2,2.440403507E0
4.917996156E0,-2.065361977E0,1.109419823E0,-2.794599533E-2,2.344635028E0
4.923021624E0,-1.974006176E0,1.037881851E0,3.460717201E-2,2.230492496E0
4.928047093E0,-1.882422805E0,9.904947281E-1,6.269955635E-2,2.128033519E0
4.933072562E0,-1.738060951E0,9.959268570E-1,6.107735634E-2,2.004109932E0
4.938098031E0,-1.598621607E0,9.536809921E-1,8.701932430E-2,1.863510354E0
4.943123499E0,-1.464247227E0,9.403276443E-1,9.740161896E-2,1.742906508E0
4.948148968E0,-1.315903187E0,9.175662994E-1,4.436969757E-2,1.604835749E0
4.953174437E0,-1.124864340E0,9.188795090E-1,1.411032677E-2,1.452535176E0
4.958199906E0,-9.293485880E-1,8.724899292E-1,-3.156721592E-2,1.275117235E0
4.963225374E0,-7.580906153E-1,8.118982315E-1,-1.163703203E-1,1.116880553E0
4.968250843E0,-6.061769724E-1,7.418851852E-1,-1.874685287E-1,9.762113497E-1
4.973276312E0,-4.590116441E-1,6.576910019E-1,-1.874849796E-1,8.236502662E-1
4.978301781E0,-3.308857381E-1,5.641078949E-1,-1.834138632E-1,6.792228898E-1
4.983327249E0,-1.882160902E-1,4.754962921E-1,-2.039643526E-1,5.505665060E-1
4.988352718E0,-8.810794353E-2,4.109621048E-1,-2.631915808E-1,4.959059079E-1
4.993378187E0,-9.227073193E-2,3.943996429E-1,-2.174881697E-1,4.597456582E-1
4.998403656E0,-9.039342403E-2,3.731985092E-1,-9.128785133E-2,3.946917407E-1
5.003429124E0,-1.208462119E-1,3.378782272E-1,6.192886829E-2,3.641437739E-1
5.008454593E0,-1.645956039E-1,2.789335251E-1,5.029463768E-2,3.277577990E-1
5.013480062E0,-1.116842031E-1,2.203149796E-1,-2.108776569E-2,2.479047101E-1
5.018505531E0,-9.978413582E-3,1.859130859E-1,-1.712375879E-1,2.529536633E-1
5.023530947E0,1.691150069E-1,1.995496750E-1,-2.706465721E-1,3.763901239E-1
5.028556364E0,3.441911936E-1,2.276582718E-1,-4.053951502E-1,5.784817147E-1
5.033581781E0,6.012852788E-1,2.701692581E-1,-4.939136505E-1,8.237026822E-1
5.038607197E0,9.306109548E-1,3.270320892E-1,-5.983711481E-1,1.153704801E0
5.043632614E0,1.288837194E0,3.742837906E-1,-6.853010058E-1,1.506926388E0
5.048658031E0,1.699625134E0,4.023189545E-1,-7.784413695E-1,1.912212620E0
5.053683447E0,2.148420095E0,4.111127853E-1,-8.775244951E-1,2.356856353E0
5.058708864E0,2.596824884E0,4.293365479E-1,-9.917623401E-1,2.812724994E0
5.063734281E0,3.020715714E0,4.234657288E-1,-1.073148847E0,3.233526727E0
5.068759697E0,3.415224075E0,4.030637741E-1,-1.121457577E0,3.617165048E0
5.073785114E0,3.780116796E0,3.011732101E-1,-1.117568612E0,3.953346418E0
5.078810531E0,4.177144051E0,1.465692520E-1,-1.114192724E0,4.325672247E0
5.083835947E0,4.500403404E0,-4.158496857E-2,-1.116124153E0,4.636927133E0
5.088861364E0,4.754372120E0,-1.771907806E-1,-1.151967049E0,4.895148507E0
5.093886781E0,4.843460560E0,-2.746744156E-1,-1.331429243E0,5.030632173E0
5.098912197E0,4.887849808E0,-2.814750671E-1,-1.610813141E0,5.154126786E0
5.103937614E0,4.844875336E0,-2.503175735E-1,-2.041903496E0,5.263539284E0
5.108963031E0,4.777091980E0,-1.764678955E-1,-2.527944565E0,5.407610602E0
5.113988447E0,4.617794991E0,-1.125745773E-1,-3.010608196E0,5.513661698E0
5.119013864E0,4.281386852E0,-7.293510437E-2,-3.393634558E0,5.463730266E0
5.124039281E0,3.672959805E0,-7.181835175E-2,-3.547410488E0,5.106849594E0
5.129064697E0,2.922343493E0,-8.999061584E-2,-3.414791107E0,4.495440813E0
5.134090114E0,2.225945234E0,-2.469425201E-1,-3.006139517E0,3.748691450E0
5.139115531E0,1.478254795E0,-5.663928986E-1,-2.460974216E0,2.926163401E0
5.144140947E0,7.029991746E-1,-1.105508804E0,-1.799202919E0,2.225643435E0
5.149166364E0,-6.645363569E-2,-1.806616783E0,-1.093386769E0,2.112764756E0
5.154191781E0,-8.159003258E-1,-2.549940109E0,-4.928811789E-1,2.722282087E0
5.159217197E0,-1.392658949E0,-3.153697014E0,-5.559895933E-2,3.447955198E0
5.164242614E0,-1.788112402E0,-3.450707436E0,2.611902356E-1,3.895246861E0
5.169268031E0,-2.146631956E0,-3.517901421E0,4.336507022E-1,4.143876457E0
5.174293447E0,-2.473711252E0,-3.365158081E0,4.955396354E-1,4.205840677E0
5.179318864E0,-2.831910849E0,-3.083636284E0,4.422871768E-1,4.210005906E0
5.184344281E0,-3.307261467E0,-2.702190399E0,2.453193963E-1,4.277849106E0
5.189369749E0,-3.808116913E0,-2.307005882E0,-3.305719048E-2,4.452541223E0
5.194395218E0,-4.242486477E0,-1.945883751E0,-3.594387174E-1,4.681276671E0
5.199420687E0,-4.533013344E0,-1.642660141E0,-6.384811997E-1,4.863558425E0
5.204446156E0,-4.631299496E0,-1.435500145E0,-7.082384229E-1,4.900122177E0
5.209471624E0,-4.565580368E0,-1.242967606E0,-6.171890497E-1,4.771835589E0
5.214497093E0,-4.311491489E0,-9.550380707E-1,-4.615345895E-1,4.440053013E0
5.219522562E0,-3.897287846E0,-5.383424759E-1,-3.321462870E-1,3.948289038E0
5.224548031E0,-3.351400852E0,-1.693058014E-2,-4.574995041E-1,3.382525700E0
5.229573499E0,-2.869491100E0,8.530616760E-1,-7.237448692E-1,3.079853898E0
5.234598968E0,-2.350313425E0,1.645676613E0,-1.953910738E-1,2.875830729E0
5.239624437E0,-1.679367781E0,2.054926395E0,3.127723038E-1,2.672232241E0
5.244649906E0,-1.034634233E0,2.435176849E0,3.804089129E-1,2.673062892E0
5.249675374E0,-4.558079839E-1,2.599944115E0,5.354305506E-1,2.693354078E0
5.254700843E0,-1.621550322E-2,2.434680939E0,7.589704990E-1,2.550288304E0
5.259726312E0,1.965766251E-1,2.054516315E0,1.021831989E0,2.303002448E0
5.264751781E0,1.769780815E-1,1.607907295E0,1.365752339E0,2.117065555E0
5.269777249E0,6.834435463E-2,1.171388626E0,1.740899444E0,2.099417333E0
5.274802718E0,-5.260881782E-2,7.974967957E-1,2.111444950E0,2.257646696E0
5.279828187E0,-1.565802544E-1,4.861145020E-1,2.489231586E0,2.541082166E0
5.284853656E0,-2.856689990E-1,1.893148422E-1,2.757058620E0,2.778276286E0
5.289879124E0,-4.908121228E-1,-1.072607040E-1,2.913171530E0,2.956174853E0
5.294904593E0,-6.791280508E-1,-3.988113403E-1,2.966234684E0,3.069008569E0
5.299930062E0,-7.439669371E-1,-6.853313446E-1,2.844716072E0,3.019201117E0
5.304955531E0,-6.704486609E-1,-9.477005005E-1,2.530528069E0,2.784099487E0
5.309980999E0,-4.586241841E-1,-1.147720337E0,2.153991222E0,2.483400149E0
5.315006468E0,-9.506176412E-2,-1.252032280E0,1.754637241E0,2.157631437E0
5.320031937E0,3.567209244E-1,-1.246441841E0,1.324077129E0,1.853118271E0
5.325057406E0,8.808916211E-1,-1.111975670E0,9.208478928E-1,1.691277854E0
5.330082874E0,1.480771780E0,-8.631401062E-1,6.366385818E-1,1.828388523E0
5.335108343E0,2.030569792E0,-5.383043289E-1,4.149333537E-1,2.141297485E0
5.340133812E0,2.500431776E0,-1.279525757E-1,2.754524946E-1,2.518810236E0
5.345159281E0,2.946871996E0,3.391647339E-1,1.707931161E-1,2.971238389E0
5.350184749E0,3.301689148E0,8.391304016E-1,3.449571133E-2,3.406828586E0
5.355210218E0,3.454140663E0,1.199799538E0,-5.155146122E-2,3.656947389E0
5.360235687E0,3.313207865E0,1.440539360E0,-4.870867729E-2,3.613152714E0
5.365261156E0,2.851028442E0,1.518478394E0,-8.140814304E-2,3.231217587E0
5.370286624E0,2.203192472E0,1.452962875E0,-1.400808096E-1,2.642873592E0
5.375312093E0,1.500486135E0,1.354172707E0,-2.486541271E-1,2.036435915E0
5.380337562E0,8.352413177E-1,1.203030586E0,-3.640744090E-1,1.509125848E0
5.385363031E0,1.989728510E-1,1.013973236E0,-4.336213470E-1,1.120606707E0
5.390388499E0,-8.735764027E-2,8.970127106E-1,8.811222911E-1,1.260412493E0
5.395413968E0,-2.869935632E-1,1.148292542E0,2.321766376E0,2.606058360E0
5.400439437E0,-9.020252824E-1,6.243419647E-1,9.994515777E-1,1.484033677E0
5.405464906E0,-1.462570786E0,1.920089722E-1,-9.972935915E-2,1.478487976E0
5.410490374E0,-1.819594860E0,2.052040100E-1,1.512634754E-2,1.831191674E0
5.415515843E0,-2.125406742E0,2.759475708E-1,4.855582714E-1,2.197559491E0
5.420541312E0,-2.441474915E0,2.175827026E-1,6.739530563E-1,2.542116188E0
5.425566781E0,-2.695297241E0,1.307106018E-1,8.484215140E-1,2.828697853E0
5.430592249E0,-2.771870852E0,8.713626862E-2,9.472008944E-1,2.930537541E0
5.435617718E0,-2.729284286E0,6.769943237E-2,8.943325281E-1,2.872874275E0
5.440643187E0,-2.549536943E0,6.332397461E-4,6.042106748E-1,2.620154493E0
5.445668656E0,-2.109459400E0,-1.570711136E-1,4.692234993E-1,2.166716638E0
5.450694124E0,-1.510695338E0,-3.336858749E-1,6.983893514E-1,1.697437585E0
5.455719593E0,-9.407055974E-1,-4.288835526E-1,9.551221728E-1,1.407524951E0
5.460745062E0,-3.997532427E-1,-4.954557419E-1,1.094982147E0,1.266595812E0
5.465770531E0,1.120239273E-1,-4.761133194E-1,1.280009747E0,1.370276689E0
5.470795999E0,5.944517255E-1,-4.379377365E-1,1.347372890E0,1.536416616E0
5.475821468E0,9.945137501E-1,-4.383306503E-1,1.268677473E0,1.670548978E0
5.480846937E0,1.235562444E0,-5.154752731E-1,1.154467106E0,1.767801914E0
5.485872406E0,1.408568025E0,-5.114355087E-1,1.057650924E0,1.834190731E0
5.490897874E0,1.556496024E0,-5.458631516E-1,9.400939345E-1,1.898531817E0
5.495923343E0,1.698473096E0,-5.373649597E-1,7.114484310E-1,1.918262450E0
5.500948812E0,1.810058713E0,-4.907321930E-1,5.300945640E-1,1.948879390E0
5.505974281E0,1.910064816E0,-5.111894608E-1,2.862799764E-1,1.997903524E0
5.510999749E0,2.056160450E0,-5.794811249E-1,-2.904146910E-2,2.136454441E0
5.516025218E0,2.133258820E0,-3.607082367E-1,-2.621940374E-1,2.179369023E0
5.521050687E0,2.179146290E0,-2.329502106E-1,-5.990360975E-1,2.271956998E0
5.526076156E0,2.250390053E0,-1.433858871E-1,-8.139162064E-1,2.397347387E0
5.531101624E0,2.155008078E0,-1.301546097E-1,-1.049979448E0,2.400720075E0
5.536127093E0,1.960151553E0,-4.966259003E-2,-1.196988821E0,2.297268535E0
5.541152562E0,1.785537124E0,1.744928360E-1,-1.154917717E0,2.133641372E0
5.546178031E0,1.497389197E0,3.316431046E-1,-1.024911523E0,1.844615187E0
5.551203499E0,1.192271471E0,3.070173264E-1,-7.693269253E-1,1.451769547E0
5.556228968E0,9.429048300E-1,2.681560516E-1,-4.796725512E-1,1.091358302E0
5.561254437E0,7.309229970E-1,1.910972595E-1,2.069926262E-1,7.833342438E-1
5.566279906E0,1.035576463E0,2.621593475E-1,3.597946644E0,3.753180809E0
5.571305374E0,7.476065755E-1,5.859098434E-1,3.760331631E0,3.878440397E0
5.576330843E0,1.847476065E-1,9.094905853E-2,3.033694744E0,3.040675453E0
5.581356312E0,4.296933413E-1,4.761543274E-1,4.232035637E0,4.280360375E0
5.586381781E0,1.075536013E-1,8.171348572E-1,3.170869827E0,3.276231465E0
5.591407249E0,-2.515601218E-1,9.751644135E-1,2.267752171E0,2.481315787E0
5.596432718E0,-4.089138210E-1,1.146589279E0,1.666698933E0,2.063919286E0
5.601458187E0,-6.799935102E-1,1.125868797E0,1.378191352E0,1.905093994E0
5.606483656E0,-8.531774879E-1,1.104701042E0,9.202520847E-1,1.671867255E0
5.611509124E0,-8.658227324E-1,1.107195854E0,2.755174637E-1,1.432285424E0
5.616534593E0,-7.755805850E-1,1.128723145E0,-2.149178982E-1,1.386265084E0
5.621560062E0,-6.304657459E-1,1.083288193E0,-6.031634212E-1,1.390973213E0
5.626585531E0,-4.835314751E-1,9.805698395E-1,-8.748719692E-1,1.400257426E0
5.631610999E0,-3.210451007E-1,8.158607483E-1,-9.967415929E-1,1.327475996E0
5.636636468E0,-1.337967515E-1,6.800384521E-1,-9.072896838E-1,1.141721699E0
5.641661937E0,6.820011139E-2,5.108289719E-1,-8.510918021E-1,9.949646975E-1
5.646687406E0,2.751869261E-1,3.035335541E-1,-7.226460576E-1,8.307092074E-1
5.651712874E0,4.730900824E-1,1.491584778E-1,-5.645914078E-1,7.515490239E-1
5.656738343E0,6.521201730E-1,-5.277824402E-2,-4.677921534E-1,8.042858707E-1
5.661763812E0,7.211986780E-1,-2.065610886E-1,-3.939189911E-1,8.473294448E-1
5.666789281E0,7.329052687E-1,-3.313150406E-1,-4.095916748E-1,9.025990965E-1
5.671814749E0,7.543920875E-1,-3.887548447E-1,-4.427036047E-1,9.571960262E-1
5.676840218E0,7.665942907E-1,-4.411296844E-1,-4.645849466E-1,9.990502378E-1
5.681865687E0,7.888031602E-1,-4.980144501E-1,-5.231701136E-1,1.069549338E0
5.686891156E0,7.922347784E-1,-5.642518997E-1,-5.805557966E-1,1.132722907E0
5.691916572E0,7.862127423E-1,-6.208038330E-1,-6.707774401E-1,1.205599539E0
5.696941989E0,7.703977227E-1,-6.342897415E-1,-7.846888304E-1,1.269477329E0
5.701967406E0,7.539378405E-1,-5.761489868E-1,-9.465855956E-1,1.340296315E0
5.706992822E0,7.124744654E-1,-4.465036392E-1,-1.113528252E0,1.395324525E0
5.712018239E0,6.026238203E-1,-2.837038040E-1,-1.314218283E0,1.473367915E0
5.717043656E0,4.768395424E-1,-7.812309265E-2,-1.519423485E0,1.594404871E0
5.722069072E0,3.160246015E-1,8.415508270E-2,-1.791066527E0,1.820679250E0
5.727094489E0,1.442058235E-1,2.224340439E-1,-2.056778193E0,2.073790914E0
5.732119906E0,-9.629845619E-3,3.273591995E-1,-2.296629190E0,2.319862586E0
5.737145322E0,-1.692239791E-1,3.608417511E-1,-2.524446249E0,2.555713675E0
5.742170739E0,-2.719584405E-1,3.900718689E-1,-2.643988609E0,2.686408983E0
5.747196156E0,-3.701794744E-1,4.151554108E-1,-2.693244696E0,2.750082517E0
5.752221572E0,-4.680154324E-1,4.122419357E-1,-2.681663752E0,2.753234886E0
5.757246989E0,-5.270258784E-1,3.909635544E-1,-2.609220266E0,2.690471924E0
5.762272406E0,-4.991993904E-1,3.847703934E-1,-2.447547197E0,2.527396995E0
5.767297822E0,-4.465546310E-1,3.266572952E-1,-2.268642902E0,2.335135252E0
5.772323239E0,-3.306904733E-1,2.739782333E-1,-2.068200350E0,2.112314595E0
5.777348656E0,-1.998473555E-1,2.361993790E-1,-1.846652269E0,1.872392511E0
5.782374072E0,-8.294175565E-2,1.366796494E-1,-1.623608589E0,1.631461159E0
5.787399489E0,3.446235508E-2,5.677223206E-2,-1.394387484E0,1.395968193E0
5.792424906E0,8.541860431E-2,-3.627777100E-3,-1.159348488E0,1.162496630E0
5.797450322E0,1.130718440E-1,-8.286380768E-2,-9.522271156E-1,9.624905881E-1
5.802475739E0,1.700843871E-1,-1.331586838E-1,-7.780740261E-1,8.075017795E-1
5.807501156E0,2.468166500E-1,-1.163568497E-1,-6.275868416E-1,6.843410107E-1
5.812526572E0,3.238978684E-1,-1.186580658E-1,-5.056753159E-1,6.121250614E-1
5.817551989E0,4.106047750E-1,-9.710788727E-2,-3.745599985E-1,5.641998010E-1
5.822577406E0,4.586368501E-1,-4.707813263E-2,-1.344411373E-1,4.802484047E-1
5.827602822E0,4.536085129E-1,3.596878052E-2,1.609182358E-1,4.826480237E-1
5.832628239E0,4.628443122E-1,7.538414001E-2,4.775257111E-1,6.692820262E-1
5.837653656E0,5.105884075E-1,9.991168976E-2,5.331546068E-1,7.449407375E-1
5.842679072E0,5.251369476E-1,1.287431717E-1,5.483262539E-1,7.700683728E-1
5.847704489E0,5.592738390E-1,1.666765213E-1,6.188476086E-1,8.506119282E-1
5.852729958E0,6.035164595E-1,1.850576401E-1,6.014397144E-1,8.718991783E-1
5.857755426E0,6.481319666E-1,2.030706406E-1,5.680984259E-1,8.854651617E-1
5.862780895E0,7.026755214E-1,2.494220734E-1,6.049798727E-1,9.601900361E-1
5.867806364E0,7.573827505E-1,2.427673340E-1,5.589545965E-1,9.721084560E-1
5.872831833E0,8.026317954E-1,2.501239777E-1,5.209844112E-1,9.890422438E-1
5.877857301E0,8.284953237E-1,2.140712738E-1,4.623045921E-1,9.726029753E-1
5.882882770E0,8.392627835E-1,1.538257599E-1,2.922070026E-1,9.018920759E-1
5.887908239E0,7.963769436E-1,7.907772064E-2,1.930100918E-1,8.232389797E-1
5.892933708E0,7.723495364E-1,1.390266418E-2,2.275288105E-1,8.052865640E-1
5.897959176E0,8.589866161E-1,-2.243423462E-2,2.720007896E-1,9.013022418E-1
5.902984645E0,9.558148384E-1,-3.952980042E-2,3.120858669E-1,1.006251558E0
5.908010114E0,1.000207663E0,-9.490203857E-2,4.094545841E-1,1.084930791E0
5.913035583E0,9.727369547E-1,-1.456375122E-1,5.201811790E-1,1.112661641E0
5.918061051E0,8.877236843E-1,-2.205944061E-1,5.813717842E-1,1.083839648E0
5.923086520E0,8.458761573E-1,-3.007020950E-1,5.497004986E-1,1.052662748E0
5.928111989E0,7.899643183E-1,-3.716335297E-1,3.774144650E-1,9.511029297E-1
5.933137458E0,7.727676034E-1,-3.950748444E-1,1.128673553E-1,8.752102270E-1
5.938162926E0,7.797020078E-1,-3.996610641E-1,-2.098052502E-1,9.009341985E-1
5.943188395E0,7.916564941E-1,-3.948507309E-1,-5.325560570E-1,1.032590460E0
5.948213864E0,8.276258707E-1,-3.853588104E-1,-8.311352730E-1,1.234605944E0
5.953239333E0,8.445173502E-1,-4.093685150E-1,-1.086107492E0,1.435416881E0
5.958264801E0,8.328469396E-1,-4.811153412E-1,-1.311578035E0,1.626451026E0
5.963290270E0,7.929581404E-1,-5.670423508E-1,-1.474012375E0,1.767210265E0
5.968315739E0,7.585582137E-1,-6.766767502E-1,-1.611662388E0,1.905454707E0
5.973341208E0,7.586773634E-1,-8.386802673E-1,-1.719729662E0,2.058262870E0
5.978366676E0,8.175142407E-1,-9.956140518E-1,-1.850898743E0,2.255083819E0
5.983392145E0,9.352781773E-1,-1.137928009E0,-1.957303762E0,2.449625163E0
5.988417614E0,1.135779500E0,-1.217798233E0,-2.014995575E0,2.614045672E0
5.993443083E0,1.356669545E0,-1.235335350E0,-2.086329937E0,2.778376916E0
5.998468551E0,1.602700949E0,-1.224138260E0,-2.166660070E0,2.959996735E0
6.003494020E0,1.892949104E0,-1.236850739E0,-2.212924957E0,3.163873090E0
6.008519489E0,2.179326057E0,-1.388138771E0,-2.425723076E0,3.544082921E0
6.013544958E0,2.485692024E0,-1.596334457E0,-2.636705637E0,3.959692558E0
6.018570426E0,2.811920881E0,-1.870718956E0,-2.873779774E0,4.434534772E0
6.023595895E0,3.200436592E0,-2.182252884E0,-3.126446247E0,4.977920064E0
6.028621364E0,3.621722460E0,-2.425418854E0,-3.264729023E0,5.445914596E0
6.033646833E0,4.022012234E0,-2.566676140E0,-3.293194056E0,5.797373190E0
6.038672301E0,4.362022400E0,-2.634749413E0,-3.197488308E0,6.016068098E0
6.043697770E0,4.602494717E0,-2.648886681E0,-2.987645388E0,6.093076663E0
6.048723239E0,4.704612255E0,-2.614113808E0,-2.707665920E0,6.024817193E0
6.053748708E0,4.720772743E0,-2.621626854E0,-2.406565666E0,5.911867806E0
6.058774176E0,4.641419411E0,-2.642960548E0,-2.214607239E0,5.782084384E0
6.063799645E0,4.428687096E0,-2.707064629E0,-2.156562567E0,5.620696612E0
6.068825114E0,4.173777580E0,-2.876186371E0,-2.299670219E0,5.566089332E0
6.073850583E0,3.891262770E0,-3.016276360E0,-2.576606274E0,5.556865025E0
6.078876051E0,3.610209227E0,-3.098578453E0,-2.996226788E0,5.622470458E0
6.083901520E0,3.287495375E0,-3.070384026E0,-3.471469641E0,5.682075798E0
6.088926989E0,2.884999275E0,-2.965138435E0,-3.977482557E0,5.738957593E0
6.093952458E0,2.388848305E0,-2.749360085E0,-4.518319130E0,5.803514871E0
6.098977926E0,1.857052326E0,-2.475673676E0,-5.078770638E0,5.947395621E0
6.104003395E0,1.276144981E0,-2.225357056E0,-5.667551041E0,6.221084699E0
6.109028864E0,7.377725840E-1,-2.041286469E0,-6.274027824E0,6.638869179E0
6.114054333E0,2.616665959E-1,-1.932771683E0,-6.758201599E0,7.034014831E0
6.119079801E0,-1.567622423E-1,-1.942613602E0,-7.123729706E0,7.385516023E0
6.124105270E0,-5.221264958E-1,-2.032372475E0,-7.307625771E0,7.602930248E0
6.129130739E0,-9.157331586E-1,-2.158989906E0,-7.371706963E0,7.735752593E0
6.134156208E0,-1.366313815E0,-2.274754524E0,-7.334834099E0,7.800071336E0
6.139181676E0,-1.830610514E0,-2.384681702E0,-7.201593399E0,7.803895768E0
6.144207145E0,-2.179135561E0,-2.460371971E0,-6.852363110E0,7.599798827E0
6.149232614E0,-2.464207649E0,-2.507059097E0,-6.240015984E0,7.162085180E0
6.154258083E0,-2.685274839E0,-2.501329422E0,-5.456586361E0,6.575840977E0
6.159283551E0,-2.755906343E0,-2.405442238E0,-4.608508587E0,5.883835784E0
6.164309020E0,-2.729145050E0,-2.229478836E0,-3.763735294E0,5.156017063E0
6.169334489E0,-2.705919504E0,-2.007394791E0,-2.990251541E0,4.504801715E0
6.174359958E0,-2.691503763E0,-1.782600403E0,-2.312669516E0,3.971183324E0
6.179385426E0,-2.676934719E0,-1.641463280E0,-1.636018515E0,3.540753842E0
6.184410895E0,-2.667374372E0,-1.617596626E0,-8.320282698E-1,3.228587296E0
6.189436364E0,-2.648912668E0,-1.648875237E0,1.413224041E-1,3.123379562E0
6.194461833E0,-2.641097307E0,-1.692331314E0,1.186890364E0,3.353817079E0
6.199487301E0,-2.658163071E0,-1.757562637E0,2.240712643E0,3.895593726E0
6.204512770E0,-2.652223110E0,-1.801443100E0,3.324886084E0,4.618912441E0
6.209538239E0,-2.633036852E0,-1.842949867E0,4.394312382E0,5.444201373E0
6.214563708E0,-2.581640720E0,-1.886585236E0,5.394635201E0,6.271057455E0
6.219589176E0,-2.560141087E0,-1.884141922E0,6.319385052E0,7.073820792E0
6.224614645E0,-2.606837273E0,-1.883063316E0,7.119258404E0,7.811873542E0
6.229640114E0,-2.668965816E0,-1.796777725E0,7.783461094E0,8.422235768E0
6.234665583E0,-2.698726177E0,-1.644061089E0,8.301707268E0,8.882815061E0
6.239691051E0,-2.681950569E0,-1.496301651E0,8.678287506E0,9.205674963E0
6.244716520E0,-2.489840031E0,-1.353116035E0,8.941607475E0,9.379902485E0
6.249741989E0,-2.238070726E0,-1.199862480E0,9.019868851E0,9.370521044E0
6.254767458E0,-2.022602558E0,-1.036275864E0,8.979881287E0,9.262993938E0
6.259792926E0,-1.957806826E0,-8.286132812E-1,8.811714172E0,9.064541588E0
6.264818395E0,-1.932623386E0,-6.197471619E-1,8.319280624E0,8.563267473E0
6.269843864E0,-1.688247204E0,-5.244007111E-1,7.470067978E0,7.676398265E0
6.274869333E0,-1.406642914E0,-4.899311066E-1,6.499969959E0,6.668454562E0
6.279894801E0,-1.068521619E0,-4.351482391E-1,5.448876858E0,5.569681450E0
6.284920270E0,-6.739128828E-1,-3.507909775E-1,4.290039062E0,4.356793321E0
6.289945739E0,-1.463336349E-1,-1.942377090E-1,2.930461168E0,2.940534727E0
6.294971208E0,4.657137990E-1,-4.320144653E-3,1.378114462E0,1.454684666E0
6.299996676E0,1.160923004E0,2.231292725E-1,-2.678711414E-1,1.212140191E0
6.305022145E0,1.583901882E0,4.253149033E-1,-1.822551727E0,2.451801937E0
6.310047614E0,1.686987638E0,5.444107056E-1,-3.168185711E0,3.630387170E0
6.315073083E0,1.567133307E0,5.898170471E-1,-4.001343727E0,4.337573351E0
6.320098551E0,1.412125230E0,6.380348206E-1,-4.240132332E0,4.514411178E0
6.325124020E0,1.208392620E0,6.747226715E-1,-4.009634018E0,4.241771843E0
6.330149489E0,9.425739050E-1,7.000179291E-1,-3.550269604E0,3.739369589E0
6.335174958E0,6.108751297E-1,6.806173325E-1,-2.906262875E0,3.046764230E0
6.340200426E0,2.670106888E-1,6.359281540E-1,-2.117196321E0,2.226705995E0
6.345225895E0,-1.174640656E-2,6.332006454E-1,-1.213385105E0,1.368716351E0
6.350251364E0,-3.255718946E-1,6.056880951E-1,-2.826007605E-1,7.434502787E-1
6.355276833E0,-7.216134667E-1,5.585031509E-1,5.590373278E-1,1.070128263E0
6.360302301E0,-1.151288509E0,5.828504562E-1,1.305773497E0,1.835817069E0
6.365327770E0,-1.566432357E0,7.410755157E-1,1.908912301E0,2.578148448E0
6.370353239E0,-2.033877611E0,9.232320786E-1,2.367885351E0,3.255133890E0
6.375378708E0,-2.462445498E0,1.129528046E0,2.696531534E0,3.822401568E0
6.380404176E0,-2.847292423E0,1.321834564E0,2.961599827E0,4.315714807E0
6.385429645E0,-3.149988890E0,1.490795612E0,3.177117825E0,4.715822222E0
6.390455062E0,-3.313443661E0,1.607817173E0,3.261639118E0,4.919580744E0
6.395480478E0,-3.639239788E0,1.878681183E0,3.449496984E0,5.354674469E0
6.400505895E0,-3.906938553E0,2.021256447E0,3.596534729E0,5.681963440E0
6.405531312E0,-3.901692152E0,2.016599655E0,3.616586924E0,5.689426754E0
6.410556728E0,-4.116759300E0,2.218827248E0,3.820443869E0,6.038765838E0
6.415582145E0,-4.255425453E0,2.273900509E0,3.973129988E0,6.250202494E0
6.420607562E0,-4.184181213E0,2.248989105E0,3.978834391E0,6.196486709E0
6.425632978E0,-4.138669968E0,2.311353207E0,3.943179131E0,6.166003925E0
6.430658395E0,-4.305409908E0,2.436994076E0,3.985739946E0,6.353079373E0
6.435683812E0,-4.377936363E0,2.463329792E0,3.991398811E0,6.416041220E0
6.440709228E0,-4.184859276E0,2.404703617E0,3.850274563E0,6.174160741E0
6.445734645E0,-4.348622322E0,2.591087818E0,3.821035862E0,6.342284071E0
6.450760062E0,-4.514501572E0,2.606211185E0,3.807750463E0,6.455387268E0
6.455785478E0,-4.300130844E0,2.498092175E0,3.671610832E0,6.181611108E0
6.460810895E0,-4.252078533E0,2.591919422E0,3.551513195E0,6.116491161E0
6.465836312E0,-4.346130848E0,2.653052807E0,3.524194479E0,6.192534963E0
6.470861728E0,-4.294927597E0,2.672075748E0,3.507940769E0,6.155651087E0
6.475887145E0,-4.089512825E0,2.682523251E0,3.449799299E0,5.985078223E0
6.480912562E0,-3.783363819E0,2.665111065E0,3.369137049E0,5.724311594E0
6.485937978E0,-3.434668064E0,2.595840931E0,3.261247873E0,5.401025138E0
6.490963395E0,-2.987173319E0,2.493698597E0,3.121575832E0,4.988584249E0
6.495988812E0,-2.757124901E0,2.583453655E0,3.069648027E0,4.868132036E0
6.501014228E0,-2.500559807E0,2.587516308E0,3.062096834E0,4.724878518E0
6.506039645E0,-2.198601723E0,2.563435078E0,3.012465239E0,4.525482930E0
6.511065062E0,-1.799163103E0,2.535157681E0,2.930100203E0,4.271943297E0
6.516090478E0,-1.365045905E0,2.497823238E0,2.815084934E0,4.003395364E0
6.521115895E0,-9.159447551E-1,2.422710896E0,2.739015102E0,3.769706435E0
6.526141312E0,-5.005072355E-1,2.290616512E0,2.716188669E0,3.588190684E0
6.531166728E0,-1.046408415E-1,2.139875412E0,2.717525959E0,3.460486067E0
6.536192145E0,2.665436268E-1,1.960935593E0,2.666131496E0,3.320326951E0
6.541217562E0,5.507320166E-1,1.739408016E0,2.509406567E0,3.102574305E0
6.546243031E0,6.288996935E-1,1.446571827E0,2.276402235E0,2.769493096E0
6.551268499E0,7.985452414E-1,1.249836922E0,1.814458609E0,2.343507388E0
6.556293968E0,1.040992618E0,1.038956642E0,1.086126685E0,1.828323743E0
6.561319437E0,1.198913932E0,7.371969223E-1,2.172178030E-1,1.424091813E0
6.566344906E0,1.473848104E0,3.875131607E-1,-6.236159801E-1,1.646600005E0
6.571370374E0,1.875156283E0,-1.775932312E-1,-1.440509558E0,2.371248243E0
6.576395843E0,2.134341717E0,-4.750480652E-1,-2.404981613E0,3.250387944E0
6.581421312E0,2.319135666E0,-7.395820618E-1,-3.171796799E0,3.998207948E0
6.586446781E0,2.501721621E0,-9.903173447E-1,-3.588211536E0,4.484930494E0
6.591472249E0,2.654019594E0,-1.203192711E0,-3.899110794E0,4.867705588E0
6.596497718E0,2.848266125E0,-1.382956505E0,-4.334375858E0,5.367681314E0
6.601523187E0,3.070617914E0,-1.505679131E0,-4.831590176E0,5.919461770E0
6.606548656E0,3.269101143E0,-1.657503128E0,-5.409154415E0,6.534010284E0
6.611574124E0,3.678871393E0,-1.790538788E0,-5.960854530E0,7.229931577E0
6.616599593E0,4.080044746E0,-2.048337936E0,-6.509302616E0,7.950690158E0
6.621625062E0,4.702344894E0,-2.397298813E0,-6.752140522E0,8.570326174E0
6.626650531E0,5.439492702E0,-2.780048370E0,-6.756051540E0,9.108291948E0
6.631675999E0,6.122978210E0,-3.201480865E0,-6.669003010E0,9.602913258E0
6.636701468E0,6.469717979E0,-3.585186958E0,-6.643687248E0,9.942303381E0
6.641726937E0,6.283825397E0,-3.869087219E0,-6.712915897E0,9.975947944E0
6.646752406E0,5.461388588E0,-3.938420296E0,-6.808968544E0,9.576010253E0
6.651777874E0,4.315295696E0,-3.716682434E0,-6.783213139E0,8.857058527E0
6.656803343E0,3.244260788E0,-3.251690865E0,-6.483295441E0,7.945554814E0
6.661828812E0,2.344656706E0,-2.686929703E0,-5.862658024E0,6.862052565E0
6.666854281E0,1.597416759E0,-2.127527237E0,-4.789053917E0,5.478425856E0
6.671879749E0,6.772650480E-1,-1.812409401E0,-3.144952297E0,3.692457276E0
6.676905218E0,-5.774242878E-1,-2.161736488E0,-1.559861660E0,2.727579852E0
6.681930687E0,-2.016689301E0,-3.226787567E0,-3.373880386E-1,3.820081730E0
6.686956156E0,-3.117939472E0,-4.446799278E0,5.314210057E-1,5.456920254E0
6.691981624E0,-3.599243641E0,-5.242856979E0,1.085016727E0,6.451307262E0
6.697007093E0,-3.557751656E0,-5.376579285E0,1.438959122E0,6.605740307E0
6.702032562E0,-3.191802740E0,-5.040493965E0,1.670507312E0,6.195545079E0
6.707058031E0,-2.709448814E0,-4.536975861E0,1.986252069E0,5.645392823E0
6.712083499E0,-2.184146404E0,-4.053135872E0,2.630663157E0,5.302715772E0
6.717108968E0,-1.722205162E0,-3.632203102E0,3.488615990E0,5.322530556E0
6.722134437E0,-1.448158026E0,-3.365008354E0,4.373079300E0,5.704758142E0
6.727159906E0,-1.356854320E0,-3.413908958E0,5.097002029E0,6.282933846E0
6.732185374E0,-1.376392245E0,-3.654093742E0,5.630331516E0,6.851823821E0
6.737210843E0,-1.444927812E0,-3.927481651E0,5.770084381E0,7.127889047E0
6.742236312E0,-1.577368379E0,-4.124120712E0,5.390631676E0,6.968168519E0
6.747261781E0,-1.726217866E0,-4.081637383E0,4.764347076E0,6.506811424E0
6.752287249E0,-1.881859779E0,-3.671329498E0,4.034974098E0,5.770708144E0
6.757312718E0,-1.914923787E0,-2.807707787E0,3.246611595E0,4.700068401E0
6.762338187E0,-1.921280265E0,-1.563283920E0,2.339053631E0,3.406808823E0
6.767363656E0,-2.111613274E0,-2.017631531E-1,1.338692069E0,2.508329213E0
6.772389124E0,-2.403920174E0,9.993333817E-1,2.810161114E-1,2.618486102E0
6.777414593E0,-2.721028328E0,1.963763714E0,-8.421007395E-1,3.459696047E0
6.782440062E0,-3.258040667E0,2.543762207E0,-2.000535965E0,4.592134503E0
6.787465531E0,-3.993968010E0,2.821465969E0,-3.073087215E0,5.775492681E0
6.792490999E0,-4.721380234E0,2.974590778E0,-3.905189514E0,6.811029786E0
6.797516468E0,-5.353211403E0,3.099250793E0,-4.462570190E0,7.627369174E0
6.802541937E0,-5.764846802E0,3.272199631E0,-4.725376129E0,8.140634412E0
6.807567406E0,-5.961777210E0,3.436030388E0,-4.717127323E0,8.342684371E0
6.812592874E0,-5.959156036E0,3.538165569E0,-4.394320011E0,8.206107763E0
6.817618343E0,-5.776161194E0,3.583590984E0,-3.881064177E0,7.827440298E0
6.822643812E0,-5.465378761E0,3.596403599E0,-3.162619114E0,7.266817977E0
6.827669281E0,-5.017248631E0,3.524091244E0,-2.320212841E0,6.555561802E0
6.832694749E0,-4.627770424E0,3.295059204E0,-1.344185114E0,5.837851306E0
6.837720218E0,-4.090922356E0,3.014704704E0,-1.296621263E-1,5.083394775E0
6.842745687E0,-3.641022205E0,2.415185928E0,9.683552384E-1,4.475251684E0
6.847771156E0,-3.287528276E0,1.472825050E0,1.919930577E0,4.082056984E0
6.852796624E0,-2.934745789E0,4.413089752E-1,2.856989622E0,4.119450953E0
6.857822093E0,-2.482696056E0,-1.725721359E-1,3.695830107E0,4.455639239E0
6.862847562E0,-1.827530384E0,-2.596750259E-1,4.600950241E0,4.957422873E0
6.867873031E0,-1.194970131E0,-1.843194962E-1,5.401714802E0,5.535381657E0
6.872898499E0,-6.856930852E-1,-1.907005310E-1,6.114223003E0,6.155506854E0
6.877923968E0,-1.415520906E-1,-2.595987320E-1,6.811686516E0,6.818101032E0
6.882949437E0,4.183485508E-1,-3.192272186E-1,7.381055355E0,7.399790516E0
6.887974906E0,1.113213778E0,-3.888311386E-1,7.748226166E0,7.837438567E0
6.893000374E0,1.889435887E0,-4.255495071E-1,7.854511261E0,8.089771783E0
6.898025843E0,2.649809837E0,-4.775457382E-1,7.728613377E0,8.184192497E0
6.903051312E0,3.335584641E0,-5.498857498E-1,7.405150890E0,8.140316882E0
6.908076781E0,3.916727543E0,-6.333036423E-1,6.904654503E0,7.963421498E0
6.913102249E0,4.392695427E0,-7.136716843E-1,6.243538857E0,7.667260126E0
6.918127718E0,4.715692043E0,-8.198337555E-1,5.429160118E0,7.237793754E0
6.923153187E0,4.910011768E0,-1.028354645E0,4.492670059E0,6.734226986E0
6.928178656E0,5.110211372E0,-1.262599945E0,3.431477308E0,6.283586190E0
6.933204124E0,5.264070034E0,-1.541605949E0,2.290876627E0,5.944333263E0
6.938229593E0,5.357004642E0,-1.841324806E0,1.091939330E0,5.768908673E0
6.943255062E0,5.312170982E0,-2.051609993E0,-1.829199195E-1,5.697519092E0
6.948280531E0,5.109974384E0,-2.129326820E0,-1.603687882E0,5.763478615E0
6.953305999E0,4.735918999E0,-2.055206299E0,-3.254594088E0,6.102883283E0
6.958331468E0,4.247156143E0,-1.867226601E0,-5.209571838E0,6.975995214E0
6.963356937E0,3.590846300E0,-1.536186218E0,-7.106792927E0,8.109287944E0
6.968382406E0,2.882175922E0,-1.114043236E0,-8.909669876E0,9.430283542E0
6.973407874E0,2.169298887E0,-6.238584518E-1,-1.022265434E1,1.046889291E1
6.978433343E0,1.505499005E0,-1.127490997E-1,-1.088615513E1,1.099034181E1
6.983458812E0,9.727178812E-1,3.671445847E-1,-1.083305073E1,1.088282883E1
6.988484281E0,5.238078833E-1,7.203502655E-1,-1.010290146E1,1.014208544E1
6.993509749E0,1.884549260E-1,9.659280777E-1,-8.899289131E0,8.953540046E0
6.998535218E0,9.176465869E-2,1.132269859E0,-7.430994987E0,7.517322814E0
7.003560687E0,1.094349623E-1,1.185429573E0,-5.906890869E0,6.025660049E0
7.008586156E0,1.794776320E-1,1.158485413E0,-4.411051750E0,4.564173333E0
7.013611624E0,3.066791892E-1,1.084510803E0,-3.017689228E0,3.221282987E0
7.018637093E0,3.953809738E-1,1.011026382E0,-1.809822083E0,2.110439867E0
7.023662562E0,3.882336020E-1,9.568519592E-1,-7.601645589E-1,1.282240679E0
7.028688031E0,2.808192968E-1,9.361190796E-1,1.111991405E-1,9.836379708E-1
7.033713499E0,8.308368921E-2,9.486398697E-1,8.178566694E-1,1.255272892E0
7.038738968E0,-1.564126015E-1,9.273233414E-1,1.421329498E0,1.704280207E0
7.043764437E0,-3.751361072E-1,8.768892288E-1,1.930439234E0,2.153197031E0
7.048789906E0,-5.344091654E-1,8.020668030E-1,2.315748692E0,2.508305467E0
7.053815374E0,-6.150802374E-1,7.458333969E-1,2.571840048E0,2.747535693E0
7.058840843E0,-6.077728271E-1,7.989730835E-1,2.698411226E0,2.879091687E0
7.063866312E0,-5.414929390E-1,8.895435333E-1,2.719079494E0,2.911682606E0
7.068891781E0,-5.123050213E-1,1.007843018E0,2.686126471E0,2.914357459E0
7.073917249E0,-4.582487941E-1,1.106002808E0,2.580533743E0,2.844712387E0
7.078942718E0,-4.179694653E-1,1.203133583E0,2.402366161E0,2.719116045E0
7.083968187E0,-4.202122688E-1,1.289670944E0,2.180576324E0,2.568023092E0
7.088993656E0,-4.650879502E-1,1.308243752E0,1.934651375E0,2.381319898E0
7.094019124E0,-5.236366391E-1,1.297231674E0,1.669786930E0,2.178346561E0
7.099044593E0,-6.054439545E-1,1.251915932E0,1.352964759E0,1.940198320E0
7.104070062E0,-6.816049814E-1,1.191534042E0,9.704889059E-1,1.681126837E0
7.109095531E0,-8.044930100E-1,1.111407280E0,5.374275446E-1,1.473520787E0
7.114120999E0,-9.260399938E-1,1.026010513E0,7.369577885E-2,1.384080457E0
7.119146468E0,-1.060378075E0,9.307136536E-1,-4.341346025E-1,1.476178316E0
7.124171937E0,-1.207134008E0,8.400878906E-1,-9.562165141E-1,1.754214981E0
7.129197406E0,-1.289699674E0,7.447662354E-1,-1.448441148E0,2.077494585E0
7.134222822E0,-1.341496706E0,6.593036652E-1,-1.909907699E0,2.425292179E0
7.139248239E0,-1.357879758E0,6.317548752E-1,-2.325205564E0,2.765778837E0
7.144273656E0,-1.372523785E0,6.144008636E-1,-2.636252642E0,3.034985659E0
7.149299072E0,-1.371158004E0,6.265020370E-1,-2.842637062E0,3.217633376E0
7.154324489E0,-1.349209785E0,6.632909775E-1,-2.920454264E0,3.284718416E0
7.159349906E0,-1.292555571E0,7.008399963E-1,-2.860292673E0,3.216076924E0
7.164375322E0,-1.215844393E0,7.056379318E-1,-2.700796843E0,3.044750575E0
7.169400739E0,-1.138215542E0,6.823692322E-1,-2.471465111E0,2.805227653E0
7.174426156E0,-1.035865188E0,6.309881210E-1,-2.230150700E0,2.538648231E0
7.179451572E0,-9.041457176E-1,5.466403961E-1,-1.996474743E0,2.258806455E0
7.184476989E0,-8.004010916E-1,4.244642258E-1,-1.699223995E0,1.925661957E0
7.189502406E0,-6.336612701E-1,3.122444153E-1,-1.401029110E0,1.569046127E0
7.194527822E0,-4.326776266E-1,1.955413818E-1,-1.097431183E0,1.195743100E0
7.199553239E0,-2.453046888E-1,7.905101776E-2,-8.031492233E-1,8.434880726E-1
7.204578656E0,-4.759906977E-2,9.326934814E-4,-4.994502068E-1,5.017141122E-1
7.209604072E0,1.412656903E-1,-7.723617554E-2,-2.154889107E-1,2.689923655E-1
7.214629489E0,2.689078450E-1,-1.029729843E-1,4.826688766E-2,2.919667054E-1
7.219654906E0,3.502506018E-1,-1.768426895E-1,2.533459663E-1,4.670471063E-1
7.224680322E0,3.478170335E-1,-2.796869278E-1,3.328413963E-1,5.567628413E-1
7.229705739E0,4.491693676E-1,-4.209413528E-1,3.017981052E-1,6.855850346E-1
7.234731156E0,6.694892049E-1,-6.529903412E-1,2.043466568E-1,9.572720289E-1
7.239756572E0,1.052415133E0,-9.898204803E-1,5.144643784E-2,1.445672484E0
7.244781989E0,1.626129389E0,-1.364053726E0,-1.601607800E-1,2.128518460E0
7.249807406E0,2.202882528E0,-1.670107841E0,-3.523755074E-1,2.786775939E0
7.254832822E0,2.800539255E0,-1.888828278E0,-2.807812691E-1,3.389620997E0
7.259858239E0,3.470345974E0,-2.053990364E0,7.261228561E-2,4.033292717E0
7.264883656E0,4.267384052E0,-2.199698448E0,8.052401543E-1,4.868023379E0
7.269909072E0,5.131608009E0,-2.235919952E0,1.750016212E0,5.864750254E0
7.274934489E0,5.955019474E0,-2.235327721E0,2.677601814E0,6.901340336E0
7.279959906E0,6.515358925E0,-2.227344513E0,3.215956688E0,7.599562021E0
7.284985322E0,6.740086555E0,-2.250679016E0,3.353620768E0,7.857550195E0
7.290010791E0,6.672716618E0,-2.310299873E0,3.209830761E0,7.756651731E0
7.295036260E0,6.377108574E0,-2.516267776E0,2.785287619E0,7.399793538E0
7.300061728E0,5.999385357E0,-2.992716789E0,2.014826536E0,7.000607432E0
7.305087197E0,5.718674660E0,-3.662484169E0,7.865939140E-1,6.836355764E0
7.310112666E0,5.507403374E0,-4.390855789E0,-9.435813427E-1,7.106437380E0
7.315138135E0,5.380268574E0,-4.909062386E0,-3.257482290E0,7.978557157E0
7.320163603E0,5.365662575E0,-5.192139626E0,-6.317179680E0,9.780358269E0
7.325189072E0,5.271416664E0,-5.243124008E0,-9.909697533E0,1.238871616E1
7.330214541E0,5.034789562E0,-5.055177689E0,-1.333399200E1,1.512280629E1
7.335240010E0,4.746427059E0,-4.698226929E0,-1.584293175E1,1.719303325E1
7.340265478E0,4.420690060E0,-4.367165565E0,-1.691693115E1,1.802213071E1
7.345290947E0,4.110133648E0,-4.267437935E0,-1.662857056E1,1.765258009E1
7.350316416E0,3.872264862E0,-4.552443504E0,-1.545867538E1,1.657376908E1
7.355341885E0,3.678240538E0,-5.060297966E0,-1.366875744E1,1.503233178E1
7.360367353E0,3.465615273E0,-5.581880569E0,-1.150673485E1,1.325038968E1
7.365392822E0,3.186404467E0,-6.018516541E0,-9.182786942E0,1.143237905E1
7.370418291E0,2.697255611E0,-6.381626129E0,-6.792495251E0,9.702491001E0
7.375443760E0,1.984692812E0,-6.610780716E0,-4.637467384E0,8.315499442E0
7.380469228E0,1.341463923E0,-6.611774445E0,-3.114180565E0,7.430559020E0
7.385494697E0,8.111098409E-1,-6.246897697E0,-2.138825417E0,6.652533666E0
7.390520166E0,2.174784243E-1,-5.646060944E0,-1.645771861E0,5.885054466E0
7.395545635E0,-3.043711782E-1,-4.886034012E0,-1.744875312E0,5.197168463E0
7.400571103E0,-6.632131338E-1,-4.110149384E0,-2.362378120E0,4.786858051E0
7.405596572E0,-8.689048886E-1,-3.408858299E0,-3.174668789E0,4.738547513E0
7.410622041E0,-9.890850782E-1,-2.796082497E0,-3.901159763E0,4.900552430E0
7.415647510E0,-1.038782716E0,-2.295514107E0,-4.352967262E0,5.029590295E0
7.420672978E0,-1.166891336E0,-1.993240356E0,-4.442761898E0,5.007272291E0
7.425698447E0,-1.430742383E0,-1.855833054E0,-4.098452091E0,4.721064460E0
7.430723916E0,-1.777258873E0,-1.792641640E0,-3.306574583E0,4.160005844E0
7.435749385E0,-2.186968327E0,-1.784890175E0,-2.241174936E0,3.604376297E0
7.440774853E0,-2.602225304E0,-1.813761711E0,-9.763493538E-1,3.318819992E0
7.445800322E0,-3.080469847E0,-1.908165932E0,3.610752523E-1,3.641533611E0
7.450825791E0,-3.611590147E0,-2.130264282E0,1.663433433E0,4.510944478E0
7.455851260E0,-4.022534847E0,-2.503685951E0,2.971653700E0,5.592848617E0
7.460876728E0,-4.432659149E0,-2.913216591E0,4.001458645E0,6.644318575E0
7.465902197E0,-4.778498650E0,-3.324901581E0,5.009911537E0,7.680379774E0
7.470927666E0,-4.983546257E0,-3.527873039E0,5.856777191E0,8.460700949E0
7.475953135E0,-5.520038128E0,-3.445289612E0,6.541455746E0,9.226672462E0
7.480978603E0,-5.611329079E0,-3.287210464E0,7.344741821E0,9.810096793E0
7.486004072E0,-5.479176044E0,-3.072345734E0,7.800898075E0,1.001572210E1
7.491029541E0,-5.621144295E0,-2.900598526E0,8.167552948E0,1.033052061E1
7.496055010E0,-5.333039284E0,-2.847696304E0,8.462518692E0,1.040023581E1
7.501080478E0,-4.726156712E0,-2.539964676E0,8.297412872E0,9.881044388E0
7.506105947E0,-3.930519342E0,-2.020483971E0,7.806979179E0,8.971079182E0
7.511131416E0,-2.680668354E0,-1.576577187E0,6.968567371E0,7.631022845E0
7.516156885E0,-1.310024858E0,-1.285119057E0,5.822506428E0,6.104856855E0
7.521182353E0,-2.417825460E-1,-1.170422554E0,4.400275707E0,4.559690127E0
7.526207822E0,6.715942621E-1,-1.242474556E0,2.633614063E0,2.988428502E0
7.531233291E0,1.291287541E0,-1.310435295E0,6.892815828E-1,1.964630570E0
7.536258760E0,1.584818721E0,-1.307980537E0,-1.151127934E0,2.355325664E0
7.541284228E0,1.625443816E0,-1.297953606E0,-2.730655670E0,3.432671198E0
7.546309697E0,1.515339613E0,-1.314252853E0,-3.859908342E0,4.349989324E0
7.551335166E0,1.609722853E0,-1.333348274E0,-4.708932877E0,5.151997100E0
7.556360635E0,1.684522629E0,-1.298211098E0,-4.946244240E0,5.384078437E0
7.561386103E0,1.740545273E0,-1.276068687E0,-4.572180748E0,5.055955492E0
7.566411572E0,1.745008707E0,-1.300454140E0,-3.889397621E0,4.456865514E0
7.571437041E0,1.636558771E0,-1.400018692E0,-3.071269989E0,3.751143332E0
7.576462510E0,1.449593067E0,-1.502823830E0,-2.133616209E0,2.985317010E0
7.581487978E0,1.136965990E0,-1.584804535E0,-1.140233994E0,2.259298705E0
7.586513447E0,7.565305233E-1,-1.531002045E0,-1.311900616E-1,1.712751157E0
7.591538916E0,2.409586906E-1,-1.422738075E0,8.628687859E-1,1.681305226E0
7.596564385E0,-1.625578403E-1,-1.422745705E0,1.782568932E0,2.286521897E0
7.601589853E0,-1.052093744E0,-1.152811050E0,2.535616875E0,2.977453190E0
7.606615322E0,-1.818869591E0,-1.133985519E0,3.297771215E0,3.933129128E0
7.611640791E0,-2.576660395E0,-1.102154732E0,4.096345901E0,4.963262394E0
7.616666260E0,-3.271953583E0,-1.118681908E0,4.934689999E0,6.025636468E0
7.621691728E0,-3.823139668E0,-1.087099075E0,5.706202030E0,6.954058019E0
7.626717197E0,-4.225455284E0,-1.021033287E0,6.256575584E0,7.618511625E0
7.631742666E0,-4.584472656E0,-8.625326157E-1,6.632935524E0,8.109080448E0
7.636768135E0,-4.876751900E0,-6.543350220E-1,6.844452858E0,8.429555050E0
7.641793603E0,-5.150700569E0,-4.344320297E-1,6.800036430E0,8.541600728E0
7.646819072E0,-5.425677299E0,-1.548595428E-1,6.557571888E0,8.512561583E0
7.651844541E0,-5.787612915E0,8.866214752E-2,6.137147903E0,8.436166702E0
7.656870010E0,-5.991837502E0,2.962236404E-1,5.678531170E0,8.260483118E0
7.661895478E0,-6.010198116E0,4.198455811E-1,5.292374611E0,8.019225694E0
7.666920947E0,-5.943720818E0,5.168390274E-1,4.888180733E0,7.712927500E0
7.671946416E0,-5.740300179E0,7.208647728E-1,4.480906487E0,7.317732921E0
7.676971885E0,-5.386885643E0,8.401913643E-1,4.161506653E0,6.858760535E0
7.681997353E0,-4.884878159E0,1.065895081E0,3.886895895E0,6.332939811E0
7.687022822E0,-4.168201447E0,1.426262379E0,3.556862116E0,5.662101711E0
7.692048291E0,-3.520583153E0,1.657596111E0,3.162211418E0,5.014151140E0
7.697073760E0,-2.943252087E0,1.678321362E0,2.837071419E0,4.419102813E0
7.702099228E0,-2.556179285E0,1.670171261E0,2.705994368E0,4.079942413E0
7.707124697E0,-2.162472010E0,1.599675655E0,2.673561335E0,3.792515999E0
7.712150166E0,-1.824141741E0,1.481267452E0,2.691962957E0,3.573277336E0
7.717175635E0,-1.569178820E0,1.405930996E0,2.742318869E0,3.458218748E0
7.722201103E0,-1.415960193E0,1.321075916E0,2.829659224E0,3.428870975E0
7.727226572E0,-1.415931344E0,1.274764538E0,2.920696974E0,3.487170344E0
7.732252041E0,-1.458134294E0,1.276798725E0,3.087149143E0,3.645114598E0
7.737277510E0,-1.532259226E0,1.303717136E0,3.314146519E0,3.876991598E0
7.742302978E0,-1.815577745E0,1.293776035E0,3.476354361E0,4.129796438E0
7.747328447E0,-2.182957172E0,1.233180523E0,3.492098570E0,4.298928778E0
7.752353916E0,-2.008930683E0,9.308748245E-1,3.504201174E0,4.145088213E0
7.757379385E0,-2.171026707E0,9.035224915E-1,3.191643953E0,3.964379015E0
7.762404853E0,-2.461681366E0,9.357953072E-1,2.981039524E0,3.977710981E0
7.767430322E0,-2.627048254E0,9.418196678E-1,2.809832573E0,3.960248212E0
7.772455791E0,-2.519419432E0,8.976502419E-1,2.539251566E0,3.687959971E0
7.777481260E0,-2.818504572E0,1.042078972E0,2.093442678E0,3.662294206E0
7.782506728E0,-3.143914223E0,1.178883553E0,1.803659916E0,3.811450139E0
7.787532197E0,-3.256181955E0,1.250773907E0,1.722377062E0,3.890210667E0
7.792557666E0,-3.203644037E0,1.320039272E0,1.557439089E0,3.798875533E0
7.797583135E0,-3.101663113E0,1.376858711E0,1.404813290E0,3.672812867E0
7.802608603E0,-2.817229986E0,1.248949051E0,1.273809195E0,3.334553702E0
7.807634072E0,-2.762850285E0,1.361865044E0,1.097403288E0,3.269910101E0
7.812659541E0,-2.702202797E0,1.529217243E0,1.181981325E0,3.322271089E0
7.817685010E0,-2.482246637E0,1.564871311E0,1.397381306E0,3.250083861E0
7.822710478E0,-2.204343796E0,1.555177212E0,1.522871971E0,3.097877785E0
7.827735947E0,-1.778048992E0,1.509651661E0,1.620683908E0,2.840268066E0
7.832761416E0,-1.375915647E0,1.432975292E0,1.690937757E0,2.608799064E0
7.837786885E0,-9.839093685E-1,1.329861164E0,1.757519722E0,2.413603931E0
7.842812353E0,-5.451700687E-1,1.219428539E0,1.834503174E0,2.269277035E0
7.847837822E0,-3.641033173E-2,1.139964104E0,1.940593481E0,2.250943564E0
7.852863291E0,4.653785229E-1,1.048451424E0,1.931877851E0,2.246770925E0
7.857888760E0,9.216578007E-1,9.400100708E-1,1.803631306E0,2.232970650E0
7.862914228E0,1.346508026E0,8.575439453E-1,1.584647179E0,2.249349276E0
7.867939697E0,1.716040134E0,7.770385742E-1,1.389774561E0,2.340951947E0
7.872965166E0,1.982768774E0,6.984825134E-1,1.195066929E0,2.418146976E0
7.877990635E0,2.271219730E0,6.410837173E-1,1.024128437E0,2.572599163E0
7.883016103E0,2.571612835E0,5.951023102E-1,9.581456184E-1,2.808092299E0
7.888041572E0,2.859703541E0,5.317807198E-1,1.097053289E0,3.108733021E0
7.893067041E0,3.087609529E0,4.607911110E-1,1.430508614E0,3.433950487E0
7.898092510E0,3.202817202E0,3.774228096E-1,1.895607233E0,3.740830494E0
7.903117978E0,3.191228867E0,3.056883812E-1,2.429449797E0,4.022389014E0
7.908143447E0,3.091240883E0,2.598314285E-1,2.739825010E0,4.138831194E0
7.913168864E0,2.912459373E0,2.919349670E-1,2.626481533E0,3.932690030E0
7.918194281E0,2.506762981E0,2.671413422E-1,2.105479240E0,3.284549889E0
7.923219697E0,2.013730526E0,1.418876648E-1,1.212007999E0,2.354613797E0
7.928245114E0,1.476776123E0,-3.043060303E-1,-1.096973419E-1,1.511788141E0
7.933270531E0,6.810388565E-1,-1.148500443E0,-1.876068592E0,2.302715908E0
7.938295947E0,-6.635336876E-1,-2.477348328E0,-3.905879736E0,4.672625408E0
7.943321364E0,-1.831674337E0,-4.501058578E0,-6.013533115E0,7.731567741E0
7.948346781E0,-1.722454906E0,-7.344037056E0,-9.968876839E0,1.250120941E1
7.953372197E0,-7.534782887E-1,-9.988920212E0,-1.386346531E1,1.710385708E1
7.958397614E0,-6.689252853E-1,-1.101556301E1,-1.310717583E1,1.713441413E1
7.963423031E0,-1.355565071E0,-1.051500797E1,-1.008455753E1,1.463219908E1
7.968448447E0,-1.856278419E0,-8.602562904E0,-6.050173283E0,1.067962803E1
7.973473864E0,-2.268183470E0,-5.675650597E0,-1.731984854E0,6.352750387E0
7.978499281E0,-2.935966969E0,-2.517947197E0,2.046306610E0,4.375766318E0
7.983524697E0,-3.639085770E0,1.695680618E-1,4.987205505E0,6.176076207E0
7.988550114E0,-4.478019714E0,1.920835018E0,6.808284760E0,8.372276220E0
7.993575531E0,-5.318533897E0,2.312669754E0,7.516528130E0,9.493863246E0
7.998600947E0,-6.380480766E0,1.810800076E0,7.112318516E0,9.724947629E0
8.003626364E0,-6.807318687E0,9.083008766E-1,6.191116333E0,9.246324656E0
8.008651781E0,-6.487112999E0,8.230495453E-2,5.204984665E0,8.317528150E0
8.013677197E0,-5.768069267E0,-4.730358124E-1,4.514739037E0,7.340112705E0
8.018702614E0,-4.896873951E0,-7.594947815E-1,4.093196869E0,6.427321948E0
8.023728031E0,-4.075704098E0,-7.927026749E-1,3.893985987E0,5.692351736E0
8.028753447E0,-3.233356237E0,-6.548414230E-1,3.879869938E0,5.092818530E0
8.033778864E0,-2.360265732E0,-2.078027725E-1,4.028114319E0,4.673300898E0
8.038804281E0,-1.800337553E0,2.323408127E-1,4.119334221E0,4.501567725E0
8.043829697E0,-1.409015179E0,1.969738007E-1,4.068189621E0,4.309789930E0
8.048855114E0,-8.079309464E-1,4.548931122E-2,4.128418446E0,4.206977603E0
8.053880531E0,2.247095108E-3,-1.022329330E-1,4.298975945E0,4.300191948E0
8.058905947E0,7.719786167E-1,-2.076644897E-1,4.401178360E0,4.473191979E0
8.063931364E0,1.391310215E0,-2.179117203E-1,4.337945938E0,4.560811835E0
8.068956833E0,1.822462559E0,-9.937572479E-2,4.180205345E0,4.561289515E0
8.073982301E0,2.137905121E0,3.316116333E-2,4.003986359E0,4.539123784E0
8.079007770E0,2.424159050E0,1.412849426E-1,3.795437336E0,4.505757773E0
8.084033239E0,2.599495888E0,1.625337601E-1,3.660521030E0,4.492572794E0
8.089058708E0,2.567513466E0,1.396121979E-1,3.399452925E0,4.262381629E0
8.094084176E0,2.480571270E0,1.200132370E-1,3.109179258E0,3.979275394E0
8.099109645E0,2.352178574E0,7.733345032E-3,2.867649317E0,3.708937375E0
8.104135114E0,2.214930058E0,-2.165250778E-1,2.652219534E0,3.462234354E0
8.109160583E0,2.068424225E0,-5.000219345E-1,2.511077404E0,3.291490610E0
8.114186051E0,1.945662618E0,-8.521528244E-1,2.496259689E0,3.277663786E0
8.119211520E0,1.812992454E0,-1.234334946E0,2.596644402E0,3.398983163E0
8.124236989E0,1.637139201E0,-1.603194237E0,2.633109808E0,3.490519128E0
8.129262458E0,1.437581420E0,-1.829430580E0,2.556248426E0,3.456568038E0
8.134287926E0,1.162395120E0,-1.855727196E0,2.298455715E0,3.174552648E0
8.139313395E0,8.027479649E-1,-1.696699142E0,1.865002275E0,2.646020740E0
8.144338864E0,4.027730227E-1,-1.496066093E0,1.352909327E0,2.056891711E0
8.149364333E0,6.880474091E-2,-1.210825920E0,8.214026690E-1,1.464764775E0
8.154389801E0,-1.886457205E-1,-9.270887375E-1,2.769210935E-1,9.857819369E-1
8.159415270E0,-3.976479769E-1,-6.112680435E-1,-1.883467138E-1,7.531580306E-1
8.164440739E0,-5.672076941E-1,-3.302125931E-1,-6.165216565E-1,9.004798042E-1
8.169466208E0,-6.873587966E-1,-9.806251526E-2,-9.929654002E-1,1.211634705E0
8.174491676E0,-8.345054984E-1,1.092815399E-1,-1.293888807E0,1.543531706E0
8.179517145E0,-9.415530562E-1,2.489147186E-1,-1.610494971E0,1.882066616E0
8.184542614E0,-1.047039270E0,3.879184723E-1,-1.947658539E0,2.245026895E0
8.189568083E0,-1.146634579E0,4.115123749E-1,-2.252880812E0,2.561168726E0
8.194593551E0,-1.259728670E0,3.390092850E-1,-2.583209038E0,2.893926839E0
8.199619020E0,-1.400917053E0,2.088489532E-1,-2.937816620E0,3.261434189E0
