"Time (s)","Linear Acceleration x (m/s^2)","Linear Acceleration y (m/s^2)","Linear Acceleration z (m/s^2)","Absolute acceleration (m/s^2)"
9.171179300E-2,0.000000000E0,0.000000000E0,0.000000000E0,0.000000000E0
1.017094490E-1,4.467964172E-4,1.000022888E-2,-2.833247185E-2,3.004884633E-2
1.117183030E-1,-1.553392410E-2,1.999950409E-2,-6.502509117E-2,6.978212840E-2
1.217146570E-1,-5.299091339E-2,2.999973297E-2,-1.162614822E-1,1.312431070E-1
1.317188240E-1,-1.006011963E-1,-3.999996185E-2,-1.520776749E-1,1.866767710E-1
1.417128340E-1,-1.491534710E-1,-1.666736603E-2,-1.764817238E-1,2.316686380E-1
1.517120530E-1,-1.866333485E-1,2.857208252E-3,-1.918399334E-1,2.676615969E-1
1.617136160E-1,-2.201073170E-1,1.999950409E-2,-2.083909512E-1,3.037663570E-1
1.717104910E-1,-3.060946465E-1,-3.600025177E-2,-2.730572224E-1,4.117647355E-1
1.817190840E-1,-3.118112087E-1,-1.454639435E-2,-2.965838909E-1,4.305808075E-1
1.917104910E-1,-3.019306660E-1,4.999160767E-3,-3.370130062E-1,4.525095414E-1
2.017187720E-1,-2.928946018E-1,2.307605743E-2,-3.956601620E-1,4.928150931E-1
2.117201780E-1,-2.935740948E-1,3.999996185E-2,-9.689724445E-1,1.013258775E0
2.217133550E-1,-3.158941269E-1,-3.733348846E-2,-9.539816380E-1,1.005616157E0
2.317128340E-1,-3.467676640E-1,-1.625061035E-2,-9.563553333E-1,1.017412118E0
2.417141370E-1,-3.754503727E-1,3.529548645E-3,-9.545598030E-1,1.025748438E0
2.517117930E-1,-4.162204266E-1,2.222156525E-2,-9.539806843E-1,1.041063104E0
2.617102300E-1,-4.762923717E-1,3.999996185E-2,-9.405131340E-1,1.054997334E0
2.717143970E-1,-1.037518024E0,-3.800010681E-2,-8.977622986E-1,1.372539545E0
2.817125740E-1,-1.052322149E0,-1.714324951E-2,-8.307275772E-1,1.340814717E0
2.917120530E-1,-1.074849367E0,2.727508545E-3,-7.529385090E-1,1.312335704E0
3.017417410E-1,-1.099194527E0,2.173900604E-2,-6.522557735E-1,1.278334380E0
3.117110120E-1,-1.129810333E0,3.999996185E-2,-5.373039246E-1,1.251705594E0
3.217110120E-1,-1.165726662E0,-3.839969635E-2,-4.294559956E-1,1.242910149E0
3.317123140E-1,-1.201409578E0,-1.769256592E-2,2.131114006E-1,1.220292781E0
3.417102300E-1,-1.729720831E0,2.222061157E-3,2.546074390E-1,1.748360386E0
3.517104910E-1,-1.700015903E0,2.142810822E-2,3.219041824E-1,1.730357054E0
3.617271570E-1,-1.669492483E0,3.999996185E-2,4.061510563E-1,1.718651747E0
3.717061160E-1,-1.662169456E0,-3.866672516E-2,1.116668463E0,2.002810743E0
3.817318450E-1,-1.679370165E0,-1.806545258E-2,1.149623156E0,2.035250331E0
3.917253870E-1,-1.707931757E0,1.874923706E-3,1.212135553E0,2.094351213E0
4.017362720E-1,-2.907580137E0,2.121162415E-2,1.853116155E0,3.447972110E0
4.117136160E-1,-2.783239603E0,3.999996185E-2,1.842972517E0,3.338348451E0
4.217136160E-1,-2.859146833E0,-3.885746002E-2,1.819633126E0,3.389291258E0
4.317164800E-1,-2.740837336E0,-1.833438873E-2,1.756603479E0,3.255484792E0
4.417170530E-1,-2.627841711E0,1.621246338E-3,1.679102182E0,3.118483418E0
4.517115320E-1,-1.119014740E0,4.055404663E-2,1.522783160E0,1.890160621E0
4.617104910E-1,-9.796535969E-1,-3.845977783E-2,1.419937849E0,1.725521318E0
4.717162200E-1,-1.687407494E-1,-1.801013947E-2,1.304659724E0,1.315649954E0
4.817156990E-1,-5.542755127E-2,1.942634583E-3,1.202989459E0,1.204267257E0
4.917151780E-1,6.459891796E-1,2.143192291E-2,1.108405113E0,1.283091284E0
5.017357510E-1,6.970174313E-1,4.049110413E-2,1.020106196E0,1.236159165E0
5.117107510E-1,7.534446716E-1,-3.863048553E-2,9.325952530E-1,1.199543702E0
5.217141370E-1,8.048226833E-1,-1.822566986E-2,8.603560925E-1,1.178254782E0
5.317120530E-1,8.278083801E-1,1.736640930E-3,7.917579412E-1,1.145491322E0
5.417175220E-1,8.168516159E-1,2.128314972E-2,7.312369347E-1,1.096543200E0
5.523300220E-1,7.624342442E-1,4.044151306E-2,6.825799942E-1,1.024137169E0
5.618465320E-1,6.516416073E-1,-3.876686096E-2,6.490148306E-1,9.205215392E-1
5.717288760E-1,-9.630060196E-2,-1.839923859E-2,6.525257826E-1,6.598501609E-1
5.817089800E-1,-2.160973549E-1,1.570701599E-3,6.974941492E-1,7.302045070E-1
5.917112720E-1,-1.051530600E0,2.116298676E-2,7.731869221E-1,1.305366803E0
6.017378340E-1,-1.149163723E0,4.040145874E-2,8.559031487E-1,1.433450292E0
6.117149180E-1,-2.681143522E0,-3.887844086E-2,1.469037294E0,3.057468347E0
6.217130950E-1,-2.593980312E0,-1.854228973E-2,1.468427300E0,2.980831497E0
6.317146570E-1,-2.470635891E0,2.108764648E-2,2.473807335E0,3.496313648E0
6.417128340E-1,-2.389438629E0,4.039192200E-2,2.471200466E0,3.437714388E0
6.517115320E-1,-1.045624495E0,-3.894805908E-2,2.272680521E0,2.501984070E0
6.617117930E-1,-9.167542458E-1,-1.863765717E-2,2.274767637E0,2.452621763E0
6.717164800E-1,-1.694087982E-1,1.340866089E-3,2.277432680E0,2.283725192E0
6.817125740E-1,-7.842206955E-2,2.100181580E-2,1.243335247E0,1.245982999E0
6.917107510E-1,2.422976494E-2,4.036140442E-2,1.121465206E0,1.122452820E0
7.017326260E-1,9.330487251E-2,-3.902912140E-2,4.205486774E-1,4.325393180E-1
7.117110120E-1,1.285145283E-1,-1.874160767E-2,3.858160973E-1,4.070888020E-1
7.217162200E-1,1.103219986E-1,1.239776611E-3,3.504037857E-1,3.673626185E-1
7.317088240E-1,4.128479958E-2,2.092647552E-2,3.047963381E-1,3.082907066E-1
7.417308030E-1,-8.116745949E-2,4.033374786E-2,2.553042173E-1,2.709155054E-1
7.517088760E-1,-9.386477470E-1,-3.909969330E-2,1.977005005E-1,9.600384716E-1
7.617112720E-1,-1.026315451E0,-1.883125305E-2,1.428575516E-1,1.036381349E0
7.717092410E-1,-2.375584602E0,1.152992249E-3,1.001513004E-1,2.377695064E0
7.817110120E-1,-2.303590298E0,2.086257935E-2,8.249545097E-2,2.305161384E0
7.917162200E-1,-2.233001232E0,4.031085968E-2,6.712961197E-2,2.234373705E0
8.017357510E-1,-2.361094475E0,-3.915977478E-2,6.344366074E-2,2.362271302E0
8.117143970E-1,-2.251469851E0,8.296966553E-4,8.648729324E-2,2.253130540E0
8.217099700E-1,-2.183117628E0,2.056217194E-2,1.186954975E-1,2.186438657E0
8.317110120E-1,-2.115989685E0,4.004955292E-2,1.851010323E-1,2.124447859E0
8.417112720E-1,-2.247539759E0,-3.945064545E-2,2.519054413E-1,2.261956603E0
8.517149180E-1,-2.180286169E0,-1.921081543E-2,2.995927334E-1,2.200857251E0
8.617112720E-1,-2.114185095E0,1.581644058E0,2.967783213E-1,2.656963288E0
8.717099700E-1,-2.049195051E0,1.619616508E0,2.212346792E-1,2.621316993E0
8.817110120E-1,-1.985275865E0,1.640546799E0,9.744954109E-2,2.577248624E0
8.917107510E-1,-2.120037317E0,1.622498512E0,-6.400074959E-1,2.745299482E0
9.017854910E-1,-2.055850983E0,1.556240082E0,-6.610980034E-1,2.661852179E0
9.117091370E-1,-1.992680311E0,1.438683510E0,-6.736190319E-1,2.548401001E0
9.218243450E-1,-5.742461681E-1,-9.155654907E-2,-6.544702053E-1,8.754841592E-1
9.317092410E-1,-4.901447296E-1,-7.075214386E-2,-6.128039360E-1,7.878936386E-1
9.417092410E-1,-3.924899101E-1,-1.490774155E-1,-5.614132881E-1,7.010401454E-1
9.517133550E-1,2.282158136E-1,-1.276597977E-1,-5.016739368E-1,5.657351151E-1
9.617123140E-1,2.390844822E-1,-1.064891815E-1,-4.396364689E-1,5.116459324E-1
9.717130950E-1,2.384891510E-1,-8.555984497E-2,-3.805387020E-1,4.571731247E-1
9.817117930E-1,2.085583210E-1,-6.486225128E-2,-3.386180401E-1,4.029464753E-1
9.917130950E-1,8.314895630E-2,-1.235618591E-1,-3.196704388E-1,3.526619789E-1
1.001737834E0,1.545608044E-2,-1.024932861E-1,-3.239963055E-1,3.401725593E-1
1.011714137E0,-3.347718716E-2,-8.165168762E-2,-2.933685780E-1,3.063541132E-1
1.021717262E0,-5.154013634E-2,-6.102848053E-2,-2.179324627E-1,2.321107912E-1
1.031710751E0,-1.855838299E-2,-1.396179199E-1,4.027706385E-1,4.266869630E-1
1.041712053E0,4.889500141E-2,-1.184339523E-1,4.868906736E-1,5.034678245E-1
1.051708928E0,1.558609009E-1,-9.746837616E-2,5.932242870E-1,6.210537493E-1
1.061721949E0,9.350906610E-1,-7.671642303E-2,1.189713240E0,1.515155948E0
1.071720647E0,9.856939316E-1,-5.617046356E-2,1.166211128E0,1.528003941E0
1.081757522E0,1.028456450E0,-1.348733902E-1,1.105674982E0,1.516057606E0
1.091707626E0,1.054669857E0,-1.137905121E-1,1.017971754E0,1.470218786E0
1.101812991E0,1.051942110E0,-9.291362762E-2,9.262585640E-1,1.404695722E0
1.111708564E0,1.004695415E0,-7.223892212E-2,8.311697245E-1,1.305938150E0
1.121725334E0,9.189088345E-1,-5.175876617E-2,2.315666676E-1,9.490498077E-1
1.131711012E0,8.143835068E-1,-1.305608749E-1,1.791403294E-1,8.440129713E-1
1.141724814E0,1.854040623E-1,-1.095657349E-1,1.140446663E-1,2.436914083E-1
1.151724814E0,1.627099514E-1,-8.876514435E-2,4.775118828E-2,1.913999872E-1
1.161719345E0,1.574470997E-1,-6.815719604E-2,-6.675720215E-5,1.715663051E-1
1.171719345E0,1.966142654E-1,-1.270418167E-1,-1.009366512E-1,2.549215568E-1
1.181722209E0,2.400059700E-1,-1.061191559E-1,-1.483917236E-1,3.014701387E-1
1.191722470E0,2.968645096E-1,-8.538246155E-2,-1.991393566E-1,3.675257612E-1
1.201716741E0,3.556272984E-1,-6.482887268E-2,-2.137825489E-1,4.199720661E-1
1.211720126E0,4.062614441E-1,-4.445171356E-2,-1.922235489E-1,4.516350391E-1
1.221720126E0,4.303388596E-1,-1.234149933E-1,-1.344079971E-1,4.674273252E-1
1.231722991E0,4.362180233E-1,-1.025609970E-1,-5.977988243E-2,4.520824663E-1
1.241722209E0,4.311676025E-1,-8.188343048E-2,3.423666954E-2,4.402073911E-1
1.251721689E0,4.117734432E-1,-6.138038635E-2,1.060671806E-1,4.296221214E-1
1.261710751E0,3.848164082E-1,-4.104614258E-2,1.342468262E-1,4.096225874E-1
1.271738512E0,3.464546204E-1,-1.200780869E-1,1.391131878E-1,3.921760191E-1
1.281731897E0,2.933621407E-1,-9.928417206E-2,1.042714119E-1,3.267892589E-1
1.291709241E0,2.226629257E-1,-7.865905762E-2,3.498935699E-2,2.387263725E-1
1.301711532E0,1.270060539E-1,-5.820083618E-2,-6.413197517E-2,1.537230799E-1
1.311714918E0,-5.201624632E-1,-3.790378571E-2,-6.892340183E-1,8.643200895E-1
1.321709970E0,-5.565166473E-1,-1.169967651E-1,-7.311756611E-1,9.262920000E-1
1.331710230E0,-5.778445005E-1,-9.625720978E-2,-7.474606037E-1,9.496668212E-1
1.341712314E0,-5.715035200E-1,-7.567882538E-2,-7.122445107E-1,9.163164306E-1
1.351720647E0,-4.934118986E-1,-3.541278839E-2,-5.939188004E-1,7.729481928E-1
1.361712053E0,-4.144843817E-1,-1.145582199E-1,-5.339565277E-1,6.855876763E-1
1.371709709E0,-3.017407656E-1,-9.386348724E-2,-4.862799644E-1,5.799362445E-1
1.381710751E0,5.025098324E-1,-7.332420349E-2,-4.541871548E-1,6.813064964E-1
1.391713616E0,5.627868176E-1,-5.293846130E-2,-4.454007149E-1,7.196619203E-1
1.401716480E0,6.195402145E-1,-3.270149231E-2,-4.812235832E-1,7.851596029E-1
1.411710491E0,6.390941143E-1,-1.118965149E-1,-5.606458187E-1,8.574881055E-1
1.421712314E0,6.458020210E-1,-9.124565125E-2,-6.681447029E-1,9.337041091E-1
1.431711532E0,6.316046715E-1,-7.074356079E-2,-1.348004103E0,1.490316803E0
1.441825230E0,6.138725281E-1,-5.038928986E-2,-1.360296249E0,1.493246278E0
1.451706949E0,5.735986233E-1,-3.017807007E-2,-1.364982843E0,1.480913319E0
1.461702157E0,5.088989735E-1,-1.094179153E-1,-1.363064051E0,1.459073011E0
1.471711584E0,4.278984070E-1,-8.880615234E-2,-1.335924625E0,1.405588199E0
1.481712053E0,3.474135399E-1,1.303565979E0,-1.282022715E0,1.861064929E0
1.491713355E0,2.723131180E-1,1.447511673E0,-1.190291166E0,1.893736396E0
1.501717001E0,1.775856018E-1,2.571945190E0,-1.070629597E0,2.791538365E0
1.511713876E0,-5.108152628E-1,3.243620872E0,-2.685787678E-1,3.294562665E0
1.521712574E0,-5.564291477E-1,3.381348610E0,-1.904706955E-1,3.432114640E0
1.531713616E0,-6.648650169E-1,4.487597466E0,7.854206562E-1,4.604070168E0
1.541712574E0,-7.040381432E-1,4.524970055E0,8.763778210E-1,4.662516680E0
1.551733407E0,-7.473002672E-1,4.505234718E0,2.206511497E0,5.071911922E0
1.561710230E0,-7.940893173E-1,4.416388512E0,2.232110739E0,5.011724621E0
1.571713095E0,-8.390399218E-1,4.248041153E0,2.257638693E0,4.883315891E0
1.581710230E0,-8.677389622E-1,3.207805634E0,2.283096552E0,4.031813209E0
1.591712834E0,-9.017912149E-1,3.025852203E0,2.308485746E0,3.911280531E0
1.601715959E0,-9.404778481E-1,1.924996376E0,2.135057926E0,3.024662292E0
1.611711532E0,-1.007548690E0,1.804335594E0,2.161548138E0,2.990496890E0
1.621792418E0,-2.057028532E0,1.683450699E0,2.187958241E0,3.442750920E0
1.631719657E0,-2.004654169E0,1.003825188E0,2.214289665E0,3.151092202E0
1.641730126E0,-1.952674508E0,9.707050323E-1,2.240543842E0,3.126538454E0
1.651714553E0,-2.099870443E0,9.411973953E-1,2.067934752E0,3.093810361E0
1.661711012E0,-2.047461510E0,9.051017761E-1,2.095236301E0,3.066157696E0
1.671713355E0,-1.995440841E0,8.730592728E-1,2.122450352E0,3.041185976E0
1.681711012E0,-1.943801403E0,8.250598907E-1,2.149578571E0,3.013266625E0
1.691712574E0,-1.892536283E0,7.534618378E-1,2.176622391E0,2.981121157E0
1.701719605E0,-2.040462494E0,6.613893509E-1,2.004760027E0,2.935981238E0
1.711710751E0,-1.949064493E0,-4.063692093E-1,2.072639227E0,2.873990553E0
1.721710751E0,-1.898029447E0,-3.841362000E-1,2.100427389E0,2.856898951E0
1.731713355E0,-1.847351074E0,-3.620433807E-1,2.128126144E0,2.841250128E0
1.741712574E0,-3.985549212E-1,-4.395170212E-1,1.956879735E0,2.044847069E0
1.751717262E0,-2.787989378E-1,-4.171342850E-1,1.985533953E0,2.047944076E0
1.761711532E0,5.444074869E-1,-3.948898315E-1,2.014090300E0,2.123411695E0
1.771709449E0,6.390211582E-1,-3.727846146E-1,2.042550325E0,2.172401492E0
1.781711012E0,7.257953882E-1,-3.508129120E-1,2.070915937E0,2.222282940E0
1.791711012E0,7.764235735E-1,-4.284191132E-1,1.900299788E0,2.097025461E0
1.801743512E0,7.906901836E-1,-4.061632156E-1,9.671362638E-1,1.313587484E0
1.811715491E0,7.781879902E-1,-3.840408325E-1,9.258534908E-1,1.268963591E0
1.821727157E0,7.375227213E-1,-3.620519638E-1,8.941996098E-1,1.214336992E0
1.831710907E0,6.821348667E-1,-1.385536194E0,8.807067871E-1,1.777825347E0
1.841710491E0,6.042127609E-1,-1.420479774E0,8.976686001E-1,1.785677677E0
1.851715959E0,5.213681459E-1,-1.484129906E0,1.904910326E0,2.470455357E0
1.861714137E0,4.538111687E-1,-1.567849159E0,1.934509754E0,2.531091376E0
1.871711272E0,4.142422676E-1,-2.262858391E0,1.964007020E0,3.024805502E0
1.881709709E0,3.941788673E-1,-2.340767384E0,1.993403912E0,3.099714193E0
1.891711012E0,4.048850536E-1,-3.258254528E0,1.863595486E0,3.775333444E0
1.901715439E0,4.294645786E-1,-3.315966129E0,1.893680930E0,3.842668169E0
1.911714657E0,4.701142311E-1,-3.393415451E0,1.923661828E0,3.928963049E0
1.921713876E0,5.052075386E-1,-4.022240639E0,1.953539968E0,4.499996980E0
1.931713355E0,5.208022594E-1,-4.047555923E0,1.784342289E0,4.453966923E0
1.941709709E0,5.047723055E-1,-4.071986198E0,1.815034509E0,4.486671032E0
1.951717001E0,4.709843397E-1,-4.076119900E0,1.845618010E0,4.499209433E0
1.961710491E0,4.315202236E-1,-4.052831650E0,1.876094699E0,4.486801244E0
1.971712574E0,3.871386051E-1,-4.000813484E0,1.906466126E0,4.448707444E0
1.981727209E0,3.580284119E-1,-3.894536495E0,2.826179028E0,4.825234373E0
1.991730751E0,3.519949913E-1,-3.254327774E0,2.910315990E0,4.380010148E0
2.001703928E0,3.904664516E-1,-3.137815952E0,3.562648296E0,4.763487786E0
2.011712834E0,4.871942997E-1,-2.346960545E0,3.640434504E0,4.358709150E0
2.021718303E0,1.249115944E0,-2.183425426E0,4.255502701E0,4.943373390E0
2.031717001E0,1.370501995E0,-1.158738136E0,4.302517414E0,4.661824309E0
2.041716480E0,2.255130291E0,-8.946704865E-2,4.379991531E0,4.927265245E0
2.051718043E0,2.371310711E0,-6.913089752E-2,5.018650055E0,5.551102768E0
2.061713355E0,3.171065092E0,-4.889488220E-2,5.037170887E0,5.952405822E0
2.071715959E0,3.226670504E0,-1.100435257E-1,4.947978020E0,5.908129873E0
2.081710491E0,3.198272943E0,-9.069919586E-2,4.810095787E0,5.777040561E0
2.091714918E0,3.120264530E0,-6.368827820E-2,4.654039383E0,5.603587200E0
2.101721689E0,3.008482695E0,-3.652763367E-2,4.463044643E0,5.382478043E0
2.111712574E0,2.846086264E0,1.369476318E-3,4.243138790E0,5.109250012E0
2.121710491E0,2.652918100E0,-5.724620819E-2,4.000380516E0,4.800447463E0
2.131711532E0,2.448399305E0,-1.338958740E-2,3.200033188E0,4.029274233E0
2.141711793E0,2.247044086E0,3.164863586E-2,3.030824661E0,3.773076582E0
2.151718303E0,2.048901558E0,7.752132416E-2,2.868609905E0,3.526036009E0
2.161712991E0,1.858607531E0,-9.779672623E-1,2.732568264E0,3.446414258E0
2.171887834E0,1.685503960E0,-1.744596481E0,2.619849920E0,3.570455725E0
2.181708199E0,1.522565365E0,-1.761624336E0,2.525594473E0,3.435135082E0
2.191712834E0,1.373767614E0,-1.801103115E0,2.454223394E0,3.339823702E0
2.201716480E0,1.245555401E0,-1.842148781E0,2.436284542E0,3.298545552E0
2.211712834E0,1.125374556E0,-1.879794121E0,2.464344501E0,3.297436527E0
2.221712053E0,1.017127991E0,-1.929167271E0,3.070955038E0,3.766563494E0
2.231715699E0,8.988060951E-1,-1.975516796E0,3.099484921E0,3.783824227E0
2.241712574E0,7.480862141E-1,-2.092110157E0,3.887200832E0,4.477375147E0
2.251715439E0,6.198377609E-1,-2.104290485E0,3.806438446E0,4.393314346E0
2.261711793E0,4.524784088E-1,-2.046380520E0,3.673175812E0,4.229022403E0
2.271710751E0,-4.726243019E-1,-1.867467403E0,3.464269638E0,3.963833039E0
2.281717782E0,-6.806514263E-1,5.269918442E-1,2.481415987E0,2.626486640E0
2.291708407E0,-2.070774078E0,5.758199692E-1,2.282265186E0,3.135029235E0
2.301721949E0,-3.144711971E0,2.803579330E0,1.558143377E0,4.491890607E0
2.311725074E0,-4.288864136E0,4.613440514E0,1.443052530E0,6.462243384E0
2.321719605E0,-4.275960922E0,6.162737846E0,1.325935364E0,7.617170351E0
2.331730022E0,-4.257870197E0,7.206533432E0,1.163153887E0,8.450828935E0
2.341711324E0,-4.174451828E0,7.246915817E0,1.762106419E-1,8.365099349E0
2.351730491E0,-4.087264061E0,7.128191948E0,-2.077829838E-2,8.216889904E0
2.361700387E0,-2.805876017E0,5.932115555E0,-1.227606297E0,6.676073127E0
2.371714189E0,-1.935209990E0,4.295826912E0,-1.160605788E0,4.852439835E0
2.381724553E0,-1.069718122E0,2.237350464E0,-2.779696226E0,3.725150342E0
2.391720647E0,-8.394000530E-1,2.688379288E-1,-3.896225452E0,3.994676339E0
2.401724032E0,-6.842544079E-1,-1.534435272E0,-5.075219154E0,5.346077549E0
2.411719866E0,-6.595389843E-1,-2.763106823E0,-5.853288174E0,6.506207300E0
2.421723772E0,-2.263712406E0,-2.937531471E0,-5.890563011E0,6.960762716E0
2.431717001E0,-3.192417860E0,-2.896751881E0,-5.853606224E0,7.269622348E0
2.441710543E0,-3.070396423E0,-2.124316216E0,-6.352407455E0,7.368387480E0
2.451725855E0,-3.169088364E0,-1.335186005E0,-6.185807705E0,7.077433128E0
2.461722991E0,-3.083470583E0,4.320144653E-2,-5.948164463E0,6.700023707E0
2.471717262E0,-2.996592283E0,5.333137512E-2,-5.595816135E0,6.347878998E0
2.481721428E0,-2.908656597E0,6.915378571E-2,-4.471168518E0,5.334455301E0
2.491720126E0,-1.474133492E0,8.137035370E-2,-4.072853565E0,4.332184997E0
2.501720387E0,-1.301826715E0,-5.865097046E-4,-2.762426853E0,3.053809958E0
2.511762053E0,-1.132829666E0,2.240371704E-2,-2.389433384E0,2.644465329E0
2.521717782E0,-9.813783169E-1,4.585552216E-2,-1.212538362E0,1.560594569E0
2.531724762E0,-9.089840651E-1,7.366943359E-2,-9.153739214E-1,1.292125625E0
2.541710543E0,-9.358818531E-1,1.046047211E-1,-6.391391754E-1,1.138119447E0
2.551721689E0,-2.436906338E0,-1.215721130E0,-4.125245810E-1,2.754390476E0
2.561710491E0,-2.282680988E0,-1.252970695E0,-2.721495628E-1,2.618135490E0
2.571712834E0,-2.128145218E0,-1.255428314E0,-1.847155094E-1,2.477745374E0
2.581712574E0,-1.981107712E0,-1.219610214E0,-1.844856739E-1,2.333724878E0
2.591712574E0,-1.839838386E0,-1.142729759E0,-2.325415611E-1,2.178281930E0
2.601718303E0,-1.862177730E0,5.857467651E-2,-9.536361694E-1,2.092978460E0
2.611712574E0,-1.724354148E0,7.560729980E-2,-9.564056396E-1,1.973277841E0
2.621711012E0,-2.356957197E-1,9.341049194E-2,-9.489035606E-1,9.821893706E-1
2.631712314E0,5.633627176E-1,1.120748520E-1,-9.278867245E-1,1.091289191E0
2.641711012E0,8.100541830E-1,3.144645691E-2,-8.956754208E-1,1.208060892E0
2.651715699E0,1.919740438E0,5.151844025E-2,-8.374814987E-1,2.095097316E0
2.661714657E0,2.099299908E0,7.985782623E-2,-7.397773266E-1,2.227264660E0
2.671710230E0,2.280322313E0,1.096735001E-1,-6.460239887E-1,2.372603027E0
2.681707887E0,2.957855225E0,1.460800171E-1,-5.528039932E-1,3.012613343E0
2.691709605E0,2.964586258E0,8.601760864E-2,-4.749469757E-1,3.003622037E0
2.701744814E0,2.944802761E0,1.257982254E-1,-4.167850018E-1,2.976810077E0
2.711716064E0,2.870212078E0,1.701354980E-1,-3.615686893E-1,2.897894991E0
2.721710022E0,2.763036728E0,2.141208649E-1,-2.942998409E-1,2.786903676E0
2.731709189E0,2.599039078E0,2.574300766E-1,-2.124845982E-1,2.620386246E0
2.741713616E0,1.709705353E0,2.004318237E-1,-1.075973511E-1,1.724773173E0
2.751716741E0,1.553267002E0,2.428359985E-1,-2.343893051E-3,1.572136507E0
2.761712053E0,7.371381521E-1,2.843599319E-1,1.124773026E-1,7.980503554E-1
2.771712834E0,5.853180885E-1,3.250465393E-1,2.354137897E-1,7.096986472E-1
2.781712053E0,-1.806975603E-1,2.850561142E-1,3.628041744E-1,4.955153535E-1
2.791711272E0,-3.191820383E-1,3.233919144E-1,3.884487152E-1,5.977891837E-1
2.801718303E0,-4.189639091E-1,3.577547073E-1,3.772914410E-1,6.677334942E-1
2.811712314E0,-4.789477587E-1,3.897809982E-1,3.381116390E-1,7.040168056E-1
2.821712314E0,-4.737745523E-1,4.156684875E-1,2.907080650E-1,6.940848630E-1
2.831711793E0,-4.248858690E-1,3.409204483E-1,2.221360207E-1,5.883019339E-1
2.841711272E0,-3.200777769E-1,3.614387512E-1,-4.408478737E-1,6.537848284E-1
2.851715439E0,-2.066611052E-1,3.813438416E-1,-4.604597092E-1,6.325781230E-1
2.861711012E0,-7.628941536E-2,4.008741379E-1,-4.705512524E-1,6.228471967E-1
2.871706220E0,6.334171295E-1,4.202728271E-1,-4.631030560E-1,8.901185031E-1
2.881732470E0,7.385816574E-1,3.397941589E-1,-4.552750587E-1,9.317930641E-1
2.891723407E0,8.579206467E-1,3.605690002E-1,-4.340560436E-1,1.026860501E0
2.901713928E0,9.805777073E-1,3.824758530E-1,-3.861439228E-1,1.121127801E0
2.911711272E0,1.103585362E0,4.133729935E-1,-2.646832466E-1,1.207822464E0
2.921712053E0,1.778636098E0,4.442071915E-1,-1.016190052E-1,1.836080832E0
2.931713355E0,1.805929780E0,3.781433105E-1,7.873022556E-1,2.006045756E0
2.941711793E0,1.825657964E0,1.909578323E0,9.133861065E-1,2.795315824E0
2.951719345E0,1.844428420E0,2.004732132E0,1.035537481E0,2.914310380E0
2.961711272E0,1.893499494E0,2.846392632E0,1.235409498E0,3.635041674E0
2.971717262E0,1.909899712E0,2.916581154E0,1.329999924E0,3.731361994E0
2.981713616E0,1.923652411E0,2.990053177E0,1.379165649E0,3.813522582E0
2.991711793E0,1.919780970E0,3.072910309E0,1.392496586E0,3.881672768E0
3.001719866E0,1.915175557E0,3.698518753E0,1.392120123E0,4.391461809E0
3.011711012E0,1.889845133E0,3.717358589E0,1.389563084E0,4.395583587E0
3.021711272E0,1.822199702E0,3.755970001E0,1.408155441E0,4.405748989E0
3.031710751E0,1.697719097E0,3.810339928E0,1.982344151E0,4.618509373E0
3.041713095E0,7.758119106E-1,3.868855476E0,2.038439751E0,4.441301998E0
3.051721168E0,6.091995239E-1,3.891510010E0,3.697571039E0,5.402499959E0
3.061713251E0,-1.372968078E0,3.876243591E0,3.678387403E0,5.517321779E0
3.071710260E0,-1.526522875E0,3.830220222E0,3.460343599E0,5.382827962E0
3.081697604E0,-1.480014563E0,3.762074471E0,3.441956520E0,5.309492642E0
3.091713904E0,-1.434977055E0,3.687919617E0,3.404761076E0,5.220374338E0
3.101719633E0,-1.386747003E0,3.623758316E0,3.367417574E0,5.137527878E0
3.111712081E0,-1.311209559E0,3.539092064E0,3.281844854E0,5.001494656E0
3.121715467E0,-1.430535674E0,3.475766182E0,3.001755953E0,4.810189359E0
3.131711821E0,-1.283842921E0,3.438386917E0,2.928002596E0,4.695099194E0
3.141715206E0,-1.099955916E0,3.434288025E0,2.897550583E0,4.626017362E0
3.151715467E0,-9.602486491E-1,3.337005615E0,2.829185009E0,4.479059249E0
3.161713904E0,-1.024558783E0,3.181249619E0,2.565600157E0,4.213356619E0
3.171713123E0,-8.904572725E-1,2.288015366E0,2.503977537E0,3.506826482E0
3.181714425E0,5.379739404E-1,2.124051094E0,2.444877386E0,3.283052611E0
3.191710779E0,7.561349869E-1,1.141582489E0,2.389955759E0,2.754421759E0
3.201715988E0,1.845688343E0,9.694910049E-1,2.337902308E0,3.132453586E0
3.211711040E0,2.039593935E0,-4.006729126E-1,2.089539766E0,2.947313800E0
3.221713904E0,2.725887060E0,-3.990488052E-1,2.046481371E0,3.431877943E0
3.231832498E0,2.814803839E0,-3.953409195E-1,2.007870436E0,3.480080284E0
3.241702394E0,2.851299763E0,-3.876876831E-1,1.975801110E0,3.490558996E0
3.251734529E0,2.887860775E0,-1.673008919E0,1.947425246E0,3.864086410E0
3.261708748E0,2.875773907E0,-1.801190376E0,1.725975633E0,3.807013819E0
3.271731352E0,2.831815004E0,-2.718205452E0,1.707920909E0,4.280748875E0
3.281712863E0,2.732236862E0,-2.841107368E0,6.512743235E-1,3.995143001E0
3.291711300E0,2.617420673E0,-3.703275681E0,5.029183626E-1,4.562682175E0
3.301718071E0,2.500210524E0,-3.800058365E0,-3.081570864E-1,4.559216712E0
3.311713904E0,2.360042572E0,-4.471270561E0,-3.904104233E-1,5.070944850E0
3.321713123E0,2.114322186E0,-4.590439796E0,-4.481739998E-1,5.073791064E0
3.331712342E0,1.304365873E0,-4.643670082E0,-4.583566189E-1,4.845114338E0
3.341711040E0,1.169156075E0,-4.662734985E0,-3.947898149E-1,4.823264711E0
3.351718852E0,1.007501245E0,-4.659754276E0,-2.857164145E-1,4.775981841E0
3.361711561E0,8.334852457E-1,-4.624783993E0,4.838818312E-1,4.724136562E0
3.371714686E0,-4.254579544E-3,-4.564574242E0,6.338665485E-1,4.608377470E0
3.381713123E0,-1.315909624E-1,-4.488118172E0,1.742558956E0,4.816329787E0
3.391710258E0,-2.838540077E-1,-4.406850815E0,1.831676722E0,4.780789351E0
3.401714686E0,-1.451724529E0,-4.340156555E0,1.721305490E0,4.889514866E0
3.411815154E0,-1.445907235E0,-4.283495903E0,1.810098171E0,4.869850128E0
3.421718383E0,-1.438723445E0,-4.240599155E0,1.870947480E0,4.853148547E0
3.431695415E0,-1.427257180E0,-4.211525917E0,1.927076221E0,4.846404478E0
3.441727238E0,-1.386361361E0,-4.195166588E0,1.944875121E0,4.827417504E0
3.451716248E0,-1.542683244E0,-4.160514832E0,1.763278961E0,4.774820201E0
3.461713904E0,2.197329998E-1,-4.056093216E0,1.780205607E0,4.435009219E0
3.471711561E0,1.002433419E0,-3.069408417E0,3.654309511E0,4.876486316E0
3.481710779E0,2.037098885E0,-2.180673122E0,4.395827293E0,5.313041005E0
3.491714425E0,3.294037342E0,-1.129859924E0,5.159197807E0,6.224515039E0
3.501720154E0,5.895351410E0,-8.422565460E-2,6.218552589E0,8.569285765E0
3.511710779E0,6.844670296E0,1.807168961E0,6.247771740E0,9.441928978E0
3.521713383E0,6.937775135E0,2.471922874E0,6.165801525E0,9.605219153E0
3.531712863E0,8.117221832E0,2.562660217E0,6.016225815E0,1.042360258E1
3.541714686E0,7.885637760E0,2.627480507E0,5.750590324E0,1.010723631E1
3.551759633E0,7.712616920E0,2.658201218E0,5.433619976E0,9.801771244E0
3.561721977E0,5.802269459E0,2.636834145E0,4.386529446E0,7.736980403E0
3.571724842E0,4.675817490E0,2.550615311E0,4.098631859E0,6.720691242E0
3.581718852E0,3.523984671E0,1.651786804E0,3.847617388E0,5.472753162E0
3.591763956E0,2.500127077E0,-1.244449615E-2,3.649633884E0,4.423869094E0
3.601716300E0,1.665356159E0,5.125522614E-2,3.502831697E0,3.878900377E0
3.611717133E0,1.397325993E0,1.155948639E-1,3.406046152E0,3.683345286E0
3.621709529E0,5.248932838E-1,-1.229995728E0,3.335908890E0,3.593979768E0
3.631708436E0,3.293077946E-1,-2.101474285E0,3.316327572E0,3.939881516E0
3.641724581E0,1.490359306E-1,-2.934501648E0,3.307727337E0,4.424315966E0
3.651722498E0,-6.542112827E-1,-3.611836433E0,3.280252457E0,4.922744255E0
3.661722498E0,-7.714180946E-1,-3.687892914E0,3.207473040E0,4.948082792E0
3.671733696E0,-8.899562359E-1,-3.701339245E0,3.090733767E0,4.903526234E0
3.681723019E0,-1.815919042E0,-1.616931438E0,2.057148457E0,3.184947255E0
3.691725623E0,-3.636157036E0,3.519620895E-1,1.151728153E0,3.830403770E0
3.701720675E0,-3.598312378E0,3.010421753E0,9.085246325E-1,4.778693138E0
3.711721717E0,-3.534475088E0,5.286654472E0,-9.218931198E-2,6.360010104E0
3.721717550E0,-3.469143152E0,6.769294739E0,-1.165892959E0,7.695298036E0
3.731724321E0,-3.600158930E0,7.481694221E0,-1.402022004E0,8.420365695E0
3.741721196E0,-3.503762484E0,7.449341774E0,-3.037630558E0,8.774750356E0
3.751720154E0,-3.378794909E0,6.530583382E0,-3.789980650E0,8.272165839E0
3.761720415E0,-3.163974047E0,4.871394157E0,-3.845525265E0,6.966295814E0
3.771724113E0,-2.930405378E0,2.749712944E0,-3.909485340E0,5.606449195E0
3.781717915E0,-1.312314391E0,2.790355682E-2,-5.029017448E0,5.197495952E0
3.791701873E0,-1.141530871E0,-1.308002472E0,-5.971691132E0,6.218927413E0
3.801709269E0,-1.064492345E0,-2.291998386E0,-6.598073959E0,7.065478082E0
3.811711561E0,-2.325338125E0,-2.374855995E0,-6.446249008E0,7.252672933E0
3.821712342E0,-2.145522356E0,-2.354148865E0,-6.245108128E0,7.010467786E0
3.831713383E0,-2.172592878E0,-1.649033546E0,-6.087204933E0,6.670347469E0
3.841714946E0,-2.023735762E0,-1.959629059E-1,-5.979658604E0,6.315870875E0
3.851712602E0,-1.900300264E0,-1.952743530E-1,-5.719568729E0,6.030152537E0
3.861713123E0,-6.339418888E-2,-1.691570282E-1,-3.715833664E0,3.720222136E0
3.871711561E0,9.022406340E-1,-2.575483322E-1,-2.374781132E0,2.553420202E0
3.881711300E0,1.831171870E0,-2.407436371E-1,-1.311123490E0,2.264992875E0
3.891711821E0,2.583548546E0,-2.194156647E-1,-9.554434419E-1,2.763284005E0
3.901714686E0,2.715421915E0,-1.863136292E-1,9.957789183E-1,2.898241639E0
3.911709738E0,2.807755470E0,-1.503658295E-1,1.216471791E0,3.063642323E0
3.921712342E0,2.791260958E0,-1.378683090E0,1.188902497E0,3.332475648E0
3.931711821E0,2.582049370E0,-1.525394440E0,1.312872291E0,3.273750265E0
3.941712081E0,8.896971941E-1,-2.565981865E0,1.400430799E0,3.055655486E0
3.951721873E0,-4.471007586E-1,-2.639961243E0,1.808295250E-1,2.683653064E0
3.961722863E0,-1.657189608E0,-2.718908310E0,6.231439114E-2,3.184748479E0
3.971695883E0,-1.855824947E0,-2.737266064E0,-7.021603584E-1,3.380789983E0
3.981721248E0,-1.850954413E0,-2.653836250E0,-7.647230625E-1,3.324707573E0
3.991708956E0,-1.854620457E0,-1.800279617E0,-8.482612371E-1,2.720325507E0
4.001710779E0,-1.855153084E0,-5.121231079E-3,-1.620460868E0,2.463232148E0
4.011709998E0,-1.816359639E0,1.957225800E-2,-1.660115123E0,2.460798170E0
4.021710258E0,-1.885137200E0,-7.271862030E-2,-1.675824761E0,2.523374505E0
4.031713904E0,-4.265522957E-2,1.123207092E0,-1.615058184E0,1.967695753E0
4.041711561E0,8.096965551E-1,1.139349937E0,-1.540967703E0,2.080458664E0
4.051712081E0,1.637025118E0,1.039059639E0,-1.442383051E0,2.416601960E0
4.061712081E0,1.865458012E0,-9.645748138E-2,-1.291414976E0,2.270900764E0
4.071718071E0,2.712195873E0,-7.377338409E-2,-1.132684946E0,2.940140159E0
4.081710779E0,2.831942558E0,-4.989814758E-2,-9.576692581E-1,2.989902822E0
4.091711300E0,2.856240511E0,-1.694159508E0,-2.055640221E-1,3.327242531E0
4.101712081E0,2.828536987E0,-1.694046021E0,-9.400916100E-2,3.298370981E0
4.111710519E0,2.744577885E0,-1.634047508E0,1.793599129E-2,3.194235546E0
4.121729790E0,2.622352600E0,-1.534290314E0,1.053020954E-1,3.040044154E0
4.131708956E0,1.892079115E0,-1.387568474E0,1.677961349E-1,2.352331862E0
4.141872029E0,1.718375802E0,1.028051376E-1,1.933343410E-1,1.732270897E0
4.151708748E0,9.398115873E-1,1.375761032E-1,1.834278107E-1,9.673772613E-1
4.161715519E0,7.876081467E-1,7.151508331E-2,1.687328815E-1,8.086481220E-1
4.171712863E0,6.201225519E-1,1.051254272E-1,1.568570137E-1,6.482341071E-1
4.181715727E0,-1.393861771E-1,1.384305954E-1,1.378650665E-1,2.399964847E-1
4.191712081E0,-2.515761852E-1,1.711168289E-1,1.021559238E-1,3.209476264E-1
4.201714165E0,-3.594651222E-1,1.980743408E-1,6.784510612E-2,4.159946839E-1
4.211713644E0,-1.900498033E0,1.400518417E-1,8.474111557E-3,1.905670250E0
4.221714425E0,-1.847376227E0,1.613388062E-1,-1.551604271E-2,1.854472940E0
4.231714946E0,-1.790242910E0,1.817531586E-1,-4.485678673E-2,1.800004450E0
4.241713383E0,-1.707408309E0,1.977396011E-1,-6.728529930E-2,1.720137028E0
4.251710519E0,-1.822452188E0,1.138811111E-1,-7.987093925E-2,1.827752787E0
4.261712342E0,-1.736199141E0,1.303262711E-1,-8.262944221E-2,1.743043321E0
4.271709477E0,1.182397604E-1,1.404608727E0,-1.029481888E-1,1.413331046E0
4.281710519E0,8.638569117E-1,1.458881378E0,-1.521630287E-1,1.702274134E0
4.291711040E0,1.626958370E0,1.505918503E0,-2.074692249E-1,2.226617963E0
4.301718852E0,2.398099899E0,1.551235199E0,-2.442247868E-1,2.866506500E0
4.311711352E0,3.151209354E0,1.620050430E0,-2.587037086E-1,3.552690727E0
4.321721561E0,3.344820499E0,1.675116539E0,-2.489581108E-1,3.749109192E0
4.331717602E0,4.361779213E0,1.706141472E0,-2.478203773E-1,4.690144088E0
4.341715727E0,4.428928375E0,1.711753845E0,-2.123508453E-1,4.752957044E0
4.351711300E0,4.455174446E0,1.700891495E0,-1.211614609E-1,4.770355471E0
4.361711300E0,4.414052963E0,1.685339928E0,-3.386259079E-3,4.724854040E0
4.371711561E0,4.273590088E0,1.696207047E0,8.398580551E-1,4.673976052E0
4.381710258E0,4.022003651E0,1.746484756E0,9.484441280E-1,4.486231005E0
4.391712081E0,1.958852053E0,1.946949005E0,2.618527174E0,3.805837142E0
4.401711821E0,9.550340176E-1,2.799488068E0,2.650945187E0,3.971993680E0
4.411711821E0,-5.830860138E-2,2.889400482E0,1.659870744E0,3.332747504E0
4.421709998E0,-1.035388350E0,2.995091438E0,1.524390936E0,3.516584918E0
4.431711040E0,-2.120891809E0,3.691658974E0,1.418398857E0,4.487581015E0
4.441707186E0,-2.352645397E0,3.743230820E0,1.306601763E0,4.610197989E0
4.451711300E0,-2.341621637E0,3.789036751E0,1.211149812E0,4.615937094E0
4.461710779E0,-2.292771339E0,3.784053802E0,1.130065680E0,4.566498882E0
4.471711300E0,-2.213268280E0,3.736654282E0,1.095783353E0,4.479049325E0
4.481734477E0,-2.104057550E0,3.652005196E0,1.141837716E0,4.366691367E0
4.491708956E0,-2.161419630E0,3.567429543E0,2.212345839E0,4.721521203E0
4.501804998E0,-1.990450859E0,3.479682922E0,2.204966068E0,4.575146252E0
4.511708748E0,-1.825716734E0,3.435335159E0,2.199435472E0,4.469036322E0
4.521711352E0,-5.587288141E-1,3.409439087E0,2.195808411E0,4.093656966E0
4.531713436E0,-3.718763590E-1,3.394828796E0,2.194070578E0,4.059199463E0
4.541711561E0,-1.807067394E-1,3.365714073E0,1.994745612E0,3.916592423E0
4.551718696E0,-2.151393890E-2,3.321749687E0,1.961223364E0,3.857574486E0
4.561712602E0,8.102846146E-2,3.276474953E0,1.929838777E0,3.803436792E0
4.571711821E0,-2.479624748E-2,3.140917778E0,1.940874457E0,3.692285607E0
4.581711040E0,-1.280874372E0,2.440740585E0,1.714866400E0,3.246324157E0
4.591712342E0,-1.192887783E0,2.296805382E0,1.692117572E0,3.092176920E0
4.601712602E0,-1.107641816E0,1.254091263E0,1.673061967E0,2.366168133E0
4.611737602E0,-1.024858356E0,1.073088646E0,1.657164097E0,2.224420539E0
4.621711300E0,-9.442970157E-1,-3.136444092E-1,1.644050241E0,1.921710400E0
4.631709738E0,-1.065523386E0,-4.034233093E-1,1.432879925E0,1.830637958E0
4.641710258E0,-9.890002608E-1,-1.653224945E0,1.425564289E0,2.396561657E0
4.651711040E0,-8.802607059E-1,-2.340460777E0,1.423364758E0,2.877252647E0
4.661709477E0,-7.744113803E-1,-2.503208637E0,1.424283624E0,2.982339737E0
4.671729477E0,1.424529791E0,-3.551756859E0,1.430396914E0,4.085376022E0
4.681721873E0,1.621344805E0,-3.660841942E0,1.239576340E0,4.191309127E0
4.691709529E0,2.499616623E0,-4.288707733E0,2.409907579E-1,4.969826338E0
4.701711040E0,2.560741901E0,-4.340391159E0,-6.570224762E-1,5.082132725E0
4.711741769E0,2.587317228E0,-4.418008804E0,-7.743399143E-1,5.178089854E0
4.721710779E0,2.564891815E0,-4.498907566E0,-8.911716938E-1,5.254809825E0
4.731712863E0,2.404474258E0,-5.110218048E0,-1.497728944E0,5.842860340E0
4.741712863E0,1.497466326E0,-5.133584976E0,-1.491922617E0,5.551750463E0
4.751710519E0,3.974989057E-1,-5.157271385E0,-1.307818294E0,5.335338997E0
4.761711300E0,2.379302382E-1,-5.145435333E0,-4.554589987E-1,5.171030697E0
4.771711300E0,-9.549776912E-1,-5.131181717E0,-2.694411278E-1,5.226242123E0
4.781712081E0,-9.716609120E-1,-5.095087528E0,1.404064178E0,5.373587076E0
4.791726144E0,-9.930797815E-1,-5.029170990E0,1.505274415E0,5.342716478E0
4.801720415E0,-1.008565903E0,-4.928864002E0,1.605461121E0,5.280947921E0
4.811762863E0,-1.018886089E0,-4.808187962E0,1.705799699E0,5.202552542E0
4.821721196E0,-1.192704439E0,-4.118752480E0,1.600782990E0,4.577026551E0
4.831728488E0,-1.162360668E0,-4.012221336E0,2.764922142E0,5.009370901E0
4.841710206E0,2.121738195E-1,-3.207512856E0,3.619711876E0,4.841019574E0
4.851702446E0,3.941993713E-1,-2.444216728E0,4.263390541E0,4.930120431E0
4.861697029E0,1.763708234E0,-1.574241638E0,4.941001892E0,5.477444949E0
4.871710311E0,2.970533133E0,-1.415166855E-1,5.055486202E0,5.865324783E0
4.881710727E0,4.135639191E0,-1.286211014E-1,5.772388458E0,7.102149211E0
4.891719113E0,5.158473969E0,9.107713699E-1,5.742401123E0,7.772678356E0
4.901720154E0,5.880795956E0,1.031905174E0,5.667265415E0,8.232040248E0
4.911765467E0,5.932561398E0,1.801002502E0,5.502866268E0,8.289778762E0
4.921721196E0,6.595801830E0,1.827103615E0,5.321878433E0,8.669792354E0
4.931721717E0,6.398264885E0,1.758948326E0,5.004639626E0,8.311324235E0
4.941722758E0,5.536774635E0,1.663502693E0,4.704390049E0,7.453482428E0
4.951723279E0,4.627121925E0,-9.538364410E-2,4.419091225E0,6.399040757E0
4.961718852E0,4.271363258E0,-1.424570084E-1,4.148549080E0,5.956114300E0
4.971720936E0,3.075855494E0,-8.560657501E-2,3.901109457E0,4.968588381E0
4.981723279E0,2.783775806E0,-2.589416504E-2,3.684904575E0,4.618289724E0
4.991721717E0,1.801267147E0,3.570270538E-2,3.491372824E0,3.928806716E0
5.001725623E0,1.540737867E0,9.848308563E-2,3.328366280E0,3.669004522E0
5.011764946E0,6.105546951E-1,-1.734722137E0,3.196031332E0,3.687364127E0
5.021843383E0,3.791470528E-1,-1.841272354E0,3.114940882E0,3.638254123E0
5.031713956E0,-4.938423634E-1,-2.840744495E0,3.083537102E0,4.221600482E0
5.041707446E0,-6.570320129E-1,-2.949652672E0,3.086317778E0,4.319432761E0
5.051708488E0,-8.288619518E-1,-3.860177040E0,3.727904320E0,5.430032185E0
5.061711040E0,-1.602394819E0,-3.919408798E0,3.660904884E0,5.597468987E0
5.071717811E0,-1.675941348E0,-3.944357872E0,3.564947128E0,5.574548094E0
5.081708956E0,-1.746447325E0,-3.776425838E0,3.391863108E0,5.368072812E0
5.091713123E0,-1.806465030E0,-1.908085346E0,2.286313057E0,3.483006314E0
5.101711561E0,-1.847812295E0,4.323577881E-1,7.286623716E-1,2.032804070E0
5.111743331E0,-1.965765119E0,5.703845978E0,-1.642518044E0,6.252675984E0
5.121716508E0,-1.817392111E0,7.821034431E0,-2.787333965E0,8.499454353E0
5.131712602E0,-7.617526054E-1,8.905452728E0,-3.894759655E0,9.749692718E0
5.141712342E0,3.724908829E-2,8.961566925E0,-5.086897850E0,1.030473673E1
5.151711040E0,1.943168640E-1,8.805040359E0,-5.904103756E0,1.060306257E1
5.161712602E0,3.150284290E-1,6.928788185E0,-5.888295174E0,9.098316805E0
5.171718071E0,4.442782402E-1,4.576569557E0,-5.655079842E0,7.288504653E0
5.181712342E0,5.884788036E-1,1.789668083E0,-5.464848518E0,5.780466113E0
5.191711300E0,6.326155663E-1,-1.107748032E0,-5.371455193E0,5.520854919E0
5.201764113E0,-1.123147011E-1,-3.249898434E0,-6.097906113E0,6.910782400E0
5.211746769E0,-1.228892088E0,-4.290193558E0,-6.014563084E0,7.489386197E0
5.221710988E0,-2.422073126E0,-4.360394955E0,-6.572007179E0,8.250500636E0
5.231708227E0,-2.340208054E0,-4.294475555E0,-6.454859257E0,8.098413552E0
5.241709477E0,-2.268155098E0,-3.352214813E0,-7.015585899E0,8.099402275E0
5.251711561E0,-2.421475887E0,-2.222439766E0,-6.799935341E0,7.552609127E0
5.261710258E0,-2.389897346E0,-3.337192535E-2,-5.869569778E0,6.337552556E0
5.271717290E0,-2.334343910E0,-9.482383728E-3,-4.506652832E0,5.075349363E0
5.281710779E0,-9.233822823E-1,1.607805252E0,-2.848102570E0,3.398435054E0
5.291711561E0,3.852076530E-1,2.506770134E0,7.189019918E-1,2.636114852E0
5.301709477E0,5.129265785E-1,2.488001823E0,9.361173511E-1,2.707316465E0
5.311735779E0,5.662875175E-1,2.366619110E0,1.146424532E0,2.689954790E0
5.321717811E0,5.196845531E-1,1.277144432E0,1.350190282E0,1.929814430E0
5.331714686E0,-3.669700623E-1,3.595542908E-2,1.490525365E0,1.535456181E0
5.341710258E0,-2.087283373E0,-4.604053497E-2,1.374493122E0,2.499620562E0
5.351711300E0,-2.000965834E0,-1.738415718E0,1.383500218E0,2.989987681E0
5.361711040E0,-3.045594931E0,-2.461090088E0,-2.745661736E-1,3.925302471E0
5.371717811E0,-3.156841755E0,-2.551698208E0,-9.962629080E-1,4.179635557E0
5.381753383E0,-3.799511671E0,-2.577221394E0,-1.167061925E0,4.737129150E0
5.391710311E0,-3.691948891E0,-2.540639877E0,-2.153198242E0,4.972082086E0
5.401698852E0,-2.856858015E0,-2.423588276E0,-2.276279449E0,4.383704596E0
5.411734008E0,-1.633149028E0,-1.459207535E0,-2.389356136E0,3.241216612E0
5.421719633E0,-4.797583818E-1,-1.316263199E0,-2.463261843E0,2.833791774E0
5.431714165E0,8.374680281E-1,-2.910614014E-2,-2.425930738E0,2.566581347E0
5.441709738E0,1.999203920E0,-1.106348038E-1,-2.318589687E0,3.063480784E0
5.451716769E0,2.984313965E0,-9.081172943E-2,-2.144707680E0,3.676159360E0
5.461715206E0,3.780524254E0,-6.782054901E-2,-1.342135429E0,4.012267535E0
5.471720675E0,3.988189697E0,-1.893997192E-2,-1.074876904E0,4.130541870E0
5.481711561E0,3.994843960E0,-8.527469635E-2,-3.782390356E-1,4.013616176E0
5.491711300E0,3.893152714E0,-4.619884491E-2,-2.913925648E-1,3.904315819E0
5.501712863E0,3.680838823E0,-1.024050713E0,-2.105604410E-1,3.826433065E0
5.511736300E0,2.672255516E0,-1.024376869E0,-1.404397488E-1,2.865313392E0
5.521717550E0,1.893109918E0,-9.967355728E-1,-1.024638414E-1,2.141925723E0
5.531713383E0,1.063220024E0,-9.547224045E-1,-8.845365047E-2,1.431696804E0
5.541711300E0,8.058865070E-1,-8.849554062E-1,-1.109910011E-1,1.202047476E0
5.551726717E0,-2.788039446E-1,1.378583908E-1,-1.342751980E-1,3.387719059E-1
5.561732498E0,-4.775584936E-1,1.793575287E-1,-1.485447884E-1,5.313160943E-1
5.571711040E0,-2.053606272E0,2.205181122E-1,-1.645812988E-1,2.071958967E0
5.581719477E0,-2.256584167E0,1.547698975E-1,-1.961462498E-1,2.270374237E0
5.591715988E0,-2.233623028E0,1.832590103E-1,-2.751715183E-1,2.257958162E0
5.601711300E0,-2.183270454E0,2.054090500E-1,-9.998023510E-1,2.410076243E0
5.611735519E0,-2.127246618E0,2.264451981E-1,-1.059245348E0,2.387143965E0
5.621719113E0,-2.036231041E0,2.401971817E-1,-1.135503292E0,2.343778843E0
5.631712863E0,-2.142621279E0,1.541395187E-1,-1.785643339E0,2.793404208E0
5.641712602E0,-1.995630860E0,1.581659317E-1,-1.822452068E0,2.707192371E0
5.651709998E0,7.905161381E-2,1.845588684E-1,-1.894224405E0,1.904835224E0
5.661714946E0,9.607002735E-1,1.984663010E-1,-1.851619244E0,2.095430197E0
5.671715988E0,1.163199544E0,1.146268845E-1,-1.762334824E0,2.114709562E0
5.681712863E0,1.980634809E0,1.770608902E0,-1.636197567E0,3.120114198E0
5.691712863E0,2.153059959E0,1.841981888E0,-1.466064692E0,3.190283709E0
5.701710258E0,2.279830217E0,1.919492722E0,-7.490777969E-1,3.072978307E0
5.711735779E0,2.994283199E0,1.974367142E0,-6.028840542E-1,3.636939190E0
5.721714165E0,3.001742840E0,2.022758484E0,-4.510905743E-1,3.647669758E0
5.731712081E0,2.987812281E0,2.022897720E0,-2.990324497E-1,3.620574239E0
5.741726717E0,2.948790550E0,2.008062363E0,-1.653718948E-1,3.571418209E0
5.751725519E0,2.885122061E0,1.976455688E0,-6.156969070E-2,3.497727437E0
5.761716821E0,2.797250271E0,1.948202133E0,2.760696411E-2,3.408938658E0
5.771720467E0,2.647489071E0,1.940893173E0,6.697223186E-1,3.350342173E0
5.781733175E0,1.770872712E0,1.977938652E0,7.181413174E-1,2.750265155E0
5.791711561E0,1.587527394E0,2.058141708E0,7.708714008E-1,2.711168242E0
5.801713644E0,6.045556068E-1,2.165769577E0,8.109354973E-1,2.390326698E0
5.811737602E0,4.303332567E-1,2.950647354E0,8.568453789E-1,3.102529697E0
5.821716248E0,-6.578907967E-1,2.986046791E0,8.885965347E-1,3.184163868E0
5.831711821E0,-1.974088788E0,3.005943298E0,1.624877214E0,3.946257419E0
5.841709998E0,-1.938162446E0,2.982060432E0,1.595036507E0,3.897858328E0
5.851712863E0,-3.048311710E0,2.953090668E0,1.558682680E0,4.521331715E0
5.861711040E0,-3.856411934E0,2.921751976E0,1.523102045E0,5.072315788E0
5.871719633E0,-3.866486549E0,2.905474663E0,1.520424843E0,5.069831650E0
5.881707394E0,-3.821445942E0,2.901899338E0,1.532892466E0,5.037283808E0
5.891710519E0,-3.666034698E0,2.913408279E0,1.583379269E0,4.943161754E0
5.901712342E0,-3.455131769E0,2.969951630E0,2.606718302E0,5.249145505E0
5.911742550E0,-2.489651203E0,3.598507881E0,2.389533043E0,4.985728658E0
5.921721144E0,-1.360005498E0,3.578886986E0,2.375848770E0,4.505852238E0
5.931721508E0,-1.189807296E0,3.525438309E0,2.362285137E0,4.407351556E0
5.941702811E0,-1.025346637E0,3.427844048E0,2.348582745E0,4.279870494E0
5.951710831E0,3.395056129E-1,3.276595116E0,2.332439423E0,4.036287065E0
5.961714946E0,5.040823221E-1,2.280862808E0,2.086933613E0,3.132367482E0
5.971715467E0,6.225205660E-1,2.124100685E0,2.044785023E0,3.013383707E0
5.981712342E0,6.746072769E-1,1.271183968E0,2.002856255E0,2.466259685E0
5.991711040E0,6.944507360E-1,1.139541626E0,1.963023663E0,2.373663591E0
6.001711300E0,6.261748672E-1,-2.955141068E-1,1.765737891E0,1.896642784E0
6.011733956E0,6.360781193E-1,-2.882871628E-1,1.731837869E0,1.867342300E0
6.021721196E0,6.686028838E-1,-2.795562744E-1,1.702941537E0,1.850727264E0
6.031725363E0,7.609527707E-1,-2.697505951E-1,1.677566409E0,1.861731334E0
6.041720415E0,1.445692301E0,-2.582597733E-1,5.724939108E-1,1.576221310E0
6.051721196E0,1.566375613E0,-3.457603455E-1,4.732940197E-1,1.672450300E0
6.061725102E0,2.348001003E0,-3.314352036E-1,3.442375660E-1,2.396133867E0
6.071720415E0,2.418812990E0,-1.452484131E0,-3.855212927E-1,2.847629382E0
6.081720415E0,2.484294653E0,-1.539586067E0,-5.237451792E-1,2.969234614E0
6.091737863E0,2.535341978E0,-2.163213730E0,-1.295254707E0,3.575631041E0
6.101711092E0,2.540966988E0,-2.275290966E0,-1.425220013E0,3.696581434E0
6.111758227E0,2.504565716E0,-3.093898773E0,-1.507809043E0,4.256588676E0
6.121709269E0,2.387027979E0,-3.201266289E0,-1.552900791E0,4.284566406E0
6.131725675E0,2.231539726E0,-3.960102081E0,-1.534344077E0,4.797539973E0
6.141721456E0,1.463279247E0,-4.046079159E0,-1.442759991E0,4.538006072E0
6.151712602E0,1.297974110E0,-4.670698166E0,-1.304722786E0,5.020205145E0
6.161720675E0,5.707623363E-1,-4.707516193E0,-4.713706970E-1,4.765361339E0
6.171721196E0,4.175101519E-1,-4.754606724E0,-3.022754192E-1,4.782464872E0
6.181720675E0,-1.019695044E0,-4.893178940E0,1.655975580E0,5.265475595E0
6.191721456E0,-1.249268413E0,-4.931910992E0,1.542933822E0,5.316489667E0
6.201721977E0,-1.252935529E0,-4.984012127E0,1.630197763E0,5.391453335E0
6.211767811E0,-1.256997466E0,-5.025119781E0,1.720128417E0,5.458086956E0
6.221720675E0,-1.235903263E0,-5.070753098E0,1.806128502E0,5.522870089E0
6.231720415E0,-1.214783430E0,-5.109885216E0,1.823220611E0,5.559744517E0
6.241723019E0,-1.389266968E0,-5.099086761E0,1.639674902E0,5.533469282E0
6.251721456E0,1.691498756E-1,-5.006695747E0,3.325373888E0,6.012796810E0
6.261710779E0,3.387892246E-1,-4.063660145E0,4.107492447E0,5.787884425E0
6.271743331E0,1.587370992E0,-2.971703529E0,5.068633556E0,6.086198704E0
6.281712758E0,2.683238029E0,-1.565782547E0,6.020196915E0,6.774526714E0
6.291719529E0,3.868932724E0,-6.806182861E-2,6.768408775E0,7.796449845E0
6.301732602E0,4.980693817E0,1.347092628E0,6.870405674E0,8.592115198E0
6.311739165E0,5.970243931E0,2.531677246E0,7.507680416E0,9.920608222E0
6.321712081E0,6.773289204E0,3.442649841E0,7.371518135E0,1.058624410E1
6.331712602E0,6.827362537E0,3.578123093E0,7.138731956E0,1.050606197E1
6.341714686E0,8.244705200E0,4.246566772E0,6.743442535E0,1.146658233E1
6.351715467E0,8.065815926E0,4.192173004E0,5.654258251E0,1.070524812E1
6.361709738E0,5.650220394E0,2.470654488E0,4.485300064E0,7.625420694E0
6.371711821E0,4.637008667E0,1.353571892E0,4.195944786E0,6.398434097E0
6.381711300E0,3.634974957E0,-5.184936523E-2,3.942510366E0,5.362752957E0
6.391712081E0,3.298995495E0,-1.076346397E0,3.741305590E0,5.102867856E0
6.401711821E0,2.160820484E0,-2.358314514E0,3.586175442E0,4.805356055E0
6.411733175E0,1.930665493E0,-3.615769386E0,3.429013968E0,5.344099016E0
6.421711821E0,1.136049271E0,-4.742670536E0,3.221035004E0,5.844535760E0
6.431712602E0,9.005303383E-1,-5.669191360E0,2.467215061E0,6.248026547E0
6.441710571E0,-1.169292927E-1,-5.737411499E0,2.213883877E0,6.150840998E0
6.451711769E0,-9.281282425E-1,-5.660766602E0,9.137504101E-1,5.808669414E0
6.461728331E0,-1.883293629E0,-4.850800991E0,-1.021710634E-1,5.204565695E0
6.471720936E0,-3.244719744E0,-3.468649387E0,-1.352173209E0,4.938431651E0
6.481709529E0,-3.452127218E0,-1.465592384E0,-1.607031703E0,4.080158608E0
6.491710311E0,-5.659307480E0,1.600330353E0,-1.659325004E0,6.110824646E0
6.501712602E0,-6.341464996E0,5.504528999E0,-1.683968067E0,8.564447808E0
6.511737081E0,-6.169331551E0,9.048756599E0,-1.703329563E0,1.108341010E1
6.521712081E0,-3.264568806E0,1.128296661E1,-1.676761150E0,1.186483346E1
6.531712342E0,-2.025108814E0,1.137592506E1,-3.040464401E0,1.194810280E1
6.541714686E0,6.815266609E-1,9.979688644E0,-2.983304024E0,1.043833162E1
6.551728488E0,1.669153452E0,7.880297661E0,-2.838938713E0,8.540769139E0
6.561714425E0,2.591401815E0,4.573517799E0,-3.558610439E0,6.347923809E0
6.571712081E0,2.776585579E0,8.868503571E-2,-5.542572498E0,6.199790514E0
6.581710258E0,2.013116121E0,-3.347226143E0,-6.887422562E0,7.917900537E0
6.591710779E0,1.867849827E-1,-5.823784351E0,-6.761595726E0,8.925834950E0
6.601713123E0,-2.344385862E0,-6.868938923E0,-6.648179054E0,9.842598830E0
6.611738123E0,-2.224408150E0,-6.865250587E0,-7.188145638E0,1.018572997E1
6.621710779E0,-3.503534317E0,-5.962223530E0,-7.145203114E0,9.943680891E0
6.631709529E0,-3.465079784E0,-4.606930733E0,-6.994642258E0,9.063973136E0
6.641704581E0,-3.353465796E0,-3.002530098E0,-6.620617867E0,8.005841665E0
6.651697342E0,-2.143541574E0,-1.274888992E0,-4.760337830E0,5.374097941E0
6.661710206E0,-2.108674765E0,7.851982117E-2,-3.218988895E0,3.848969230E0
6.671709477E0,-6.065127850E-1,1.479372978E0,-1.498082995E0,2.191039668E0
6.681712342E0,3.500106335E-1,1.623732567E0,5.291523933E-1,1.743277702E0
6.691716508E0,1.174160719E0,1.693399429E0,7.370148301E-1,2.188480267E0
6.701711821E0,1.294097900E0,1.654247284E0,1.976014137E0,2.883722477E0
6.711736821E0,1.300144434E0,1.492873192E0,2.093603134E0,2.881357319E0
6.721722498E0,-2.380288839E-1,1.403903961E-2,1.011910677E0,1.039624000E0
6.731712863E0,-1.978086233E0,-1.902750015E0,1.032231927E0,2.932368585E0
6.741716769E0,-1.906982660E0,-2.574139595E0,-5.496180058E-1,3.250362668E0
6.751708696E0,-3.025806904E0,-2.609762669E0,-1.549982548E0,4.285885498E0
6.761712342E0,-3.145833492E0,-2.538136005E0,-2.468247414E0,4.736100510E0
6.771711040E0,-3.767217159E0,-1.713657379E0,-3.247052193E0,5.260408224E0
6.781710779E0,-3.622264862E0,1.855564117E-2,-3.385213375E0,4.957904460E0
6.791710519E0,-1.731571198E0,3.137302399E-2,-3.473423719E0,3.881236325E0
6.801711300E0,-1.599041104E0,3.388977051E-2,-3.436504364E0,3.790467414E0
6.811867706E0,-2.329599857E-1,-5.698013306E-2,-3.237653255E0,3.246523632E0
6.821701769E0,8.587771654E-1,-4.285907745E-2,-2.072934151E0,2.244190525E0
6.831728227E0,1.853557944E0,-2.547359467E-2,-1.840502024E0,2.612235375E0
6.841718331E0,2.620993137E0,-6.637573242E-3,-8.918019533E-1,2.768566381E0
6.851710258E0,2.817558765E0,1.346206665E-2,-7.245930433E-1,2.909270304E0
6.861711561E0,2.979011536E0,-6.488037109E-2,-5.613539219E-1,3.032134136E0
6.871712863E0,3.029162645E0,-3.674602509E-2,-4.469152689E-1,3.062174041E0
6.881713383E0,2.958601475E0,-1.581720352E0,-4.201393127E-1,3.381076604E0
6.891711821E0,2.777299404E0,-1.597022057E0,-4.823116064E-1,3.239829612E0
6.901710258E0,1.763260007E0,-1.531480789E0,-1.197545290E0,2.624620731E0
6.911733956E0,8.433063030E-1,-1.460088730E0,-1.178866386E0,2.057364960E0
6.921713123E0,6.764088869E-1,-1.351381302E0,-1.149740934E0,1.898858768E0
6.931711040E0,-4.225838184E-2,-1.273914337E0,-1.121724486E0,1.697913229E0
6.941711040E0,-1.814336777E-1,-1.191474915E0,-1.103554845E0,1.634124826E0
6.951713383E0,-3.482294083E-1,-1.112068176E0,-1.094403625E0,1.598649006E0
6.961711821E0,-1.828800797E0,-1.014868736E0,-1.070770383E0,2.349685111E0
6.971715467E0,-1.818222523E0,1.741418839E-1,-1.002758265E0,2.083694477E0
6.981711300E0,-1.774806738E0,2.050199509E-1,-8.974397182E-1,1.999342438E0
6.991794217E0,-1.727681637E0,2.351255417E-1,-7.753348351E-1,1.908222200E0
7.001722550E0,-1.854920149E0,1.606864929E-1,-6.583766937E-1,1.974843988E0
7.011703071E0,-1.779876828E0,1.285516739E0,-5.614876747E-1,2.266226648E0
7.021710050E0,-1.701327801E0,1.389504433E0,-5.020058155E-1,2.253275104E0
7.031709008E0,1.731026173E-2,1.501451492E0,-4.925689697E-1,1.580278589E0
7.041711821E0,2.032457590E-1,2.205522537E0,-5.210902691E-1,2.275340319E0
7.051712602E0,1.391901493E0,2.242041588E0,-5.680987835E-1,2.699421508E0
7.061713123E0,2.226496935E0,2.270329475E0,-6.431071758E-1,3.244267462E0
7.071711561E0,3.015945435E0,2.293690681E0,-1.311316490E0,4.009550442E0
7.081712342E0,3.918689251E0,2.285677910E0,-1.344369650E0,4.731572541E0
7.091712081E0,3.967422962E0,2.256332397E0,-1.324040413E0,4.752321944E0
7.101715988E0,3.890703440E0,2.255201340E0,-1.243777990E0,4.665885771E0
7.111713644E0,3.082575560E0,2.316543579E0,-1.110662699E0,4.012756891E0
7.121711040E0,2.055592537E0,2.428790092E0,-3.812899590E-1,3.204662857E0
7.131711561E0,8.477500677E-1,3.162085533E0,-3.588764668E-1,3.293365667E0
7.141710779E0,-4.078980684E-1,3.260316849E0,-3.683257103E-1,3.306313751E0
7.151713904E0,-1.774437904E0,3.951828957E0,-3.865194321E-1,4.349135460E0
7.161711040E0,-1.778363466E0,4.075999260E0,-3.541359901E-1,4.461138743E0
7.171727654E0,-3.559286118E0,4.832346916E0,-2.770259380E-1,6.008064393E0
7.181713175E0,-3.708178997E0,4.871115685E0,-1.857359409E-1,6.124774063E0
7.191701561E0,-3.794165134E0,4.837357521E0,-9.550166130E-2,6.148563850E0
7.201710311E0,-3.784961462E0,4.730837822E0,5.949950218E-1,6.087756470E0
7.211717550E0,-3.673444748E0,3.976067543E0,6.678384542E-1,5.454293504E0
7.221712602E0,-3.472688437E0,3.808403969E0,1.298029542E0,5.314921115E0
7.231712602E0,-2.694145441E0,2.763199806E0,1.382797241E0,4.099490339E0
7.241710779E0,-2.406128883E0,2.579463959E0,2.297850132E0,4.209893793E0
7.251711300E0,-1.215040326E0,1.542530060E0,2.298688889E0,3.023192449E0
7.261719373E0,-1.004286885E0,1.348340988E0,2.338060617E0,2.879781766E0
7.271721196E0,-8.407549858E-1,1.248846054E0,2.317383766E0,2.763467556E0
7.281727186E0,-8.830800653E-1,1.141163826E0,2.096407890E0,2.544997313E0
7.291722238E0,-7.370559573E-1,-1.283521652E-1,2.052947283E0,2.185021352E0
7.301721196E0,-6.303200722E-1,-1.280260086E-1,2.012477875E0,2.112761522E0
7.311719633E0,-5.324609876E-1,-1.246919632E-1,1.979447484E0,2.053600529E0
7.321725102E0,-4.372377992E-1,-1.198329926E-1,7.819175720E-2,4.600552032E-1
7.331721196E0,-5.452605486E-1,-2.133483887E-1,-9.340631962E-2,5.929176514E-1
7.341725363E0,-4.555550218E-1,-2.056608200E-1,-2.482864857E-1,5.580975987E-1
7.351726248E0,-3.680766225E-1,-1.683370590E0,-3.686580658E-1,1.762136690E0
7.361716873E0,-2.873406410E-1,-1.695869446E0,-4.277037382E-1,1.772418774E0
7.371722654E0,-2.081604749E-1,-1.647917747E0,-4.290902615E-1,1.715541354E0
7.381710258E0,-3.299219012E-1,-1.542113304E0,-3.934844732E-1,1.625359017E0
7.391721456E0,-2.525201440E-1,-2.239637375E-1,-2.955346107E-1,4.486277800E-1
7.401727967E0,1.316453457E0,-2.005767822E-1,-1.755378246E-1,1.343165767E0
7.411717811E0,1.453336716E0,-1.771497726E-1,5.560300350E-1,1.566122298E0
7.421722498E0,2.209748983E0,-1.534500122E-1,6.029049158E-1,2.295654986E0
7.431720675E0,2.307565928E0,-2.294340134E-1,6.316282749E-1,2.403425629E0
7.441710831E0,2.418645382E0,-1.853637695E-1,5.908340216E-1,2.496655774E0
7.451720154E0,2.367985249E0,-1.300883293E0,5.472985506E-1,2.756662327E0
7.461724321E0,2.282020330E0,-1.448350906E0,4.795017242E-1,2.745042630E0
7.471721456E0,2.147410870E0,-2.492369652E0,4.199547768E-1,3.316570810E0
7.481720154E0,1.983585835E0,-2.608153343E0,3.738077879E-1,3.298000741E0
7.491725623E0,1.181258440E0,-3.412671089E0,3.430930376E-1,3.627589874E0
7.501720936E0,1.060978174E0,-3.491938591E0,3.255304098E-1,3.664052382E0
7.511710779E0,9.363029003E-1,-3.589005470E0,3.294169903E-1,3.723726486E0
7.521710258E0,8.173426986E-1,-4.378140450E0,3.635919094E-1,4.468597315E0
7.531722498E0,7.168127298E-1,-4.449849606E0,4.465497732E-1,4.529281257E0
7.541722446E0,6.036088467E-1,-4.543264866E0,5.596469641E-1,4.617229040E0
7.551723852E0,4.815829992E-1,-5.299614906E0,1.781654716E0,5.611785265E0
7.561712342E0,3.927947879E-1,-5.348935127E0,1.838822126E0,5.669802603E0
7.571707550E0,3.286163211E-1,-5.394480705E0,1.696521521E0,5.664503159E0
7.581713123E0,2.862510085E-1,-5.412220955E0,1.754516959E0,5.696701244E0
7.591712081E0,3.024430275E-1,-5.375529766E0,1.815116405E0,5.681763777E0
7.601711821E0,3.694385290E-1,-5.226755619E0,3.875159025E0,6.517078839E0
7.611711821E0,1.965665817E0,-2.642920971E0,5.834933758E0,6.700397400E0
7.621710779E0,2.935391426E0,-1.174965858E0,6.678267002E0,7.388932111E0
7.631715727E0,3.912483692E0,3.311538696E-2,6.787661552E0,7.834601114E0
7.641713383E0,4.814015388E0,1.643869400E0,7.608850002E0,9.152685350E0
7.651713904E0,5.617099762E0,2.667987823E0,7.547837257E0,9.779561137E0
7.661711040E0,5.691668510E0,2.803642273E0,7.416800499E0,9.760349895E0
7.671709477E0,6.376079559E0,3.422293663E0,7.181343079E0,1.019500725E1
7.681710779E0,6.258636475E0,3.325050354E0,6.834037304E0,9.845331698E0
7.691711300E0,6.028521538E0,2.421462059E0,5.922463894E0,8.791025481E0
7.701729790E0,5.056966305E0,1.469757080E0,5.569148540E0,7.664757631E0
7.711711665E0,4.120144844E0,-7.527732849E-2,5.245560169E0,6.670619289E0
7.721882758E0,3.160949707E0,-2.275848389E-2,4.958787441E0,5.880620196E0
7.731712654E0,2.177953005E0,-1.606007576E0,4.691195488E0,5.415722919E0
7.741709269E0,1.346321106E0,-2.453498840E0,4.460793495E0,5.266015162E0
7.751712081E0,1.068499565E0,-3.124759674E0,4.253709793E0,5.385151933E0
7.761713383E0,1.064496040E-1,-3.187435150E0,4.062862396E0,5.165067783E0
7.771711561E0,-1.104109287E-1,-3.127307892E0,3.879979610E0,4.984625061E0
7.781715727E0,-8.588945866E-1,-2.075098515E0,3.608712673E0,4.250475375E0
7.791711300E0,-1.645894527E0,2.623520851E0,2.059669971E0,3.719418079E0
7.801710519E0,-1.655369163E0,4.994403839E0,1.124477863E0,5.380405862E0
7.811712602E0,-1.555403709E0,6.512602806E0,2.900599241E-1,6.702045268E0
7.821711300E0,-8.017733097E-1,7.243782997E0,-1.710166693E0,7.485980408E0
7.831713904E0,-6.947753429E-1,7.279646873E0,-1.771604657E0,7.524264379E0
7.841711040E0,-5.687854290E-1,7.128232002E0,-4.038421631E0,8.212433111E0
7.851711300E0,-4.375224113E-1,5.184053421E0,-5.004794598E0,7.218989174E0
7.861711561E0,-2.890157700E-1,2.741982460E0,-5.154742241E0,5.845798961E0
7.871711561E0,-1.366035938E-1,2.035951614E-1,-6.454598427E0,6.459253237E0
7.881733436E0,-6.393742561E-2,-2.451780796E0,-7.477613449E0,7.869562882E0
7.891718279E0,-1.461923122E-1,-3.741663933E0,-7.504428387E0,8.386767350E0
7.901736665E0,-2.222284079E0,-3.843669415E0,-7.438538551E0,8.662805370E0
7.911698383E0,-2.121131420E0,-3.804730415E0,-7.228240013E0,8.439349840E0
7.921709529E0,-2.024344921E0,-2.827855110E0,-6.972498894E0,7.791692865E0
7.931709008E0,-1.948379397E0,-1.603851318E0,-6.698505878E0,7.158107455E0
7.941711561E0,-1.894670844E0,7.277107239E-2,-5.753785133E0,6.058144650E0
7.951712863E0,-2.039689541E0,1.079890251E0,-4.835841656E0,5.358344977E0
7.961712602E0,-1.349540949E-1,2.054305077E0,-3.783453703E0,4.307308194E0
7.971713644E0,1.824212313E0,2.881788254E0,-1.989413142E0,3.948445106E0
7.981713123E0,1.992827654E0,2.837595940E0,-1.646532416E0,3.838539015E0
7.991713123E0,2.850764275E0,2.688924789E0,2.708044648E-1,3.928168598E0
8.001712602E0,2.875830650E0,1.432907104E0,4.819881618E-1,3.248990195E0
8.011712602E0,2.814394951E0,-2.390003204E-2,6.547142267E-1,2.889643727E0
8.021711561E0,1.768139720E0,5.238533020E-3,7.899670601E-1,1.936593263E0
8.031709477E0,5.454581976E-1,-1.563250542E0,8.934586048E-1,1.881367901E0
8.041708696E0,-8.454289436E-1,-2.263352394E0,-5.225760937E-1,2.471962769E0
8.051709738E0,-2.034991980E0,-2.380825520E0,-6.217921972E-1,3.193140781E0
8.061720675E0,-3.091405869E0,-3.111437798E0,-1.223780751E0,4.553622156E0
8.071709269E0,-3.261101246E0,-3.142696381E0,-1.219879270E0,4.690354710E0
8.081853748E0,-4.040669441E0,-3.131175041E0,-1.246014476E0,5.261541480E0
8.091729946E0,-4.070304871E0,-3.045492172E0,-1.265583038E0,5.238712126E0
8.101713956E0,-3.988368988E0,-2.370878220E0,-1.271353602E0,4.810872135E0
8.111715988E0,-3.111514330E0,-1.663998604E0,-1.252147794E0,3.744100276E0
8.121713904E0,-1.925446987E0,1.292858124E-1,-1.206083059E0,2.275675123E0
8.131713123E0,-1.806714654E0,1.418781281E-1,-1.142984748E0,2.142606212E0
8.141712863E0,-8.723545074E-2,5.595588684E-2,-1.137028575E0,1.141742119E0
8.151715727E0,1.601379514E0,9.116363525E-2,-1.242655396E0,2.029019367E0
8.161712081E0,2.350562572E0,1.071710587E-1,-1.222552538E0,2.651653211E0
8.171715467E0,2.544677734E0,1.208515167E-1,-1.169824839E0,2.803298060E0
8.181712081E0,2.725342751E0,3.591442108E-2,-1.080014467E0,2.931759575E0
8.191713904E0,2.798276901E0,6.117153168E-2,-9.733278751E-1,2.963353291E0
8.201714686E0,2.791728735E0,9.163856506E-2,-8.739626408E-1,2.926765733E0
8.211708956E0,2.715846539E0,1.270322800E-1,-7.750976086E-1,2.827142714E0
8.221710779E0,2.556383610E0,1.662979126E-1,-6.802301407E-1,2.650559413E0
8.231711040E0,1.811374068E0,1.063013077E-1,-5.934963226E-1,1.909087182E0
8.241718852E0,1.613346696E0,1.461009979E-1,-5.382747650E-1,1.707036258E0
8.251709165E0,6.313505173E-1,1.854629517E-1,-5.111392736E-1,8.332246631E-1
8.261828331E0,4.405018091E-1,2.244968414E-1,-5.083204508E-1,7.091053210E-1
8.271713748E0,-4.622292519E-1,2.625370026E-1,-5.193263292E-1,7.431563733E-1
8.281707915E0,-6.203073263E-1,2.002820969E-1,-5.114288330E-1,8.285249234E-1
8.291712342E0,-2.115921021E0,2.376241684E-1,-5.015277863E-1,2.187491058E0
8.301711040E0,-2.098206282E0,2.698793411E-1,-5.087962151E-1,2.175816639E0
8.311714946E0,-2.074854612E0,3.007297516E-1,-5.365855694E-1,2.164112779E0
8.321714425E0,-2.012881756E0,3.230829239E-1,-5.713629723E-1,2.117198901E0
8.331711821E0,-2.080595970E0,1.429500580E0,-6.767373085E-1,2.613489025E0
8.341712602E0,-1.986436725E0,1.501651764E0,-7.005481720E-1,2.586823655E0
8.351712863E0,-1.897678375E-1,1.574666977E0,-7.060267925E-1,1.736105340E0
8.361709477E0,6.610577106E-1,1.647534370E0,-6.730427742E-1,1.898513464E0
8.371718592E0,1.637916088E0,2.304808617E0,-6.006944180E-1,2.890630667E0
8.381712342E0,2.576566219E0,2.313791275E0,-4.978537560E-1,3.498597134E0
8.391711300E0,3.366078854E0,2.298514366E0,-3.716998100E-1,4.092898226E0
8.401709738E0,3.565517902E0,2.255025864E0,-2.697076797E-1,4.227387111E0
8.411709998E0,3.691541195E0,2.214517593E0,-2.112779617E-1,4.310011942E0
8.421729790E0,3.750612259E0,2.167625427E0,-1.553180218E-1,4.334722136E0
8.431710363E0,3.705173731E0,2.158262253E0,-1.360690594E-1,4.290095933E0
8.441776821E0,3.514434576E0,2.208229065E0,-1.595196724E-1,4.153669765E0
8.451708488E0,2.294528008E0,2.305607796E0,-2.155942917E-1,3.259933586E0
8.461710311E0,1.187861681E0,3.102292061E0,-2.939522266E-1,3.334912190E0
8.471711040E0,-5.292415619E-2,3.237379074E0,-3.531470299E-1,3.257013519E0
8.481716769E0,-1.796735048E0,4.141395569E0,-3.119294643E-1,4.525120339E0
8.491713383E0,-1.794063449E0,4.216072083E0,-1.858136654E-1,4.585679250E0
8.501713383E0,-3.413247347E0,4.265722275E0,6.804895401E-1,5.505425505E0
8.511724321E0,-4.242390156E0,4.207878113E0,2.370072842E0,6.428169080E0
8.521718071E0,-4.296001434E0,4.073544502E0,2.396723270E0,6.386992686E0
8.531722238E0,-4.263986588E0,3.239205360E0,2.419341564E0,5.875988988E0
8.541723800E0,-4.096430779E0,3.123113632E0,2.444319487E0,5.701691121E0
8.551717706E0,-3.847386360E0,3.018794060E0,2.442222834E0,5.466255734E0
8.561723019E0,-2.694699764E0,2.952858925E0,2.240217447E0,4.582505522E0
8.571724321E0,-2.375592232E0,2.931327820E0,2.185944557E0,4.360559006E0
8.581719373E0,-1.028626919E0,2.926062584E0,2.135011435E0,3.765393659E0
8.591720675E0,-8.523400426E-1,2.871146202E0,2.085857153E0,3.649762201E0
8.601738175E0,6.965590119E-1,2.764644623E0,2.044076920E0,3.508091333E0
8.611723071E0,1.490892649E0,1.993726730E0,1.804809809E0,3.074905789E0
8.621815206E0,1.742102861E0,1.299227715E0,1.766859889E0,2.800840749E0
8.631709008E0,2.889044046E0,-1.951475143E-1,1.731622458E0,3.373896025E0
8.641709790E0,3.058920145E0,-1.887788773E-1,3.431986570E-1,3.083896113E0
8.651723540E0,3.862321615E0,-1.810302734E-1,2.052043676E-1,3.872003235E0
8.661722238E0,3.918819666E0,-1.373510361E0,5.349743366E-2,4.152895407E0
8.671721717E0,3.929102182E0,-2.092747688E0,-8.800327778E-2,4.452547745E0
8.681723279E0,3.864363194E0,-2.091963768E0,-2.016117573E-1,4.398893338E0
8.691722498E0,3.631173372E0,-1.980635643E0,-2.802488804E-1,4.145705856E0
8.701721977E0,2.494997263E0,-1.875219345E0,-2.750122547E-1,3.133223687E0
8.711723279E0,1.638853788E0,-1.225965500E0,-2.662981749E-1,2.063915663E0
8.721725363E0,8.066785336E-1,-1.942663193E-1,-2.410787344E-1,8.640535953E-1
8.731720675E0,5.528718233E-1,-1.625118256E-1,-2.040835619E-1,6.113325173E-1
8.741723540E0,-1.015750527E0,-1.296892166E-1,-1.476150751E-1,1.034581383E0
8.751723019E0,-1.265662551E0,-1.958875656E-1,-6.583786011E-2,1.282422807E0
8.761710779E0,-1.313590646E0,-1.612968445E-1,5.340480804E-2,1.324533552E0
8.771710519E0,-1.323327184E0,-1.244853020E0,1.475413442E0,2.340448397E0
8.781709633E0,-1.305474281E0,-2.153282166E0,1.533329368E0,2.948217450E0
8.791728436E0,-1.261577010E0,-2.250043869E0,1.591896653E0,3.031238842E0
8.801725727E0,-1.412643909E0,-3.003873825E0,1.450874925E0,3.622686685E0
8.811709790E0,-1.311280251E0,-3.100542068E0,1.507844925E0,3.688687210E0
8.821710779E0,-1.210384011E0,-3.752831459E0,1.560853362E0,4.240876871E0
8.831712081E0,-1.112527490E0,-3.843525887E0,1.565145016E0,4.296520403E0
8.841714946E0,-1.017287612E0,-3.966168880E0,1.570081949E0,4.385262478E0
8.851711821E0,-3.296828270E-2,-4.776219845E0,1.380288959E0,4.971776395E0
8.861712863E0,9.889984131E-2,-4.835068703E0,1.395747423E0,5.033466143E0
8.871712602E0,9.603859186E-1,-4.966895103E0,1.449622512E0,5.262489288E0
8.881722238E0,1.757137179E0,-5.013677120E0,2.518734694E0,5.879499451E0
8.891713123E0,1.885976911E0,-5.004248142E0,3.414987087E0,6.345198593E0
8.901711821E0,2.582411528E0,-4.903279305E0,4.396609306E0,7.073978416E0
8.911709998E0,2.657135010E0,-4.070000648E0,5.344643593E0,7.224298365E0
8.921710779E0,3.352002382E0,-3.349532127E0,6.156373024E0,7.768926197E0
8.931710258E0,3.411552668E0,-2.572990894E0,6.278376579E0,7.594536603E0
8.941709738E0,4.192671776E0,-1.790544510E0,6.950348854E0,8.312153479E0
8.951710258E0,4.196349621E0,-3.599834442E-2,6.812297821E0,8.001127897E0
8.961707029E0,4.739738464E0,-1.406764984E-2,6.554009914E0,8.088285638E0
8.971728175E0,4.695991516E0,8.095741272E-3,5.490231514E0,7.224613757E0
8.981723436E0,4.642771721E0,3.851318359E-2,5.119775772E0,6.911506093E0
8.991717081E0,4.565543175E0,1.504736900E0,4.012653351E0,6.261773274E0
9.001713904E0,4.407071114E0,1.546467781E0,3.713320255E0,5.966790236E0
9.011708436E0,4.208362579E0,1.528986931E0,3.452078819E0,5.653756699E0
9.021711040E0,3.914340734E0,1.448883057E0,3.246095181E0,5.287575949E0
9.031712863E0,2.680844069E0,1.819829941E-1,3.124826431E0,4.121235610E0
9.041711300E0,1.800224304E0,1.468782425E-1,3.066265821E0,3.558702973E0
9.051713383E0,2.965331078E-2,-1.359648705E0,3.685636759E0,3.928541999E0
9.061712602E0,-8.876004219E-1,-1.225709915E0,3.578089237E0,3.884960990E0
9.071713644E0,-1.824362278E0,3.713598251E-1,3.421682358E0,3.895396770E0
9.081714946E0,-3.104665041E0,3.097251892E0,3.266908884E0,5.468510579E0
9.091709998E0,-3.112595797E0,5.707782745E0,3.116343975E0,7.209621088E0
9.101710779E0,-3.071816206E0,7.374782562E0,2.875873566E0,8.490825720E0
9.111712342E0,-3.000344992E0,8.097876549E0,1.213065028E0,8.720619326E0
9.121709738E0,-1.722845197E0,8.099307060E0,-2.787007093E-1,8.285206365E0
9.131710779E0,-1.551756740E0,7.909105301E0,-1.841556311E0,8.267600939E0
9.141710102E0,-1.333275676E0,5.849431038E0,-3.065147400E0,6.737105913E0
9.151727758E0,-4.273550510E-1,3.217860222E0,-4.188269615E0,5.298948869E0
9.161742811E0,-2.292845249E-1,2.433729172E-1,-5.564470291E0,5.574507278E0
9.171709790E0,-8.935260773E-2,-3.125761032E0,-7.078395367E0,7.738349106E0
9.181720467E0,-9.612488747E-2,-4.940003395E0,-8.213821411E0,9.585391787E0
9.191711561E0,-9.445899725E-1,-5.109905720E0,-8.224728584E0,9.728799873E0
9.201710779E0,-9.974656105E-1,-5.133466721E0,-8.152103424E0,9.685257273E0
9.211713123E0,-1.970515728E0,-4.967644691E0,-8.044152260E0,9.657577936E0
9.221709998E0,-1.890652180E0,-3.165323257E0,-7.885174751E0,8.704586024E0
9.231711821E0,-1.983961701E0,2.983951569E-2,-7.517462254E0,7.774910492E0
9.241713644E0,-1.916190028E0,1.391970634E0,-6.152616024E0,6.592727084E0
9.251715206E0,-3.729158640E-1,2.220298767E0,-4.969833374E0,5.456009221E0
9.261715467E0,4.038170576E-1,2.323319435E0,-3.773430347E0,4.449680663E0
9.271711040E0,5.625849962E-1,2.408396721E0,-2.437510014E0,3.472510865E0
9.281711040E0,1.428840637E0,2.419638634E0,-1.094929099E0,3.015809413E0
9.291710779E0,1.521116734E0,2.315319061E0,6.311002374E-1,2.841264856E0
9.301710519E0,1.562412024E0,1.221836090E0,8.728102446E-1,2.166982345E0
9.311710519E0,1.469340801E0,8.470535278E-3,1.070153356E0,1.817763006E0
9.321730467E0,1.693868637E-1,-6.022548676E-2,1.024968147E0,1.040614588E0
9.331721248E0,-1.720085859E0,-1.456902504E0,1.133790851E0,2.523240370E0
9.341777811E0,-1.670844197E0,-1.580811501E0,1.198610902E0,2.593714214E0
9.351707446E0,-2.899460316E0,-2.348391056E0,1.209495544E0,3.922332233E0
9.361710258E0,-2.988251209E0,-2.403100014E0,-5.044637918E-1,3.867689062E0
9.371712863E0,-3.035427570E0,-2.416053295E0,-1.329797864E0,4.101157936E0
9.381711300E0,-3.034410477E0,-2.356833458E0,-2.062588215E0,4.360800504E0
9.391711300E0,-2.935225964E0,-2.209085464E0,-2.192109585E0,4.277961486E0
9.401715988E0,-1.504372716E0,-1.090641975E0,-2.851428509E0,3.403422061E0
9.411710779E0,-6.188607216E-2,-5.255985260E-2,-2.910653591E0,2.911785835E0
9.421712602E0,9.455442429E-1,-3.809070587E-2,-2.850883007E0,3.003837335E0
9.431711561E0,1.852866530E0,-1.945304871E-2,-2.690209389E0,3.266606704E0
9.441716561E0,2.630733728E0,3.403663635E-3,-1.919395089E0,3.256508720E0
9.451710779E0,2.838711262E0,2.765941620E-2,-1.699347615E0,3.308599249E0
9.461710258E0,3.680718899E0,-4.799652100E-2,-9.213724136E-1,3.794591204E0
9.471710519E0,3.715107679E0,-1.707172394E-2,-7.966383696E-1,3.799598558E0
9.481710519E0,3.674935818E0,1.824188232E-2,-7.054301500E-1,3.742073987E0
9.491711821E0,3.565792561E0,5.741691589E-2,-6.294851303E-1,3.621384378E0
9.501727967E0,3.398798466E0,-1.025187492E0,-5.768954754E-1,3.596616298E0
9.511711613E0,2.556049347E0,-1.008099556E0,-5.395963192E-1,2.800145919E0
9.521828644E0,2.344427347E0,-9.847965240E-1,-5.362228155E-1,2.598787927E0
9.531710311E0,1.368434668E0,-9.864645004E-1,-5.452495813E-1,1.772857229E0
9.541712081E0,1.187082767E0,-9.853906631E-1,-5.354304314E-1,1.633048071E0
9.551729113E0,4.013563395E-1,-9.870042801E-1,-4.900178909E-1,1.172766769E0
9.561712081E0,2.385281324E-1,-9.860391617E-1,-4.183185101E-1,1.097341913E0
9.571711300E0,-4.785631895E-1,-9.899110794E-1,-3.091735840E-1,1.142162412E0
9.581711040E0,-6.151473522E-1,-9.874973297E-1,-1.874408722E-1,1.178427478E0
9.591714686E0,-7.894576788E-1,-9.418334961E-1,-3.148388863E-2,1.229343319E0
9.601709217E0,-9.006686211E-1,-8.460397720E-1,2.778172493E-2,1.236025520E0
9.611712342E0,-1.976588964E0,2.471532822E-1,5.889534950E-2,1.992851560E0
9.621711040E0,-1.920765996E0,2.710666656E-1,4.499053955E-2,1.940320411E0
9.631714686E0,-1.841284275E0,2.894687653E-1,-2.079153061E-2,1.864015085E0
9.641712081E0,-1.760120988E0,3.073024750E-1,-7.631664276E-1,1.942905993E0
9.651711821E0,-1.876502156E0,2.249078751E-1,-8.347926140E-1,2.066088721E0
9.661710258E0,-3.485357761E-1,2.421379089E-1,-8.999562263E-1,9.950020922E-1
9.671712342E0,-1.466168165E-1,1.822625160E0,-9.230048656E-1,2.048266816E0
9.681710779E0,1.112854123E0,1.854854584E0,-8.927659988E-1,2.340077126E0
9.691716508E0,1.963317871E0,1.896800995E0,-7.966825962E-1,2.843795744E0
9.701725311E0,2.777889252E0,1.922754288E0,-6.529839039E-1,3.440936024E0
9.711695050E0,2.973632336E0,1.949364662E0,2.701001167E-1,3.565875198E0
9.721708488E0,3.995493889E0,1.958511353E0,3.672523499E-1,4.464819417E0
9.731731613E0,4.085268021E0,1.932572365E0,4.412219524E-1,4.540806928E0
9.741714425E0,4.089431286E0,1.920574188E0,5.035994053E-1,4.545950485E0
9.751714425E0,3.933689833E0,1.943085670E0,5.548512936E-1,4.422370132E0
9.761723279E0,2.976500511E0,2.011942863E0,5.980620384E-1,3.642135031E0
9.771723279E0,1.844358325E0,2.719719887E0,6.163761616E-1,3.343419427E0
9.781723019E0,-8.077653646E-1,4.182939529E0,6.648803949E-1,4.311790107E0
9.791721977E0,-1.962983608E0,4.341377258E0,7.577259541E-1,4.824418075E0
9.801721717E0,-3.570124149E0,5.342314720E0,2.242492914E0,6.805504205E0
9.811722498E0,-4.715331078E0,5.379378319E0,2.252205849E0,7.499632621E0
9.821760779E0,-5.532996178E0,5.349242210E0,2.257122278E0,8.020164581E0
9.831720415E0,-5.620326996E0,5.258705139E0,2.259268522E0,8.021617638E0
9.841719894E0,-5.590702057E0,4.545639992E0,2.058318138E0,7.493695082E0
9.851720415E0,-5.414880276E0,4.355725288E0,2.055911541E0,7.247071371E0
9.861718331E0,-4.461395741E0,3.287225723E0,2.004584074E0,5.893068998E0
9.871733852E0,-3.269032717E0,3.135241508E0,1.957291961E0,4.934298941E0
9.881715519E0,-1.259235978E0,2.996340752E0,1.913167000E0,3.771464055E0
9.891726040E0,-1.256832480E0,2.898837090E0,1.672166944E0,3.574776447E0
9.901721508E0,7.195090055E-1,2.837670326E0,1.634142160E0,3.352683506E0
9.911723540E0,1.889397144E0,2.753725052E0,1.595225930E0,3.701022696E0
9.921764425E0,2.887832880E0,2.611549377E0,1.559626341E0,4.194306047E0
9.931720415E0,3.163782835E0,1.696870804E0,1.530733585E0,3.902824319E0
9.941727446E0,4.043604851E0,1.550399780E0,1.303861380E0,4.522668921E0
9.951720675E0,4.055377960E0,-2.704620361E-1,1.278014779E0,4.260582341E0
9.961721196E0,3.826920033E0,-2.351875305E-1,1.295085788E0,4.046959020E0
9.971720936E0,2.785394669E0,-2.171297073E-1,-3.462949991E-1,2.815224502E0
9.981719373E0,2.557071686E0,-2.979440689E-1,-4.270728827E-1,2.609555043E0
9.991722498E0,1.303835154E0,-2.773733139E-1,-4.988321066E-1,1.423290390E0
1.000173422E1,5.510904193E-1,-1.530849457E0,-5.536891222E-1,1.718654227E0
1.001171260E1,3.352010250E-1,-1.582342148E0,-6.087555885E-1,1.728221562E0
1.002173682E1,-9.782769084E-1,-1.664950371E0,-6.788058877E-1,2.046915455E0
1.003171260E1,-1.201694727E0,-2.326844215E0,-7.804131508E-1,2.732639549E0
1.004171208E1,-1.217399716E0,-2.405318737E0,-8.262682557E-1,2.819634644E0
1.005177172E1,-1.226119637E0,-3.149145126E0,-8.468770981E-1,3.483918083E0
1.006171708E1,-1.193002701E0,-3.256409645E0,-8.314573765E-1,3.566339943E0
1.007172042E1,2.200480700E-1,-4.054805756E0,-7.862533331E-1,4.136189693E0
1.008170953E1,3.233410120E-1,-4.133232117E0,-7.377406359E-1,4.210987816E0
1.009170047E1,4.374521971E-1,-4.204462528E0,-6.644228697E-1,4.279056827E0
1.010171885E1,1.121050477E0,-4.258827209E0,-5.622736216E-1,4.439652576E0
1.011171234E1,1.128156066E0,-4.284627438E0,-4.146389961E-1,4.450021785E0
1.012174099E1,1.099434018E0,-4.274817467E0,1.305454850E0,4.602937312E0
1.013171573E1,1.010202646E0,-4.223271370E0,1.184449434E0,4.501049979E0
1.014171312E1,1.841309071E-1,-4.126875401E0,1.303086877E0,4.331632506E0
1.015171495E1,1.378614902E-1,-4.088562012E0,1.381565094E0,4.317877629E0
1.016171338E1,9.473311901E-2,-4.067790031E0,1.455991983E0,4.321550967E0
1.017171052E1,5.801284313E-2,-4.070176601E0,1.270519257E0,4.264261042E0
1.018171260E1,2.821373940E-2,-4.090407372E0,1.285596251E0,4.287771706E0
1.019171234E1,3.349113464E-2,-4.106645107E0,1.300632834E0,4.307818643E0
1.020171573E1,9.903502464E-2,-4.099830151E0,2.290918589E0,4.697523090E0
1.021171026E1,8.458452225E-1,-4.034643173E0,3.063835144E0,5.136232614E0
1.022173474E1,9.855061769E-1,-3.218016624E0,3.189566612E0,4.636829584E0
1.023183052E1,2.166182756E0,-2.206286907E0,4.205307484E0,5.219641816E0
1.024170375E1,3.017354727E0,-9.746465683E-1,4.309808731E0,5.350590321E0
1.025171026E1,3.919769287E0,5.690765381E-2,5.174754620E0,6.491988533E0
1.026171213E1,4.787527084E0,1.371518135E0,5.207721710E0,7.205681299E0
1.027171260E1,4.881136894E0,2.331718445E0,5.801765442E0,7.932395006E0
1.028171265E1,5.638381004E0,3.002891541E0,5.731260300E0,8.582309863E0
1.029171312E1,5.562507629E0,3.094347000E0,5.562072754E0,8.452995197E0
1.030171625E1,5.367741585E0,3.111961365E0,5.289386272E0,8.153193264E0
1.031171260E1,5.080838203E0,3.011026382E0,4.982358456E0,7.726907047E0
1.032173578E1,3.838628531E0,4.389476776E-2,4.065889359E0,5.591820099E0
1.033171364E1,2.545759678E0,9.538936615E-2,3.838130236E0,4.606651189E0
1.034171052E1,2.272160530E0,-1.459276199E0,3.629677057E0,4.524019898E0
1.035171573E1,1.117583990E0,-2.299721718E0,3.435443878E0,4.282521289E0
1.036171312E1,8.717875481E-1,-2.324469090E0,3.257344007E0,4.095541486E0
1.037171416E1,-1.510496140E-1,-2.203757763E0,3.044764042E0,3.761642239E0
1.038171208E1,-3.398005962E-1,-7.984037399E-1,2.160970449E0,2.328670492E0
1.039171156E1,-1.180909991E0,3.505048752E-1,1.958238125E0,2.313460315E0
1.040171573E1,-1.288012624E0,3.730913162E0,1.816865444E0,4.345076476E0
1.041171823E1,-1.315394282E0,5.983613968E0,1.706377864E0,6.359687386E0
1.042176187E1,-1.245917320E0,7.334431648E0,1.528242350E0,7.594848402E0
1.043174422E1,-1.150263309E0,7.451619148E0,5.407938957E-1,7.559245442E0
1.044170963E1,-1.032893300E0,7.380881310E0,-3.396228552E-1,7.460537592E0
1.045171781E1,-9.388949871E-1,6.212974548E0,-1.416642785E0,6.441230730E0
1.046171104E1,-8.180937767E-1,4.193236351E0,-1.596511602E0,4.560850559E0
1.047171260E1,-7.304687500E-1,1.584386826E0,-2.708092690E0,3.221433256E0
1.048171130E1,-7.011992931E-1,-1.431526184E0,-4.228453636E0,4.518934367E0
1.049171208E1,-1.377726436E0,-3.927130699E0,-5.913324356E0,7.231036620E0
1.050171677E1,-2.597855568E0,-5.492737293E0,-8.038412094E0,1.007646195E1
1.051171625E1,-2.478484631E0,-5.488123894E0,-8.080142021E0,1.007725583E1
1.052173526E1,-2.363392353E0,-4.621302605E0,-8.628380775E0,1.006931060E1
1.053171234E1,-2.272826195E0,-2.924609661E0,-8.456433296E0,9.232028199E0
1.054171416E1,-2.214136124E0,-9.458379745E-1,-7.558498859E0,7.932711595E0
1.055173505E1,-2.330865383E0,5.836868286E-2,-6.432610989E0,6.842135958E0
1.056171078E1,-1.068735361E0,2.074537277E0,-5.171138763E0,5.673321452E0
1.057171026E1,8.923864365E-2,2.888960838E0,-4.123523712E0,5.035623702E0
1.058171130E1,1.293943167E0,2.953485489E0,-2.912253857E0,4.344949709E0
1.059172015E1,2.304099321E0,2.964160919E0,-1.583411932E0,4.074594088E0
1.060170786E1,2.533276081E0,2.848749161E0,4.027721286E-1,3.833416866E0
1.061172474E1,3.256653070E0,1.610306740E0,6.608753800E-1,3.692645838E0
1.062178088E1,3.208127499E0,-3.810501099E-2,8.707146645E-1,3.324406423E0
1.063171292E1,2.131633759E0,-6.261825562E-3,1.041900992E0,2.372648176E0
1.064171260E1,8.876930475E-1,-1.702776909E0,1.169543862E0,2.248395204E0
1.065171859E1,-5.442143679E-1,-1.814769745E0,1.051414132E0,2.166801833E0
1.066171156E1,-1.817411304E0,-1.903986454E0,1.062951803E0,2.838664263E0
1.067171130E1,-2.893775702E0,-1.951843262E0,-7.376801968E-2,3.491285100E0
1.068171364E1,-3.697556973E0,-1.873008728E0,-1.407392621E0,4.377310047E0
1.069171208E1,-3.664960384E0,-1.723058701E0,-2.298477173E0,4.656593521E0
1.070171651E1,-3.548798084E0,4.352569580E-3,-2.355649710E0,4.259468552E0
1.071171182E1,-1.783185840E0,1.739978790E-2,-2.357443333E0,2.955942076E0
1.072171234E1,-1.664821982E0,2.232074738E-2,-2.315774202E0,2.852181727E0
1.073171104E1,-4.499244690E-1,3.226852417E-2,-2.184208393E0,2.230300336E0
1.074171078E1,3.483908176E-1,-5.197811127E-2,-1.433724642E0,1.476361824E0
1.075172120E1,5.798364878E-1,-3.463935852E-2,-1.303745747E0,1.427292265E0
1.076171104E1,1.731456637E0,-1.873493195E-2,-1.163228393E0,2.085999372E0
1.077171937E1,1.926759601E0,-1.678466797E-3,-1.029931784E0,2.184757390E0
1.078171000E1,2.101939917E0,1.665306091E-2,-9.275325537E-1,2.297552040E0
1.079173922E1,2.195797920E0,-1.168823242E0,-8.587778807E-1,2.631572862E0
1.080171786E1,2.230505943E0,-1.206770897E0,-7.940304279E-1,2.657430541E0
1.081171599E1,2.229104519E0,-1.232836723E0,-7.329387665E-1,2.650658895E0
1.082171208E1,2.164028168E0,-1.224636078E0,-6.981806755E-1,2.582674523E0
1.083171312E1,2.073211432E0,-1.185864449E0,-6.861163378E-1,2.485002165E0
1.084171260E1,1.944992065E0,-1.119943619E0,-7.014192343E-1,2.351437175E0
1.085172172E1,1.775556445E0,-1.033589363E0,-6.958595514E-1,2.169130742E0
1.086171260E1,1.042849541E0,-9.558153152E-1,-6.723586321E-1,1.566264413E0
1.087171573E1,8.176665306E-1,1.556100845E-1,-6.730535030E-1,1.070417709E0
1.088171078E1,1.134544611E-1,9.221553802E-2,-6.690596342E-1,6.848477308E-1
1.089171390E1,-6.063461304E-3,1.285877228E-1,-6.618990898E-1,6.743010997E-1
1.090171677E1,-1.442521811E-1,1.649742126E-1,-6.506342888E-1,6.865494595E-1
1.091171286E1,-2.939475775E-1,2.004604340E-1,-6.457134485E-1,7.372485480E-1
1.092171078E1,-1.742878437E0,2.277231216E-1,-6.624195576E-1,1.878372364E0
1.093171156E1,-1.901695728E0,1.544837952E-1,-7.177195549E-1,2.038487980E0
1.094171052E1,-1.856704116E0,1.804952621E-1,-7.866313457E-1,2.024528979E0
1.095171651E1,-1.786548138E0,2.019987106E-1,-1.452818155E0,2.311544574E0
1.096171969E1,-1.714751840E0,2.232475281E-1,-1.438764334E0,2.249501309E0
1.097172151E1,-1.640743136E0,2.441558838E-1,-1.417554379E0,2.181996918E0
1.098169942E1,-1.532727480E-1,1.650247574E-1,-1.384904623E0,1.403098899E0
1.099171187E1,-4.684805870E-3,1.863594055E-1,-1.322341204E0,1.335416802E0
1.100172276E1,8.839614391E-1,1.246581078E0,-1.246776342E0,1.972258466E0
1.101172458E1,1.028858662E0,1.315462112E0,-1.155057907E0,2.030553984E0
1.102172068E1,1.779979825E0,1.380494118E0,-1.036434650E0,2.479574353E0
1.103172380E1,1.870721936E0,1.432840347E0,-9.089436531E-1,2.525630731E0
1.104172198E1,1.952123284E0,1.489530563E0,-7.787518501E-1,2.576032038E0
1.105172015E1,1.915243149E0,2.198917389E0,-6.156346798E-1,2.980335562E0
1.106171937E1,1.791191101E0,2.322236061E0,-5.604193211E-1,2.985835846E0
1.107172198E1,9.065091610E-1,3.334325790E0,-5.263264179E-1,3.495211987E0
1.108172094E1,7.440294027E-1,4.092967033E0,-4.531826973E-1,4.184654519E0
1.109172120E1,-3.060297966E-1,4.881336212E0,-3.334476948E-1,4.902273434E0
1.110172146E1,-4.878481627E-1,5.034805298E0,5.602121353E-1,5.089312120E0
1.111172068E1,-1.603825212E0,5.754980087E0,6.936078072E-1,6.014411268E0
1.112172042E1,-1.776243567E0,5.712961197E0,1.494931459E0,6.166667408E0
1.113172042E1,-3.123893976E0,5.592377663E0,1.581079483E0,6.597970432E0
1.114172515E1,-3.226902008E0,4.605300903E0,2.628973484E0,6.207511141E0
1.115171771E1,-4.044229507E0,3.854075432E0,2.647642136E0,6.182208232E0
1.116171318E1,-4.029624462E0,3.026687622E0,2.638141394E0,5.688453329E0
1.117172385E1,-3.966854095E0,2.227320671E0,2.427031994E0,5.156294511E0
1.118172042E1,-3.835134506E0,2.030063629E0,2.392373323E0,4.955084776E0
1.119172276E1,-3.651701450E0,1.136180878E0,2.355235100E0,4.491432160E0
1.120171963E1,-2.779337406E0,1.050573349E0,2.289409637E0,3.750975509E0
1.121172120E1,-8.854684830E-1,9.504232407E-1,2.225416183E0,2.576787915E0
1.122171911E1,-9.203358293E-1,-1.224317551E-1,1.971062303E0,2.178782728E0
1.123172224E1,-7.242663503E-1,-1.082105637E-1,1.962381840E0,2.094567678E0
1.124172432E1,1.098806858E0,-1.113348007E-1,1.914801717E0,2.210483559E0
1.125171963E1,1.340414643E0,-1.109151840E-1,1.922794580E-1,1.358670300E0
1.126171052E1,2.298416376E0,-2.060508728E-1,9.260177612E-3,2.307652606E0
1.127171182E1,2.429087162E0,-2.001590729E-1,-6.842405796E-1,2.531543653E0
1.128171286E1,2.521903515E0,-1.918382645E-1,-7.839484215E-1,2.647899995E0
1.129171781E1,2.588180065E0,-1.824693680E-1,-8.617671728E-1,2.733973990E0
1.130171156E1,2.584685802E0,-1.702365875E-1,-8.966534138E-1,2.741088933E0
1.131171130E1,2.534067154E0,-2.566080093E-1,-8.767337799E-1,2.693697483E0
1.132172672E1,2.410247326E0,-2.332973480E-1,-2.431967258E-1,2.433693586E0
1.133170729E1,2.228942871E0,-2.091608047E-1,-1.610165834E-1,2.244517967E0
1.134172703E1,1.402631044E0,-1.845102310E-1,-8.700501919E-2,1.417387648E0
1.135170849E1,1.268612027E0,-1.596832275E-1,-2.674913406E-2,1.278902156E0
1.136171573E1,1.141037464E0,-2.343015671E-1,7.880687714E-3,1.164871591E0
1.137171156E1,1.014365792E0,-2.087125778E-1,2.956175804E-2,1.036037064E0
1.138171442E1,8.839046359E-1,-1.829299927E-1,4.503405094E-2,9.037581830E-1
1.139171677E1,7.698305845E-1,-1.578054428E-1,5.921375751E-2,7.880659590E-1
1.140171130E1,7.056587338E-1,-1.357202530E-1,5.584919453E-2,7.207588836E-1
1.141171000E1,6.393339038E-1,-1.614627838E0,4.135227203E-2,1.737089781E0
1.142171130E1,5.933619738E-1,-2.648427010E0,6.451082230E-2,2.714849112E0
1.143171156E1,5.348491073E-1,-2.758864403E0,1.290922165E-1,2.813194121E0
1.144172672E1,4.757374525E-1,-3.497791767E0,2.161059380E-1,3.536605031E0
1.145171390E1,4.159420133E-1,-3.576695442E0,3.066899776E-1,3.613836851E0
1.146171286E1,3.500545025E-1,-3.673781395E0,3.865885735E-1,3.710614318E0
1.147171156E1,2.709209919E-1,-4.339705944E0,1.454263449E0,4.584902185E0
1.148171052E1,2.107646465E-1,-4.354797840E0,1.499828577E0,4.610658491E0
1.149171963E1,1.813604832E-1,-4.360251904E0,1.549572229E0,4.630967759E0
1.150172958E1,1.845103502E-1,-4.358727455E0,1.397636771E0,4.581041109E0
1.151171031E1,2.171674967E-1,-4.360021591E0,1.446967363E0,4.598985165E0
1.152171703E1,2.749361992E-1,-4.354990005E0,1.493691802E0,4.612227560E0
1.153170745E1,3.512580395E-1,-4.339556694E0,1.503235936E0,4.605958401E0
1.154172094E1,9.563000202E-1,-4.299806595E0,2.548256874E0,5.088856412E0
1.155172588E1,1.009986758E0,-4.229265690E0,3.212990284E0,5.406483894E0
1.156171469E1,1.103111029E0,-4.093198776E0,4.016767502E0,5.839995833E0
1.157171208E1,2.046224594E0,-3.022108078E0,4.870831490E0,6.086474491E0
1.158171260E1,2.743700027E0,-2.280754566E0,5.629120827E0,6.664587948E0
1.159171781E1,4.522881985E0,-3.834819794E-2,6.455469131E0,7.882322864E0
1.160171052E1,5.373122692E0,-2.334880829E-2,6.369244576E0,8.332962804E0
1.161171234E1,6.016009331E0,1.367332458E0,6.213191032E0,8.755895678E0
1.162171521E1,6.022363663E0,1.519648552E0,5.961847305E0,8.609402947E0
1.163171677E1,5.973328590E0,2.291709900E0,5.626555920E0,8.520018793E0
1.164171625E1,5.807408333E0,2.283521652E0,4.585091114E0,7.743611767E0
1.165171078E1,5.481084347E0,2.190673828E0,4.274625301E0,7.287918695E0
1.166171182E1,3.868637562E0,1.120367050E0,3.994088411E0,5.672241281E0
1.167171286E1,2.488950729E0,1.019067764E-1,3.772082329E0,4.520383371E0
1.168175989E1,1.124182701E0,1.639156342E-1,3.607475281E0,3.782133390E0
1.169173166E1,-1.089351177E-1,-1.436292648E0,3.478463650E0,3.764905416E0
1.170169599E1,-1.133086443E0,-1.517543793E0,3.370914459E0,3.866508547E0
1.171170927E1,-2.810432196E0,-1.504479408E0,3.276392460E0,4.571294671E0
1.172171026E1,-2.870298862E0,-1.306544304E0,3.183738708E0,4.481279476E0
1.173171130E1,-2.896830320E0,3.901185989E-1,3.065423489E0,4.235639219E0
1.174172484E1,-3.074081182E0,2.708868980E0,2.910501719E0,5.025829934E0
1.175171156E1,-9.653687477E-1,5.269273758E0,2.701954126E0,5.999811568E0
1.176171182E1,1.294405460E-1,7.438484192E0,1.538844705E0,7.597094507E0
1.177171208E1,1.198793173E0,8.793342590E0,-1.471910238E0,8.995915669E0
1.178171078E1,1.261934042E0,8.635630608E0,-1.706715703E0,8.892663943E0
1.179171937E1,1.231784582E0,6.753652573E0,-3.320605755E0,7.625977898E0
1.180171078E1,5.466597080E-1,4.406558990E0,-4.186341763E0,6.102627002E0
1.181171260E1,-2.864396572E-1,1.404623985E0,-5.042169094E0,5.241992502E0
1.182171052E1,-1.359143734E0,-1.867155075E0,-6.029560566E0,6.456712816E0
1.183171338E1,-2.631815672E0,-4.586720467E0,-6.906084538E0,8.698187283E0
1.184171573E1,-2.535540104E0,-6.308375835E0,-6.907165527E0,9.691929886E0
1.185171182E1,-3.557918787E0,-7.073693275E0,-6.870158672E0,1.048308174E1
1.186179323E1,-3.562892199E0,-7.068821907E0,-6.787271976E0,1.042734409E1
1.187171838E1,-3.516790390E0,-6.126148224E0,-6.698971748E0,9.735179977E0
1.188169755E1,-3.411262751E0,-4.510864258E0,-7.121184826E0,9.093727686E0
1.189172510E1,-2.317639589E0,-2.360075474E0,-6.922677994E0,7.672345151E0
1.190170974E1,-2.198911190E0,1.088619232E-1,-6.616768360E0,6.973427054E0
1.191171208E1,-9.978859425E-1,1.795948029E0,-5.416451931E0,5.793026601E0
1.192171469E1,-1.134063005E-1,3.314775467E0,-4.177634716E0,5.334156841E0
1.193171260E1,7.364467382E-1,4.298600197E0,-2.885339737E0,5.229292767E0
1.194171937E1,1.548519611E0,4.370170593E0,-1.569909096E0,4.894989129E0
1.195171052E1,2.485390902E0,3.500690460E0,6.011834145E-1,4.335138190E0
1.196171495E1,2.494510174E0,2.182924271E0,8.241479993E-1,3.415693093E0
1.197171026E1,1.793897033E0,-4.948520660E-2,7.993771434E-1,1.964565898E0
1.198171338E1,9.129538536E-1,-2.149963379E-2,9.273491502E-1,1.301508133E0
1.199171677E1,-3.621852398E-2,-1.857869148E0,1.010002375E0,2.114969113E0
1.200171286E1,-1.688241124E0,-2.676473618E0,1.023152709E0,3.325734593E0
1.201171182E1,-1.644079685E0,-2.779735565E0,1.035784364E0,3.391574424E0
1.202171026E1,-2.884007931E0,-2.844800472E0,-7.568554282E-1,4.121070445E0
1.203171312E1,-2.995458126E0,-2.842128754E0,-8.473539352E-1,4.215266768E0
1.204181630E1,-3.084586620E0,-2.752482891E0,-9.243461490E-1,4.236183717E0
1.205171396E1,-3.111565828E0,-1.936001778E0,-9.738247991E-1,3.791870188E0
1.206171021E1,-3.028264046E0,-1.173439026E0,-1.001628518E0,3.398617655E0
1.207171031E1,-2.832482576E0,-1.366424561E-2,-1.030220628E0,3.014050232E0
1.208171083E1,-1.599786878E0,-5.895614624E-3,-1.075004220E0,1.927430125E0
1.209171859E1,-1.486337662E0,7.404327393E-3,-1.065307856E0,1.828697705E0
1.210171781E1,-1.305265427E-1,1.059321404E0,-1.050025821E0,1.497248556E0
1.211171547E1,6.650905609E-1,1.059436798E0,-1.029691696E0,1.620190351E0
1.212171260E1,8.922841549E-1,9.895820618E-1,-1.028106332E0,1.682987314E0
1.213171390E1,1.952412367E0,-2.033424377E-2,-1.108169675E0,2.245076293E0
1.214172094E1,2.111651421E0,-3.658294678E-3,-1.095788121E0,2.379041133E0
1.215171052E1,2.198142529E0,-1.032925606E0,-1.065391302E0,2.652135839E0
1.216171286E1,2.213230610E0,-1.090706825E0,-1.044194221E0,2.679248530E0
1.217171000E1,2.170491457E0,-1.149118423E0,-1.045578241E0,2.669220893E0
1.218171234E1,2.042941570E0,-1.204295158E0,-1.065866947E0,2.600001815E0
1.219171469E1,1.875361443E0,-1.235393524E0,-1.102252722E0,2.501627223E0
1.220170974E1,1.073727846E0,-1.245796204E0,-1.113555908E0,1.986178851E0
1.221170870E1,9.325889349E-1,-1.223433495E0,-1.108213782E0,1.895956071E0
1.222175713E1,2.353304625E-1,-1.161149025E0,-1.080239534E0,1.603298143E0
1.223171448E1,1.010613441E-1,-1.065232277E0,-1.030511618E0,1.485559623E0
1.224170406E1,-5.456078053E-2,-9.449892044E-1,-9.666821957E-1,1.352943437E0
1.225170875E1,-1.481627345E0,1.653232574E-1,-9.094003439E-1,1.746299045E0
1.226172198E1,-1.680553794E0,1.001377106E-1,-8.812248707E-1,1.900222589E0
1.227172406E1,-1.649545908E0,1.304883957E-1,-8.736346960E-1,1.871167151E0
1.228172224E1,-1.613964200E0,1.600046158E-1,-8.963698149E-1,1.853094914E0
1.229172588E1,-1.553467870E0,1.854200363E-1,-9.595571756E-1,1.835318225E0
1.230172432E1,-1.477962852E0,2.071943283E-1,-1.763164163E0,2.309989512E0
1.231172250E1,-1.510659456E0,1.414489746E-1,-2.502751112E0,2.926749551E0
1.232172146E1,-1.386197090E0,1.565618515E-1,-2.480440855E0,2.845811101E0
1.233172146E1,-1.263015628E0,1.564492226E0,-2.417397738E0,3.144305364E0
1.234173005E1,4.918133020E-1,1.634107590E0,-2.301997662E0,2.865550763E0
1.235172068E1,7.074655294E-1,1.710506439E0,-2.139146090E0,2.828831163E0
1.236172042E1,1.707914114E0,1.793994904E0,-1.148085356E0,2.730107749E0
1.237173031E1,1.885297179E0,1.882470131E0,-9.580316544E-1,2.831230103E0
1.238172198E1,2.045575380E0,1.945906639E0,-1.804089546E-2,2.823341417E0
1.239172172E1,2.177269220E0,1.994078636E0,1.412613392E-1,2.955808795E0
1.240175333E1,2.204489470E0,2.046604156E0,2.821040154E-1,3.021248926E0
1.241171265E1,2.193406343E0,2.102917671E0,3.832008839E-1,3.062700938E0
1.242170140E1,2.118320465E0,2.147409439E0,4.267847538E-1,3.046439581E0
1.243171292E1,2.030907154E0,2.180736542E0,4.028768539E-1,3.007075904E0
1.244171239E1,1.953811049E0,2.215872765E0,2.994561195E-1,2.969367558E0
1.245172432E1,1.883306384E0,2.235779762E0,1.719827652E-1,2.928332658E0
1.246172302E1,1.834141135E0,2.266742706E0,-6.416742802E-1,2.985622562E0
1.247172406E1,1.769669414E0,2.292594910E0,-7.482502460E-1,2.991253865E0
1.248172276E1,1.682063580E0,2.338430405E0,-8.734800816E-1,3.010076759E0
1.249172432E1,6.278284788E-1,2.508081436E0,-9.948167801E-1,2.770252970E0
1.250171156E1,4.363107681E-1,3.174456596E0,-9.397120476E-1,3.339251488E0
1.251171234E1,-1.248688579E0,3.148843765E0,-8.112056255E-1,3.483173092E0
1.252171338E1,-1.224381328E0,3.107199669E0,2.306656837E-1,3.347686675E0
1.253171026E1,-2.722805262E0,3.060120583E0,3.679530621E-1,4.112589930E0
1.254171469E1,-2.886378288E0,3.003255844E0,1.218549132E0,4.339998534E0
1.255172870E1,-3.673049450E0,2.932504654E0,1.317021847E0,4.881129209E0
1.256170974E1,-3.622228146E0,2.855007172E0,2.382120132E0,5.190963207E0
1.257171234E1,-3.480701923E0,2.799912453E0,2.416947842E0,5.079018851E0
1.258172422E1,-2.520238400E0,2.771327972E0,2.421439171E0,4.460406706E0
1.259171286E1,-1.106931329E0,2.797359467E0,2.221946239E0,3.739994926E0
1.260170073E1,-9.861322045E-1,2.855879784E0,2.194353580E0,3.734125560E0
1.261170927E1,-8.691021800E-1,2.918907166E0,2.164572239E0,3.736406110E0
1.262171521E1,2.817580700E-1,2.930631638E0,2.102119446E0,3.617581453E0
1.263171364E1,4.136209488E-1,2.865296364E0,2.041177988E0,3.542232787E0
1.264171182E1,5.287230611E-1,2.713803291E0,5.394902229E-1,2.816971083E0
1.265172432E1,6.191954613E-1,1.722979546E0,3.323197365E-1,1.860778853E0
1.266171000E1,6.866436005E-1,1.030915260E0,-5.799065828E-1,1.367683206E0
1.267171182E1,6.674138308E-1,-1.463470459E-1,-7.988409996E-1,1.051192476E0
1.268171547E1,6.797700524E-1,-2.388353348E-1,-9.021928310E-1,1.154591506E0
1.269171052E1,7.187775970E-1,-2.297735214E-1,-9.816849232E-1,1.238201273E0
1.270171703E1,7.883076668E-1,-2.135334015E-1,-9.834049940E-1,1.278323462E0
1.271171078E1,8.462708592E-1,-1.957187653E-1,-9.636095762E-1,1.297314001E0
1.272171130E1,8.994429111E-1,-1.731805801E-1,-9.158926010E-1,1.295317845E0
1.273173760E1,9.696146846E-1,-2.496700287E-1,-8.867559433E-1,1.337469201E0
1.274171260E1,1.055810928E0,-2.251892090E-1,-8.534163237E-1,1.376141823E0
1.275171859E1,1.687598944E0,-2.006616592E-1,-8.157386780E-1,1.885121982E0
1.276171390E1,1.732972503E0,-1.760931015E-1,-7.798488140E-1,1.908498532E0
1.277172328E1,1.779634714E0,-1.514635086E-1,-7.062263489E-1,1.920624004E0
1.278170094E1,1.797857285E0,-2.108778954E0,-6.145714521E-1,2.838474513E0
1.279170802E1,1.800318241E0,-2.252405167E0,-4.870460033E-1,2.924327036E0
1.280171651E1,1.773311138E0,-3.283352375E0,3.681159019E-1,3.749739261E0
1.281171026E1,1.705928802E0,-3.361231804E0,4.935922623E-1,3.801539904E0
1.282171286E1,1.607131243E0,-3.456944942E0,6.131571531E-1,3.861256384E0
1.283173500E1,1.472987175E0,-4.081476212E0,7.084029913E-1,4.396586640E0
1.284171234E1,6.011557579E-1,-4.127133846E0,1.745580196E0,4.521246759E0
1.285171703E1,4.538083673E-1,-4.166191101E0,1.780189872E0,4.553258866E0
1.286171442E1,-7.445197701E-1,-4.226825714E0,1.817770839E0,4.660971586E0
1.287171286E1,-9.497396946E-1,-4.302668095E0,1.652783751E0,4.706022986E0
1.288171442E1,-9.550127983E-1,-4.962522507E0,1.685539126E0,5.327262076E0
1.289171260E1,-9.607409239E-1,-5.004672527E0,1.688627124E0,5.368540937E0
1.290171781E1,-9.372822642E-1,-5.076913834E0,1.691595912E0,5.432775428E0
1.291171260E1,-9.108797908E-1,-5.158434868E0,1.695388198E0,5.505769103E0
1.292171026E1,-1.080183268E0,-5.218792915E0,1.500400305E0,5.536587077E0
1.293177276E1,3.695791364E-1,-5.245324135E0,3.239965439E0,6.176357346E0
1.294170896E1,5.388244390E-1,-5.203841209E0,3.362586975E0,6.219106549E0
1.295172901E1,1.641241431E0,-5.048429489E0,4.636849403E0,7.048452747E0
1.296170828E1,2.566044092E0,-3.720642567E0,5.444750786E0,7.076233074E0
1.297170901E1,3.684416294E0,-2.584439278E0,6.119932175E0,7.596566305E0
1.298171338E1,4.858805180E0,-1.312985420E0,6.210354805E0,7.993774158E0
1.299171234E1,6.001770496E0,8.094787598E-3,6.762324810E0,9.041590095E0
1.300171963E1,6.846164703E0,1.672554016E-2,6.587216377E0,9.500614216E0
1.301171234E1,6.869759083E0,1.848144531E0,6.318754196E0,9.515034559E0
1.302171078E1,8.472352982E0,2.590943336E0,5.227789879E0,1.028705689E1
1.303173422E1,7.254509926E0,2.556920052E0,4.886636257E0,9.112901202E0
1.304171364E1,6.145966530E0,1.873091698E0,4.553224087E0,7.874847724E0
1.305172146E1,5.041693211E0,1.047019958E-1,4.276413918E0,6.611909628E0
1.306171078E1,3.794154882E0,7.922363281E-2,4.079036713E0,5.571393736E0
1.307171130E1,2.739106894E0,-9.319028854E-1,3.962259531E0,4.906184888E0
1.308171000E1,2.382056952E0,-1.945078850E0,3.864520311E0,4.938830255E0
1.309171234E1,1.093172789E0,-2.727697372E0,3.682726860E0,4.711458036E0
1.310171651E1,7.651147842E-1,-2.752036095E0,3.429695368E0,4.463397094E0
1.311173630E1,-7.456853390E-1,-2.646717072E0,2.332033634E0,3.605487311E0
1.312170823E1,-1.897110462E0,-1.652028561E0,1.352129579E0,2.855955334E0
1.313174469E1,-3.314392328E0,5.656805038E-1,1.072314978E0,3.529171340E0
1.314170771E1,-3.298583746E0,2.954224586E0,1.785663366E-1,4.431702108E0
1.315171807E1,-4.478187084E0,5.876127243E0,1.499037743E-1,7.389553578E0
1.316171026E1,-4.526093006E0,8.206135750E0,8.195292950E-2,9.371920728E0
1.317171104E1,-4.417450905E0,9.303822517E0,-8.233547211E-2,1.029960024E1
1.318171156E1,-3.218871593E0,9.290394783E0,-1.923624992E0,1.001862778E1
1.319171338E1,-2.994516134E0,8.413326263E0,-1.885209084E0,9.127168180E0
1.320171859E1,-4.364712238E-1,4.583586693E0,-3.374477386E0,5.708491196E0
1.321171130E1,7.730810642E-1,1.465784073E0,-4.713811398E0,4.996618374E0
1.322171208E1,1.017563820E0,-1.621913910E0,-6.786065102E0,7.051008468E0
1.323173448E1,1.167673349E0,-4.022337914E0,-8.536609650E0,9.508752161E0
1.324171078E1,1.144708633E0,-5.183319092E0,-9.559498787E0,1.093440313E1
1.325171781E1,-1.787159443E-1,-5.253073692E0,-9.582980156E0,1.092978642E1
1.326171156E1,-8.819948435E-1,-5.177183151E0,-1.118417454E1,1.235584479E1
1.327171156E1,-1.911034822E0,-4.146718025E0,-1.100995350E1,1.191916107E1
1.328171182E1,-1.836639881E0,-3.111907005E0,-1.080887508E1,1.139688518E1
1.329172646E1,-1.789600492E0,-1.798057556E0,-8.717679024E0,9.079295592E0
1.330172021E1,-1.941051722E0,3.998088837E-2,-6.449152470E0,6.735046238E0
1.331175729E1,-1.890837431E0,4.853820801E-2,-4.041519165E0,4.462230307E0
1.332171031E1,-7.743883133E-1,1.965546608E0,-1.882958531E0,2.829944091E0
1.333173661E1,-1.356060505E-1,2.124013901E0,3.463124335E-1,2.156329370E0
1.334171104E1,-8.098065853E-2,2.855950356E0,6.403259039E-1,2.927973286E0
1.335171859E1,-8.416366577E-2,2.815508842E0,2.019044876E0,3.465647959E0
1.336171833E1,-1.510558128E-1,2.678554535E0,2.200914383E0,3.470085932E0
1.337171208E1,-1.694497228E0,1.348909378E0,2.118650675E0,3.029778547E0
1.338171234E1,-2.850784302E0,8.009052277E-2,-6.340062618E-1,2.921532058E0
1.339171234E1,-3.474757671E0,-1.495659828E0,-1.528003335E0,4.079918307E0
1.340171885E1,-3.478619337E0,-1.648253441E0,-1.656770945E0,4.190754331E0
1.341171755E1,-3.438733578E0,-2.360628128E0,-1.773049831E0,4.532235594E0
1.342171156E1,-3.320676565E0,-2.359270096E0,-1.887145996E0,4.489361675E0
1.343173083E1,-3.106853485E0,-2.294092655E0,-2.500996590E0,4.601128517E0
1.344172099E1,-1.168643117E0,-1.542908669E0,-2.553633213E0,3.204268478E0
1.345171677E1,-1.054298997E0,-3.958129883E-2,-2.596379757E0,2.802552568E0
1.346171130E1,-9.415432811E-1,-2.097606659E-2,-2.628294468E0,2.791930435E0
1.347171182E1,8.904650211E-1,-1.233100891E-3,-2.637164116E0,2.783444637E0
1.348172588E1,1.737561941E0,1.950454712E-2,-2.602101803E0,3.128967197E0
1.349170927E1,1.958876133E0,-5.840301514E-2,-2.532462120E0,3.202182226E0
1.350171568E1,3.000493050E0,-3.320598602E-2,-2.410142899E0,3.848746545E0
1.351172510E1,3.124441147E0,-6.981849670E-3,-2.279623270E0,3.867668998E0
1.352172146E1,3.220714092E0,2.046394348E-2,-2.130156994E0,3.861474700E0
1.353176338E1,3.226298332E0,5.241870880E-2,-1.968007326E0,3.779523976E0
1.354172692E1,3.173193216E0,-1.286220551E-2,-1.799722433E0,3.648057217E0
1.355172005E1,3.054792166E0,2.486228943E-2,-1.651148915E0,3.472559006E0
1.356172146E1,2.770778894E0,8.323001862E-2,-1.514795303E0,3.158915594E0
1.357172146E1,1.726141214E0,1.218929291E-1,-1.443903923E0,2.253725786E0
1.358172224E1,1.522234321E0,6.099414825E-2,-1.371425152E0,2.049810860E0
1.359172172E1,6.738529205E-1,9.923458099E-2,-1.302499771E0,1.469840438E0
1.360172015E1,5.131911039E-1,1.366357803E-1,-1.226727724E0,1.336748052E0
1.361171937E1,3.376542330E-1,1.736593246E-1,-1.138058186E0,1.199726792E0
1.362172224E1,-1.221974254E0,2.102098465E-1,-1.038463116E0,1.617348107E0
1.363175271E1,-1.434497714E0,1.459569931E-1,-9.336516857E-1,1.717787125E0
1.364172120E1,-1.409281015E0,1.764192581E-1,-8.527035713E-1,1.656592924E0
1.365170906E1,-1.378854036E0,2.057943344E-1,-7.986023426E-1,1.606659722E0
1.366173104E1,-1.319539070E0,2.307891846E-1,-8.018050194E-1,1.561197712E0
1.367171776E1,-1.257847548E0,2.549409866E-1,-8.564176559E-1,1.542927918E0
1.368170776E1,-1.392474055E0,1.785907745E-1,-1.490218639E0,2.047347126E0
1.369170979E1,-1.272395253E0,1.950635910E-1,-1.558239460E0,2.021175326E0
1.370171859E1,-1.155417085E0,2.122421265E-1,-2.192617416E0,2.487489999E0
1.371172276E1,5.238685608E-1,2.299461365E-1,-2.209920883E0,2.282775461E0
1.372172172E1,6.549751759E-1,2.478294373E-1,-2.159912348E0,2.270601960E0
1.373175323E1,8.143220544E-1,1.665391922E-1,-2.039914370E0,2.202749724E0
1.374172198E1,1.685287714E0,2.103605270E-1,-1.076912642E0,2.011016427E0
1.375171156E1,2.394725800E0,1.450093269E0,-1.717257500E-1,2.804812271E0
1.376171599E1,2.482029915E0,1.499894142E0,-3.758382797E-2,2.900270243E0
1.377171156E1,2.574688435E0,1.563667297E0,1.121363640E-1,3.014407158E0
1.378171286E1,3.169006824E0,1.624990463E0,8.678138256E-1,3.665555769E0
1.379171208E1,3.146261692E0,1.690946579E0,8.923463821E-1,3.681649771E0
1.380171755E1,3.099695683E0,1.767542839E0,8.567334414E-1,3.669647558E0
1.381171130E1,3.007125378E0,1.824567795E0,7.147966623E-1,3.589259665E0
1.382171078E1,2.888772011E0,1.858421326E0,-1.693544388E-1,3.439100824E0
1.383173401E1,2.752795696E0,1.882808685E0,-2.737417221E-1,3.346309493E0
1.384170677E1,2.588662624E0,1.910227776E0,-3.732481003E-1,3.238743349E0
1.385170026E1,1.821978688E0,1.953357697E0,-4.680969715E-1,2.711886319E0
1.386171031E1,1.672964215E0,2.010254860E0,-5.583374500E-1,2.674261501E0
1.387171651E1,9.310822487E-1,2.088718414E0,-6.648128033E-1,2.381519438E0
1.388171442E1,7.347700596E-1,2.747811317E0,-7.408232689E-1,2.939247045E0
1.389171338E1,-4.144556522E-1,2.787038803E0,-7.384388447E-1,2.912842376E0
1.390171989E1,-1.484684825E0,2.821216583E0,-6.476650238E-1,3.253155702E0
1.391171469E1,-1.457139254E0,2.811881065E0,9.571433067E-2,3.168452487E0
1.392171208E1,-4.273606300E0,2.722000122E0,8.889534473E-1,5.144242773E0
1.393171182E1,-4.408699989E0,2.668028831E0,9.550182819E-1,5.240903869E0
1.394171234E1,-5.231086731E0,2.623803139E0,2.400783539E0,6.325533408E0
1.395171937E1,-5.161886215E0,2.573657036E0,2.419676781E0,6.254887334E0
1.396171026E1,-4.989128590E0,2.569020271E0,2.223150015E0,6.036030585E0
1.397171442E1,-4.161126137E0,2.635915756E0,2.223880053E0,5.404504148E0
1.398171260E1,-3.257387638E0,3.445299149E0,2.204489231E0,5.228808011E0
1.399171078E1,-2.235068798E0,3.565238953E0,2.182858706E0,4.740393807E0
1.400171859E1,-6.729243994E-1,4.460178375E0,2.116695404E0,4.982611546E0
1.401183224E1,-6.939669251E-1,4.453708649E0,1.852875233E0,4.873423586E0
1.402170271E1,6.333535314E-1,4.378376007E0,5.977331400E-1,4.464145838E0
1.403172432E1,9.060236812E-1,4.208577156E0,3.477606773E-1,4.319020500E0
1.404170953E1,1.927892566E0,3.028826714E0,-7.161870003E-1,3.661077003E0
1.405171781E1,2.113934755E0,2.181311607E0,-8.993963003E-1,3.167925849E0
1.406171104E1,2.870594978E0,1.221649170E0,-1.072025657E0,3.298784812E0
1.407171521E1,2.977921247E0,-2.449464798E-1,-1.238417864E0,3.234453979E0
1.408171417E1,3.056431770E0,-2.350101471E-1,-1.291976213E0,3.326590969E0
1.409171234E1,3.662852764E0,-2.179365158E-1,-1.319611669E0,3.899405295E0
1.410171989E1,3.630884409E0,-2.760019302E-1,-1.237156630E0,3.845784079E0
1.411171286E1,3.511146545E0,-2.522315979E-1,-1.193632960E0,3.717059387E0
1.412171495E1,3.359833241E0,-2.270565033E-1,-1.167438626E0,3.564119387E0
1.413171234E1,3.173440933E0,-1.437436104E0,-1.129272461E0,3.662267904E0
1.414171417E1,2.364185810E0,-1.491281509E0,-1.063613057E0,2.990747034E0
1.415171703E1,2.193492413E0,-1.580073357E0,-9.584478140E-1,2.868215994E0
1.416171078E1,2.006681442E0,-2.415686607E0,-8.293930292E-1,3.248107910E0
1.417171026E1,1.315862656E0,-2.509343624E0,-3.342843056E-2,2.833622666E0
1.418171338E1,1.221314430E0,-3.256421566E0,8.894455433E-2,3.479051809E0
1.419182776E1,1.166129470E0,-3.330833435E0,1.576866865E0,3.865335486E0
1.420170344E1,1.104539871E0,-3.406116962E0,1.444662690E0,3.861177460E0
1.421169604E1,1.048752427E0,-3.481441498E0,1.511881471E0,3.937778833E0
1.422171838E1,9.629545212E-1,-3.545339108E0,1.576025605E0,3.997570200E0
1.423171026E1,8.414597511E-1,-3.601844788E0,1.617976069E0,4.037225154E0
1.424171078E1,7.017461061E-1,-3.656832695E0,1.658355117E0,4.076151942E0
1.425171755E1,-1.307466030E-1,-3.723711491E0,1.457625389E0,4.000974096E0
1.426171677E1,-2.470690012E-1,-3.795589447E0,1.457054257E0,4.073149819E0
1.427171338E1,-1.346860051E0,-3.866539955E0,1.458459377E0,4.346408515E0
1.428171182E1,-1.295311689E0,-4.536658287E0,1.499092937E0,4.950391946E0
1.429171182E1,-1.480519772E0,-4.603707790E0,1.301726460E0,5.008049120E0
1.430172146E1,-1.461280465E0,-4.680643559E0,1.306310415E0,5.074466634E0
1.431171521E1,-1.411092401E0,-4.740852356E0,1.312203884E0,5.117493709E0
1.432171156E1,-2.879508734E-1,-4.729029655E0,2.533360004E0,5.372573880E0
1.433171026E1,8.099889755E-1,-4.614776611E0,3.437141418E0,5.810867960E0
1.434171234E1,1.610344887E0,-3.569430351E0,4.478653908E0,5.949149898E0
1.435171599E1,2.557566166E0,-2.493585587E0,5.450362206E0,6.516560591E0
1.436171234E1,3.537685394E0,-1.329154015E0,6.229343414E0,7.286054331E0
1.437184140E1,4.513347626E0,6.586360931E-2,6.319006443E0,7.765596386E0
1.438169995E1,5.267661095E0,7.705211639E-2,6.842642307E0,8.635736459E0
1.439170755E1,5.331717968E0,1.924700737E0,6.687374592E0,8.766565368E0
1.440171890E1,5.927103519E0,2.075505257E0,6.422533035E0,8.982605902E0
1.441171208E1,5.831938744E0,2.804599762E0,5.493444443E0,8.488534690E0
1.442171417E1,5.668418407E0,2.787438393E0,4.580798626E0,7.802851792E0
1.443171000E1,5.429056644E0,2.682317734E0,3.662881374E0,7.077159348E0
1.444170849E1,4.567182541E0,1.572483063E0,3.314399242E0,5.858080034E0
1.445171729E1,4.296625137E0,1.019659042E-1,2.403275490E0,4.924136239E0
1.446171260E1,3.323354721E0,-1.315090179E0,2.208133221E0,4.201190439E0
1.447171495E1,3.109807014E0,-2.240902901E0,2.118375778E0,4.379504700E0
1.448171078E1,2.902783155E0,-3.069124699E0,2.075665951E0,4.706810555E0
1.449171182E1,2.096369267E0,-3.178965092E0,2.648583412E0,4.638488681E0
1.450171651E1,1.893337965E0,-3.152084351E0,2.547673941E0,4.473366396E0
1.451171130E1,8.953740597E-1,-2.209311485E0,2.345802784E0,3.344479428E0
1.452171599E1,-1.115348339E-1,4.905481339E-1,1.237999678E0,1.336308607E0
1.453171156E1,-1.306753874E0,3.631407738E0,1.057168007E0,4.001541208E0
1.454171234E1,-3.237694740E0,7.058949471E0,1.021998644E0,7.833001729E0
1.455255995E1,-3.240661144E0,9.221237183E0,9.578994513E-1,9.820930261E0
1.456171682E1,-3.217150927E0,1.011531639E1,1.207948923E-1,1.061528507E1
1.457170036E1,-3.188838959E0,1.011404800E1,-1.570630431E0,1.072051962E1
1.458170927E1,-3.328027248E0,9.201403618E0,-1.767059922E0,9.943042526E0
1.459171260E1,-3.193582296E0,7.282202721E0,-2.735654831E0,8.409117177E0
1.460171807E1,-3.016818523E0,4.213642120E0,-3.412956715E0,6.205179083E0
1.461171338E1,-2.787804842E0,3.158578873E-1,-4.770398617E0,5.534286314E0
1.462171286E1,-2.569387913E0,-3.442112923E0,-6.971770763E0,8.188741246E0
1.463171312E1,-2.564225435E0,-5.706179142E0,-8.895525932E0,1.087502249E1
1.464171338E1,-2.327074051E0,-6.470860481E0,-1.007505989E1,1.219812038E1
1.465171625E1,-2.139889717E0,-5.210074425E0,-9.980302811E0,1.145994973E1
1.466171208E1,-1.961237788E0,-3.561395645E0,-9.793731689E0,1.060411114E1
1.467171182E1,-2.025715113E0,-1.573515892E0,-9.481122971E0,9.821973669E0
1.468171338E1,-1.909103990E0,1.750659943E-2,-7.909545422E0,8.136700394E0
1.469171130E1,-7.609794140E-1,1.999550819E0,-6.349698067E0,6.700444663E0
1.470171599E1,3.625586033E-1,3.257624626E0,-4.754511833E0,5.774854952E0
1.471171234E1,1.623269677E0,3.977864265E0,-3.127124548E0,5.313879609E0
1.472171234E1,2.814567566E0,4.018316269E0,-1.508741498E0,5.132733884E0
1.473174068E1,3.890041828E0,3.947682381E0,6.867381334E-1,5.584642412E0
1.474171292E1,4.119830132E0,2.973408699E0,9.850981832E-1,5.175381922E0
1.475174765E1,4.197601318E0,1.845393181E0,1.215156198E0,4.743620706E0
1.476170953E1,4.052212715E0,-3.222465515E-3,2.331620216E0,4.675135410E0
1.477171370E1,2.495105267E0,-6.877899170E-2,2.460746050E0,3.505075172E0
1.478172224E1,9.469493628E-1,-1.419970512E0,2.492936373E0,3.021218481E0
1.479172250E1,-1.496896148E0,-1.580160141E0,2.348519325E0,3.202053586E0
1.480172901E1,-1.481166124E0,-2.459120750E0,1.293778062E0,3.148807652E0
1.481172250E1,-3.763140202E0,-2.515623569E0,1.273265839E0,4.702211396E0
1.482172120E1,-4.764911652E0,-2.487244129E0,-1.230019927E0,5.513956422E0
1.483171885E1,-4.823832512E0,-2.339172840E0,-2.045567751E0,5.738069109E0
1.484172068E1,-4.754536629E0,-1.164895058E0,-2.220671654E0,5.375312237E0
1.485172042E1,-3.813154221E0,2.805137634E-2,-2.993922234E0,4.848144215E0
1.486172146E1,-2.785711765E0,-6.619548798E-2,-3.038411617E0,4.122683233E0
1.487172068E1,-1.359432697E0,-6.634330750E-2,-3.025517225E0,3.317561329E0
1.488172510E1,-1.198204875E0,-5.875682831E-2,-2.918439865E0,3.155382470E0
1.489171885E1,9.991213083E-1,1.030326843E0,-2.222627640E0,2.645730602E0
1.490172015E1,2.108816147E0,9.792203903E-1,-2.017779350E0,3.078540502E0
1.491173771E1,3.015012026E0,-1.143426895E-1,-1.170055866E0,3.236109160E0
1.492171187E1,3.251140118E0,-9.343051910E-2,-1.018096447E0,3.408102361E0
1.493172062E1,3.925048828E0,-6.755447388E-2,-8.895031214E-1,4.025144434E0
1.494171005E1,3.991175175E0,-4.107093811E-2,-8.001842499E-1,4.070805931E0
1.495172094E1,3.931377172E0,-9.055137634E-3,-7.664500475E-1,4.005403119E0
1.496172250E1,3.772908926E0,-7.398700714E-2,-7.857747078E-1,3.854576207E0
1.497172172E1,2.936046600E0,-4.087734222E-2,-8.636600971E-1,3.060710597E0
1.498172406E1,2.713584423E0,-7.459640503E-3,-1.513009906E0,3.106894759E0
1.499172094E1,1.693183899E0,2.602195740E-2,-1.513298392E0,2.271039604E0
1.500171182E1,5.714955330E-1,-2.027225494E-2,-1.413693666E0,1.524974718E0
1.501171052E1,3.835448027E-1,1.336002350E-2,-1.304869890E0,1.360136220E0
1.502171364E1,-1.282684326E0,4.698848724E-2,-1.182946801E0,1.745522882E0
1.503171026E1,-1.309515834E0,8.047866821E-2,-4.840703011E-1,1.398439341E0
1.504171078E1,-1.328369617E0,1.131210327E-1,-4.231123924E-1,1.398708799E0
1.505172406E1,-1.508553863E0,4.066658020E-2,-3.720279932E-1,1.554282264E0
1.506171156E1,-1.482768655E0,6.723785400E-2,-3.398727179E-1,1.522707220E0
1.507171286E1,-1.422230363E0,8.876228333E-2,-3.574211597E-1,1.469138466E0
1.508171208E1,-1.358330965E0,1.096229553E-1,-4.197993279E-1,1.425942383E0
1.509171484E1,-1.238115549E0,1.216974258E-1,-5.204610825E-1,1.348562240E0
1.510172640E1,-1.318953633E0,3.456211090E-2,-1.359654665E0,1.894596008E0
1.511170161E1,-1.202862382E0,4.822254181E-2,-1.441175103E0,1.877814954E0
1.512170875E1,-1.088180304E0,6.232452393E-2,-1.521146774E0,1.871338619E0
1.513171469E1,-9.764111638E-1,7.699012756E-2,-1.565640688E0,1.846763928E0
1.514171234E1,1.583419442E-1,1.093914032E0,-1.544585705E0,1.899332799E0
1.515171859E1,1.178021312E0,1.170261383E0,-1.451618433E0,2.205548002E0
1.516171286E1,1.370131969E0,1.801573753E0,-1.273451805E0,2.597038525E0
1.517171390E1,2.471848965E0,1.904569626E0,-1.820876598E-1,3.125792488E0
1.518171000E1,3.259513855E0,1.944544792E0,6.803431511E-1,3.855976118E0
1.519171599E1,3.320187092E0,1.975150108E0,7.941507101E-1,3.944050662E0
1.520171911E1,3.317261934E0,1.999183655E0,8.742338419E-1,3.970547423E0
1.521170870E1,3.295685768E0,2.033651352E0,8.713269234E-1,3.969444937E0
1.522171130E1,3.223555565E0,2.082898140E0,7.561771870E-1,3.911723288E0
1.523171000E1,3.141146660E0,2.149477959E0,-4.156064987E-2,3.806413682E0
1.524171182E1,3.002121449E0,2.761672974E0,-2.158265114E-1,4.084868650E0
1.525171651E1,2.829688549E0,2.840668678E0,-1.162165880E0,4.174585651E0
1.526172068E1,2.015917301E0,3.468632698E0,-1.272611380E0,4.208904262E0
1.527171130E1,1.824431062E0,3.564680099E0,-1.356814384E0,4.228053711E0
1.528184885E1,8.173174858E-1,3.662417412E0,-1.369975567E0,3.994764352E0
1.529171239E1,4.910039902E-2,3.712809563E0,-1.290636063E0,3.931044027E0
1.530171239E1,-1.453534245E0,3.671494484E0,-4.551250935E-1,3.974892753E0
1.531171182E1,-1.460937977E0,3.522648811E0,-3.260269165E-1,3.827491080E0
1.532171651E1,-2.648375273E0,2.340430260E0,6.850503683E-1,3.600111025E0
1.533171104E1,-2.809384823E0,1.522924423E0,7.407531738E-1,3.280344059E0
1.534171234E1,-3.514875889E0,-6.343364716E-2,7.849042416E-1,3.602006526E0
1.535171859E1,-3.456287384E0,-3.271389008E-2,8.901438713E-1,3.569222435E0
1.536171442E1,-3.281006813E0,-2.755546570E-2,1.978653312E0,3.831557639E0
1.537171182E1,-2.496150970E0,-2.765560150E-2,1.967715025E0,3.178590398E0
1.538171417E1,-2.235248566E0,1.935029984E0,1.761453390E0,3.441423431E0
1.539171417E1,-1.040542126E0,2.866790771E0,1.756410837E0,3.519402829E0
1.540171599E1,-8.915514350E-1,3.691983223E0,1.750842452E0,4.182230669E0
1.541171286E1,-7.470424771E-1,3.782892227E0,1.744691610E0,4.232291918E0
1.542171052E1,-6.077219844E-1,3.821098328E0,1.706077218E0,4.228571616E0
1.543171182E1,-6.719008684E-1,3.754965782E0,1.469453216E0,4.087849258E0
1.544173427E1,-5.409095287E-1,3.588334084E0,1.112977266E-1,3.630580091E0
1.545171453E1,-4.467587769E-1,2.424812317E0,-7.115161419E-2,2.466651724E0
1.546180469E1,1.112895846E0,1.542034149E0,-2.507635355E-1,1.918147240E0
1.547170974E1,1.271751642E0,7.037611008E-1,-3.932712078E-1,1.505753688E0
1.548171187E1,2.178969622E0,-3.490066528E-1,-4.931569099E-1,2.261176241E0
1.549171390E1,2.323344231E0,-3.361930847E-1,-5.979702473E-1,2.422503379E0
1.550171937E1,2.446242571E0,-3.223781586E-1,-6.870875359E-1,2.561273057E0
1.551171156E1,2.502197504E0,-3.020219803E-1,-7.094391584E-1,2.618303562E0
1.552171442E1,2.517704487E0,-2.799863815E-1,-7.301779985E-1,2.636358884E0
1.553170901E1,2.371811152E0,-3.359460831E-1,-8.559774160E-1,2.543824924E0
1.554171963E1,1.590806246E0,-3.108577728E-1,-9.061956406E-1,1.857010395E0
1.555173948E1,1.400169253E0,-2.853841782E-1,-9.411168098E-1,1.711028614E0
1.556171000E1,5.058749914E-1,-2.595748901E-1,-9.333525896E-1,1.092902414E0
1.557171703E1,-6.533751488E-1,-2.201963425E0,-8.735753298E-1,2.457371739E0
1.558171078E1,-6.609715819E-1,-2.340868950E0,-7.682267427E-1,2.550827944E0
1.559171469E1,-6.669710875E-1,-3.373651981E0,-6.173332930E-1,3.493920222E0
1.560171625E1,-6.712796688E-1,-3.496572971E0,2.200037241E-1,3.567217484E0
1.561171104E1,-6.524993777E-1,-4.426451206E0,3.027555943E-1,4.484516325E0
1.562172927E1,-8.279981017E-1,-4.525653839E0,1.265718341E0,4.771704774E0
1.563171109E1,-7.731189728E-1,-5.224616051E0,1.330339670E0,5.446478629E0
1.564173057E1,-6.936588287E-1,-5.284235477E0,1.405050993E0,5.511667211E0
1.565171656E1,-6.145148277E-1,-5.373185635E0,1.479336739E0,5.606887686E0
1.566171213E1,-5.415918231E-1,-6.058966637E0,1.528507471E0,6.272219184E0
1.567171130E1,-6.694602370E-1,-6.116969109E0,1.376934290E0,6.305666985E0
1.568171213E1,-6.011652946E-1,-6.208989620E0,1.394763470E0,6.392051075E0
1.569171234E1,-5.337336063E-1,-6.282630920E0,1.414114118E0,6.461891486E0
1.570171963E1,-4.703620970E-1,-6.315394402E0,2.433194637E0,6.784237842E0
1.571171495E1,-5.689582825E-1,-5.125247955E0,4.959707260E0,7.154758992E0
1.572171182E1,1.371486187E0,-3.454989433E0,6.505165100E0,7.492336039E0
1.573171104E1,2.895367861E0,-1.464502335E0,7.884129047E0,8.525691349E0
1.574171234E1,4.425384998E0,-6.772613525E-2,8.785876274E0,9.837694909E0
1.575171729E1,5.799785137E0,2.110537529E0,8.818889618E0,1.076404619E1
1.576171130E1,6.858225822E0,3.348079681E0,8.743424416E0,1.160570418E1
1.577171182E1,7.563866138E0,4.106338501E0,8.527968407E0,1.211611869E1
1.578171651E1,7.573343754E0,4.109837532E0,8.112064362E0,1.183435205E1
1.579171052E1,7.436253548E0,3.962678909E0,6.351218224E0,1.055171379E1
1.580174489E1,7.078008175E0,2.412277222E0,4.714204788E0,8.839740262E0
1.581171864E1,5.263383865E0,-2.015542984E-1,3.285030603E0,6.207677498E0
1.582177656E1,3.851456642E0,-1.441755295E-1,2.849819899E0,4.793326434E0
1.583170875E1,2.595532417E0,-2.242398739E0,1.973744392E0,3.957373821E0
1.584171182E1,1.680814266E0,-3.562572479E0,1.769755960E0,4.318459844E0
1.585171781E1,1.401769519E0,-4.717515469E0,1.586210370E0,5.170684028E0
1.586171208E1,4.057364464E-1,-5.497430325E0,1.409665823E0,5.689773279E0
1.587171208E1,1.226400137E-1,-5.438917637E0,1.276608109E0,5.588076046E0
1.588171312E1,-2.073122263E0,-4.344806671E0,1.071595550E0,4.931885841E0
1.589171364E1,-3.488086700E0,1.484794617E0,-3.992024660E-1,3.811919004E0
1.590171625E1,-4.469245911E0,5.585069656E0,-3.869508505E-1,7.163581020E0
1.591171573E1,-4.487829208E0,8.629816055E0,-2.928519249E-1,9.731397556E0
1.592171182E1,-3.655228138E0,1.033479691E1,-3.783397675E-1,1.096867635E1
1.593171260E1,-2.123017311E0,1.099975395E1,-1.990425587E0,1.137820652E1
1.594171156E1,-1.989316344E0,1.085278034E1,-1.994930863E0,1.121249169E1
1.595171781E1,-9.270392656E-1,8.872022629E0,-2.120833397E0,9.168976040E0
1.596171078E1,2.866756916E-2,6.074509621E0,-2.014939070E0,6.400036595E0
1.597171182E1,1.260623217E0,1.894376755E0,-2.986589432E0,3.754670507E0
1.598170656E1,2.091513157E0,-2.399428368E0,-4.787951469E0,5.749448934E0
1.599171672E1,2.116560459E0,-5.431252480E0,-7.003184319E0,9.111691515E0
1.600173078E1,7.757124901E-1,-6.896445274E0,-8.279514313E0,1.080338116E1
1.601171114E1,-1.228504777E0,-7.000321388E0,-8.307737350E0,1.093307932E1
1.602171057E1,-1.089711785E0,-6.927131653E0,-9.038831711E0,1.143997830E1
1.603171286E1,-9.579871297E-1,-5.678351879E0,-8.995295525E0,1.068067231E1
1.604172172E1,-8.549829125E-1,-3.971704006E0,-8.884923935E0,9.769713497E0
1.605172172E1,-9.746506810E-1,-1.990570068E0,-8.580567360E0,8.862192131E0
1.606172745E1,-8.958271742E-1,-1.401462555E-1,-6.760345459E0,6.820881030E0
1.607172406E1,1.595298171E0,2.930421829E0,-3.428327560E0,4.783908257E0
1.608171989E1,2.426984549E0,3.781465530E0,-1.449111342E0,4.721192565E0
1.609172250E1,2.547008514E0,3.844675064E0,-6.563669443E-2,4.612275674E0
1.610172224E1,3.132797480E0,3.801397324E0,1.628979921E0,5.188315453E0
1.611172667E1,3.038552284E0,2.941428185E0,1.946806192E0,4.655626070E0
1.612172354E1,2.067918777E0,1.672748566E0,2.063361883E0,3.366279563E0
1.613172406E1,1.070952892E0,-1.217784882E-1,8.024039865E-1,1.343734444E0
1.614172536E1,-1.058679104E0,-1.972522736E-1,6.620042920E-1,1.264104263E0
1.615171937E1,-1.040287733E0,-2.016929626E0,-3.291181326E-1,2.293146840E0
1.616171057E1,-2.520124435E0,-2.152932167E0,-1.221237659E0,3.532359765E0
1.617170146E1,-3.273056030E0,-2.757021904E0,-1.950781226E0,4.703149259E0
1.618170588E1,-3.362361431E0,-2.704296112E0,-2.087708712E0,4.793455906E0
1.619171682E1,-3.362433672E0,-2.554579735E0,-2.188994884E0,4.756420547E0
1.620170901E1,-3.255576611E0,-1.331892967E0,-2.241194725E0,4.170811880E0
1.621172328E1,-2.177265644E0,-1.277265549E-1,-2.253079414E0,3.135788036E0
1.622172172E1,-8.858550191E-1,-1.121101379E-1,-2.188973665E0,2.364088303E0
1.623172354E1,-7.845057845E-1,-9.382820129E-2,-2.069031715E0,2.214756261E0
1.624171026E1,6.317616701E-1,-1.724681854E-1,-1.900900841E0,2.010545222E0
1.625171000E1,1.636680603E0,-1.304025650E-1,-1.098400593E0,1.975401753E0
1.626171052E1,2.614933729E0,-1.076459885E-1,-1.015310526E0,2.807191039E0
1.627171443E1,2.712960005E0,-8.412456512E-2,-9.510017633E-1,2.876044729E0
1.628170948E1,2.771486759E0,-1.790319443E0,-8.937535286E-1,3.418358953E0
1.629171885E1,2.735418320E0,-1.870362282E0,-8.479784727E-1,3.420502293E0
1.630171078E1,2.643324137E0,-1.902817726E0,-8.356617689E-1,3.362470577E0
1.631171312E1,2.518242359E0,-1.892259598E0,-8.747055531E-1,3.269143736E0
1.632171000E1,1.802082062E0,-1.844742775E0,-9.205824137E-1,2.738256314E0
1.633171026E1,1.633011103E0,-1.762078285E0,-9.234005213E-1,2.573774207E0
1.634183739E1,8.699023724E-1,-1.648849487E0,-8.989027739E-1,2.069652378E0
1.635170614E1,7.195228338E-1,-2.285766602E-2,-8.336443901E-1,1.101452927E0
1.636172234E1,5.564993620E-1,9.606361389E-3,-7.386389971E-1,9.248629034E-1
1.637170948E1,4.074147940E-1,4.214668274E-2,-6.626638174E-1,7.790291985E-1
1.638172015E1,2.903008461E-1,-2.461147308E-2,-6.202390194E-1,6.852567016E-1
1.639171859E1,2.060792446E-1,5.680084229E-3,-6.325466633E-1,6.652940701E-1
1.640171026E1,1.520639658E-1,3.533840179E-2,-6.987848282E-1,7.160115142E-1
1.641170948E1,1.594171524E-1,5.858707428E-2,-1.448101401E0,1.458027415E0
1.642171390E1,1.873977184E-1,8.082103729E-2,-1.538801312E0,1.552275563E0
1.643171104E1,3.235934973E-1,2.303218842E-2,-2.416600943E0,2.438278768E0
1.644172463E1,4.484497309E-1,4.533290863E-2,-2.469148397E0,2.509951402E0
1.645170948E1,1.295112252E0,6.750774384E-2,-2.448722839E0,2.770941462E0
1.646170922E1,1.401089787E0,8.968925476E-2,-2.315131903E0,2.707569479E0
1.647171156E1,2.090967178E0,1.429163933E0,-1.399345279E0,2.893582640E0
1.648170922E1,2.191171408E0,1.500085831E0,-1.195679665E0,2.912239602E0
1.649171703E1,2.311940193E0,1.562678337E0,-2.942061424E-1,2.805991500E0
1.650171052E1,2.997997046E0,1.598759651E0,-1.975080967E-1,3.403384809E0
1.651171260E1,2.974725008E0,1.644370079E0,-1.199533939E-1,3.401077865E0
1.652177140E1,2.898771524E0,1.734348297E0,-4.882216454E-2,3.378346337E0
1.653171656E1,2.734612942E0,2.439845085E0,1.028060913E-2,3.664840743E0
1.654170411E1,1.840424061E0,2.550834656E0,4.401111603E-2,3.145767815E0
1.655172396E1,1.685649872E0,3.313849449E0,3.120255470E-2,3.718062299E0
1.656171364E1,8.558151722E-1,3.413060188E0,3.581953049E-2,3.518903593E0
1.657171312E1,7.124952078E-1,4.107179642E0,8.558404446E-2,4.169400276E0
