"Time (s)","Linear Acceleration x (m/s^2)","Linear Acceleration y (m/s^2)","Linear Acceleration z (m/s^2)","Absolute acceleration (m/s^2)"
0.000000000E0,7.435643673E-2,-1.363070250E0,2.861662865E0,3.170584132E0
0.000000000E0,-2.920366526E-1,-1.452725530E0,2.336422920E0,2.766689165E0
0.000000000E0,-5.826064348E-1,-1.487764955E0,2.103369713E0,2.641408519E0
2.584915000E-3,-8.629224300E-1,-1.559451342E0,2.415453911E0,3.001822980E0
7.610748000E-3,-9.015712738E-1,-1.538907051E0,2.501820564E0,3.072486259E0
1.263658100E-2,-8.316685557E-1,-1.416831136E0,2.558735847E0,3.040758489E0
1.766152900E-2,-7.003806829E-1,-1.265115499E0,2.571826935E0,2.950482013E0
2.268647700E-2,-5.601111650E-1,-1.088724256E0,2.502964020E0,2.786372894E0
2.771147700E-2,-4.732501507E-1,-9.544479847E-1,2.347517967E0,2.577940509E0
3.273652900E-2,-4.111015797E-1,-8.477375507E-1,2.182167053E0,2.376871160E0
3.776168500E-2,-3.067157269E-1,-7.686433792E-1,1.997481346E0,2.162132954E0
4.278694600E-2,-2.512073517E-1,-6.884372234E-1,1.697956085E0,1.849352809E0
4.781236200E-2,-4.073099494E-1,-6.687450409E-1,1.058917999E0,1.316977089E0
5.283793500E-2,-2.583093047E-1,-6.425366402E-1,1.190423965E0,1.377202327E0
5.786366500E-2,-1.730247140E-1,-7.206861973E-1,1.307567596E0,1.503016688E0
6.288955000E-2,-3.824216127E-1,-8.317975998E-1,1.056839943E0,1.398228952E0
6.791559200E-2,-6.776970625E-1,-8.944755793E-1,6.254320145E-1,1.284727627E0
7.294179000E-2,-9.270408154E-1,-8.798955679E-1,1.619567871E-1,1.288352003E0
7.796809200E-2,-1.070077777E0,-8.697057962E-1,-1.373176575E-1,1.385752777E0
8.299449800E-2,-1.084057450E0,-8.169573545E-1,-2.532606125E-1,1.380847860E0
8.802095600E-2,-1.070105195E0,-8.279658556E-1,-3.150463104E-1,1.389210842E0
9.304746700E-2,-1.119363546E0,-8.606333733E-1,-3.847780228E-1,1.463461198E0
9.807397700E-2,-1.179190755E0,-8.726134300E-1,-4.910993576E-1,1.546972402E0
1.031004870E-1,-1.211413026E0,-8.643928766E-1,-6.578941345E-1,1.627120542E0
1.081264770E-1,-1.220891833E0,-8.411551714E-1,-8.277282715E-1,1.698014423E0
1.131523100E-1,-1.188457489E0,-8.130174875E-1,-1.000585556E0,1.753453761E0
1.181781440E-1,-1.099785328E0,-7.945085764E-1,-1.186081886E0,1.802099300E0
1.232039770E-1,-1.016782403E0,-7.715510130E-1,-1.403355598E0,1.896982962E0
1.282298100E-1,-9.677737951E-1,-7.009193897E-1,-1.652481079E0,2.039256685E0
1.332556440E-1,-9.140160084E-1,-6.207355261E-1,-1.938293457E0,2.231080317E0
1.382814770E-1,-8.597024679E-1,-5.209885836E-1,-2.193940163E0,2.413273891E0
1.433073100E-1,-7.564308643E-1,-4.155418873E-1,-2.424380779E0,2.573418908E0
1.483331440E-1,-6.512060165E-1,-3.180900812E-1,-2.730252743E0,2.824806297E0
1.533589770E-1,-5.336853266E-1,-2.229697704E-1,-3.111679077E0,3.164977445E0
1.583848100E-1,-4.224815667E-1,-1.435084343E-1,-3.444470882E0,3.473249920E0
1.634106440E-1,-3.887766004E-1,-5.485653877E-2,-3.705000401E0,3.725746161E0
1.684364770E-1,-3.599629402E-1,2.928423882E-2,-3.907884598E0,3.924537287E0
1.734623100E-1,-3.162557185E-1,1.046488285E-1,-3.962474823E0,3.976452663E0
1.784881440E-1,-2.860156894E-1,1.665084362E-1,-3.926368713E0,3.940292033E0
1.835139770E-1,-2.739720643E-1,2.244963646E-1,-3.871434212E0,3.887603653E0
1.885398100E-1,-2.704146504E-1,2.545409203E-1,-3.826357841E0,3.844337328E0
1.935656440E-1,-2.846327126E-1,2.949836254E-1,-3.829409599E0,3.851286668E0
1.985914770E-1,-3.066978753E-1,3.362474442E-1,-3.818371773E0,3.845398409E0
2.036173100E-1,-2.885762751E-1,3.783731461E-1,-3.783714294E0,3.813520207E0
2.086431440E-1,-2.686557174E-1,4.116380215E-1,-3.677600384E0,3.710305424E0
2.136689770E-1,-3.139828146E-1,4.453618526E-1,-3.547876835E0,3.589479408E0
2.186948100E-1,-3.914433420E-1,4.601142406E-1,-3.504477978E0,3.556163509E0
2.237206440E-1,-4.394215643E-1,4.655385017E-1,-3.528161526E0,3.585769256E0
2.287464770E-1,-4.012871385E-1,4.857616425E-1,-3.528005123E0,3.583826989E0
2.337723100E-1,-3.589925170E-1,5.544931889E-1,-3.451480389E0,3.514122251E0
2.387981440E-1,-3.124661446E-1,6.238498688E-1,-3.356079578E0,3.427840995E0
2.438239770E-1,-1.610796303E-1,6.700139046E-1,-3.203595638E0,3.276872029E0
2.488498100E-1,3.803922236E-2,7.071049213E-1,-2.917527199E0,3.002234053E0
2.538756440E-1,1.513276249E-1,7.539563179E-1,-2.569712162E0,2.682306987E0
2.589014770E-1,1.886597276E-1,7.523596287E-1,-2.250892162E0,2.380788321E0
2.639273100E-1,2.073677331E-1,6.873769760E-1,-2.023035049E0,2.146662362E0
2.689531440E-1,2.790217400E-1,6.017265320E-1,-1.833312988E0,1.949606233E0
2.739789770E-1,3.169419467E-1,5.190467834E-1,-1.695935249E0,1.801682028E0
2.790048100E-1,2.964766622E-1,4.535334110E-1,-1.491222382E0,1.586611218E0
2.840306440E-1,1.878697276E-1,3.904728889E-1,-1.310012817E0,1.379817993E0
2.890564770E-1,6.260183454E-2,3.346011639E-1,-1.171387672E0,1.219846715E0
2.940823100E-1,1.309307218E-1,2.953281403E-1,-1.027418137E0,1.077009560E0
2.991081440E-1,2.203130573E-1,3.106875420E-1,-8.493490219E-1,9.308374471E-1
3.041339770E-1,1.964276880E-1,3.469383717E-1,-6.945371628E-1,8.008320303E-1
3.091598100E-1,9.267160296E-2,3.755145073E-1,-5.677452087E-1,6.869743760E-1
3.141856440E-1,-1.899054646E-2,4.108326435E-1,-4.784879684E-1,6.309475713E-1
3.192114770E-1,-5.703289807E-2,4.532959461E-1,-4.507112503E-1,6.417714526E-1
3.242373100E-1,-8.755896986E-2,5.129711628E-1,-3.983764648E-1,6.553699679E-1
3.292631440E-1,-8.586856723E-2,5.856673717E-1,-3.742818832E-1,7.003332130E-1
3.342889770E-1,-4.137395322E-2,6.624579430E-1,-3.546724319E-1,7.525655215E-1
3.393148100E-1,3.733089566E-2,7.824976444E-1,-2.632999420E-1,8.264520668E-1
3.443406440E-1,1.030585170E-1,9.129555225E-1,-1.530914307E-1,9.314214031E-1
3.493664770E-1,1.419138908E-1,1.016149759E0,-6.731891632E-2,1.028217741E0
3.543923100E-1,2.307369411E-1,1.102566004E0,1.037473679E-1,1.131218301E0
3.594181440E-1,3.310320973E-1,1.162946939E0,3.981466293E-1,1.273007687E0
3.644439770E-1,4.044833183E-1,1.173696756E0,7.582225800E-1,1.454672579E0
3.694697580E-1,4.796038866E-1,1.106027365E0,1.174351692E0,1.682979001E0
3.744955400E-1,5.513452291E-1,9.549512863E-1,1.589155197E0,1.934251215E0
3.795213210E-1,6.339750290E-1,7.631611824E-1,2.017108917E0,2.247902959E0
3.845471020E-1,6.938698292E-1,6.162891388E-1,2.467906952E0,2.636632770E0
3.895728830E-1,6.973833442E-1,5.135819912E-1,2.893914223E0,3.020736585E0
3.945986650E-1,6.205599308E-1,4.446752071E-1,3.247570038E0,3.336096794E0
3.996244460E-1,4.488117397E-1,4.137234688E-1,3.486118317E0,3.539155267E0
4.046502270E-1,2.346332073E-1,4.777233601E-1,3.628952980E0,3.667774813E0
4.096760080E-1,-1.712048054E-2,6.555457115E-1,3.642760277E0,3.701315405E0
4.147017900E-1,-1.579667628E-1,9.377329350E-1,3.475015640E0,3.602780906E0
4.197275710E-1,-1.538290381E-1,1.238655329E0,3.154431343E0,3.392398487E0
4.247533520E-1,-5.616262555E-2,1.449166298E0,2.766957283E0,3.123986204E0
4.297791330E-1,-3.111559153E-2,1.560588837E0,2.403246880E0,2.865658958E0
4.348049150E-1,-1.115401387E-1,1.602487803E0,2.072586060E0,2.622216874E0
4.398306960E-1,-2.450209558E-1,1.570725918E0,1.674345970E0,2.308819960E0
4.448564770E-1,-3.129513562E-1,1.475762129E0,1.270568848E0,1.972348247E0
4.498822580E-1,-3.362246156E-1,1.361520767E0,9.567117691E-1,1.697669933E0
4.549080400E-1,-3.549874425E-1,1.242775679E0,9.334506989E-1,1.594314172E0
4.599338210E-1,-3.707453310E-1,1.071666956E0,1.138300896E0,1.606751721E0
4.649596020E-1,-2.886115313E-1,8.001925945E-1,1.480211258E0,1.707228799E0
4.699853830E-1,-7.067961991E-2,3.851938248E-1,1.896934509E0,1.936938415E0
4.750111650E-1,9.131601453E-2,-1.355783939E-1,2.402959824E0,2.408513240E0
4.800369460E-1,1.540864110E-1,-6.670277119E-1,3.007982254E0,3.084902888E0
4.850627270E-1,1.411700100E-1,-1.133603573E0,3.611777306E0,3.788129002E0
4.900885080E-1,-4.887148738E-3,-1.527006388E0,4.190812111E0,4.460345115E0
4.951143420E-1,-1.736783534E-1,-1.858233333E0,4.563796997E0,4.930663071E0
5.001401750E-1,-2.738537788E-1,-2.109032154E0,4.750346184E0,5.204690326E0
5.051660080E-1,-3.148690462E-1,-2.256348848E0,4.836986542E0,5.346652359E0
5.101918420E-1,-3.967334926E-1,-2.310839653E0,4.828884125E0,5.368007010E0
5.152176750E-1,-5.469907522E-1,-2.297347784E0,4.645052910E0,5.210904169E0
5.202435080E-1,-6.973705292E-1,-2.230767250E0,4.218841553E0,4.822994114E0
5.252693420E-1,-7.370262742E-1,-2.125676394E0,3.617515564E0,4.260061820E0
5.302951750E-1,-8.760264516E-1,-2.010728359E0,2.932096481E0,3.661644529E0
5.353210080E-1,-9.897189140E-1,-1.895102024E0,2.215164185E0,3.078621051E0
5.403468420E-1,-1.030525446E0,-1.763800502E0,1.538306236E0,2.557217429E0
5.453726750E-1,-1.018135309E0,-1.611306906E0,8.964824677E-1,2.106321501E0
5.503985080E-1,-1.024762273E0,-1.436996698E0,3.612127304E-1,1.801547075E0
5.554243420E-1,-9.838232398E-1,-1.216225505E0,-1.013154984E-1,1.567602461E0
5.604501750E-1,-8.573604822E-1,-9.962247610E-1,-5.248460770E-1,1.415271767E0
5.654760080E-1,-6.745310426E-1,-7.811251879E-1,-8.665561676E-1,1.347615775E0
5.705018420E-1,-4.930104911E-1,-5.609569550E-1,-1.045353889E0,1.284716624E0
5.755276750E-1,-3.319031596E-1,-3.593921661E-1,-1.166724205E0,1.265135490E0
5.805535080E-1,-1.717405915E-1,-2.192029953E-1,-1.278636932E0,1.308608875E0
5.855793420E-1,-2.563744783E-3,-9.696960449E-2,-1.357289314E0,1.360751248E0
5.906051750E-1,1.621157825E-1,-1.629090309E-2,-1.436307907E0,1.445519742E0
5.956310080E-1,3.088533878E-1,2.801609039E-2,-1.582777023E0,1.612872723E0
6.006568420E-1,3.669683635E-1,2.195000648E-2,-1.729782104E0,1.768415594E0
6.056826750E-1,3.369984925E-1,-1.503467560E-2,-1.872632980E0,1.902773845E0
6.107085080E-1,3.097916543E-1,-1.114308834E-1,-2.006594658E0,2.033423181E0
6.157343420E-1,3.281146288E-1,-2.192320824E-1,-2.126912117E0,2.163209899E0
6.207601750E-1,3.437225819E-1,-3.240642548E-1,-2.228800297E0,2.278313766E0
6.257860080E-1,2.703902721E-1,-4.165053368E-1,-2.340917110E0,2.393006584E0
6.308118420E-1,1.704230607E-1,-5.111100674E-1,-2.501439571E0,2.558803910E0
6.358376750E-1,1.108892262E-1,-5.600485802E-1,-2.657684803E0,2.718315534E0
6.408635080E-1,8.222860098E-2,-5.827558041E-1,-2.814352036E0,2.875229252E0
6.458893420E-1,1.134488583E-1,-5.981415510E-1,-3.052791595E0,3.112905473E0
6.509151750E-1,1.085664630E-1,-5.724462271E-1,-3.282075405E0,3.333391715E0
6.559410080E-1,6.761279702E-2,-5.534435511E-1,-3.344383717E0,3.390541800E0
6.609668420E-1,4.447371960E-1,-6.512753963E-1,-3.407219410E0,3.497298232E0
6.659926750E-1,6.634041667E-1,-8.278121948E-1,-3.551723003E0,3.706766031E0
6.710185080E-1,-1.948518604E-1,-4.762264490E-1,-3.351957798E0,3.391221013E0
6.760443420E-1,-2.726268768E-1,-1.864194870E-1,-3.128520966E0,3.145905445E0
6.810701750E-1,4.094675779E-1,-7.417917252E-2,-3.196805954E0,3.223776443E0
6.860960080E-1,2.346885204E0,-8.719825745E-2,-3.465452671E0,4.186267540E0
6.911218420E-1,1.739253879E0,1.515402794E-1,-3.307492733E0,3.739983515E0
6.961476750E-1,-1.834138483E-1,3.440527916E-1,-3.105791092E0,3.130167930E0
7.011735080E-1,-1.086849809E0,1.883969307E-1,-2.941572189E0,3.141589224E0
7.061993420E-1,-1.087063789E0,-1.764265299E-1,-2.814797401E0,3.022568182E0
7.112251750E-1,-6.860376596E-1,-3.863240480E-1,-2.811626434E0,2.919783750E0
7.162510080E-1,-9.226065874E-2,-6.849790812E-1,-2.769441605E0,2.854385253E0
7.212768420E-1,3.488307595E-1,-8.281770945E-1,-2.807976723E0,2.948269573E0
7.263026750E-1,2.492506206E-1,-7.871668339E-1,-3.305093288E0,3.406669802E0
7.313285080E-1,3.879672587E-1,-3.602472544E-1,-3.571873188E0,3.610896668E0
7.363543420E-1,1.878462315E0,2.647529840E-1,-2.824201584E0,3.402180095E0
7.413801750E-1,2.993644476E0,1.300132275E-1,-2.488257885E0,3.894898970E0
7.464060080E-1,2.999900579E0,2.057862282E-2,-2.754653454E0,4.072829805E0
7.514318420E-1,7.274342775E-1,-4.882178307E-1,-3.632249355E0,3.736409059E0
7.564576750E-1,5.493749380E-1,-8.349540234E-1,-4.106568336E0,4.226448219E0
7.614835080E-1,1.648516774E0,-7.141050100E-1,-4.264111996E0,4.627116233E0
7.665093420E-1,7.673839331E-1,-5.561137199E-1,-5.215003490E0,5.300415264E0
7.715351750E-1,-3.659212589E-1,-4.545487165E-1,-6.054904938E0,6.082958713E0
7.765610080E-1,-8.378897309E-1,-6.515307426E-1,-6.392225266E0,6.479745007E0
7.815868420E-1,-5.435103178E-1,-1.150507212E0,-6.500425339E0,6.623790448E0
7.866126750E-1,1.679484546E-1,-1.597023726E0,-6.250707626E0,6.453684009E0
7.916385080E-1,2.872627974E-1,-1.814603686E0,-5.782102585E0,6.066961081E0
7.966643420E-1,-2.328068316E-1,-1.989478350E0,-5.463201523E0,5.818830983E0
8.016901750E-1,-6.185631752E-1,-2.320011139E0,-5.236853123E0,5.761050487E0
8.067160080E-1,-2.298105508E-1,-2.439973116E0,-3.893369675E0,4.600500964E0
8.117418420E-1,1.076932311E0,-1.771340370E0,-1.940903664E0,2.839812836E0
8.167676750E-1,2.227977753E0,-5.719472170E-1,-5.224704742E-1,2.358809844E0
8.217935080E-1,2.745126009E0,2.675369978E-1,3.445253372E-1,2.779566613E0
8.268193420E-1,3.004032612E0,-3.749980927E-1,-1.898717880E-1,3.033296358E0
8.318451750E-1,3.730741262E0,-1.329019547E0,-1.134129524E0,4.119584093E0
8.368710080E-1,3.335852385E0,-1.936290264E0,-8.809337616E-1,3.956409409E0
8.418968420E-1,-1.078484535E0,-2.286213398E0,6.662137032E0,7.125585620E0
8.469226750E-1,-5.100876808E0,-2.193511009E0,3.575780869E0,6.604289786E0
8.519485080E-1,-5.500950336E0,-2.585296392E0,6.797139168E0,9.118405173E0
8.569743420E-1,-2.478168964E0,-1.472663641E0,1.002725124E1,1.043339960E1
8.620001750E-1,2.429049492E0,6.635951996E-2,4.227068901E0,4.875735484E0
8.670260080E-1,5.214828968E0,2.250452757E0,4.393730164E-1,5.696668098E0
8.720518420E-1,5.086094379E0,3.498425722E0,-2.061469078E0,6.508225052E0
8.770776750E-1,3.804178715E0,2.873257875E0,-3.818208694E0,6.107872309E0
8.821035080E-1,2.004223585E0,1.109498143E0,-3.885408401E0,4.510465248E0
8.871293420E-1,9.783693552E-1,-5.882755518E-1,-3.155084610E0,3.355269530E0
8.921551750E-1,1.038633466E0,-1.686019182E0,-2.972428322E0,3.571659319E0
8.971810080E-1,2.130035877E0,-1.983433962E0,-3.183764458E0,4.313631793E0
9.022068420E-1,3.503081083E0,-1.484823823E0,-3.391498089E0,5.096914571E0
9.072326750E-1,4.458829880E0,-6.295456886E-1,-3.217475891E0,5.534405368E0
9.122585080E-1,4.820138931E0,6.109988689E-2,-2.551653385E0,5.454210072E0
9.172843420E-1,4.739095688E0,2.182928324E-1,-1.585312843E0,5.001989255E0
9.223101750E-1,4.477767944E0,-2.403075695E-1,-5.907278061E-1,4.522953994E0
9.273360080E-1,3.963441133E0,-1.023986578E0,1.504917145E-1,4.096347384E0
9.323618420E-1,3.035600662E0,-1.784177542E0,3.711452484E-1,3.540608659E0
9.373876750E-1,1.885909677E0,-2.325455666E0,4.785919189E-1,3.032070182E0
9.424135080E-1,7.826508880E-1,-2.662768602E0,5.687675476E-1,2.833085873E0
9.474393420E-1,-7.226464152E-2,-2.853909016E0,5.700216293E-1,2.911175623E0
9.524651750E-1,-6.170042157E-1,-2.898666382E0,2.815999985E-1,2.976954745E0
9.574910080E-1,-7.568186522E-1,-2.824664116E0,-2.197189331E-1,2.932537851E0
9.625168420E-1,-2.484479547E-1,-2.528718472E0,-1.168395996E0,2.796657415E0
9.675426750E-1,4.294926524E-1,-2.121134281E0,-2.430714130E0,3.254542327E0
9.725685080E-1,9.140062332E-1,-1.567399383E0,-3.476432323E0,3.921444876E0
9.775943420E-1,1.378075838E0,-8.631350994E-1,-3.904826164E0,4.229865552E0
9.826201750E-1,2.186355114E0,-1.308965683E-1,-3.573496342E0,4.191319446E0
9.876460080E-1,3.106403828E0,4.942851067E-1,-2.569406986E0,4.061516314E0
9.926718420E-1,3.819432259E0,9.711210728E-1,-1.199050903E0,4.119327856E0
9.976976750E-1,4.192541122E0,1.224214077E0,1.598911285E-1,4.370545314E0
1.002723508E0,4.254511833E0,1.101981997E0,1.331130981E0,4.592074145E0
1.007749342E0,3.955737114E0,4.149873257E-1,1.990617752E0,4.447766814E0
1.012775175E0,3.578992367E0,-3.904763460E-1,1.443367004E0,3.878784146E0
1.017801008E0,2.881476879E0,-7.724981308E-1,1.907851219E0,3.541123923E0
1.022826842E0,2.271903276E0,-1.059655547E0,2.689724922E0,3.676823974E0
1.027852675E0,1.627963066E0,-1.505736113E0,1.733414650E0,2.814645863E0
1.032878508E0,8.197913170E-1,-2.105370522E0,2.246293068E0,3.185981071E0
1.037904342E0,3.046729565E-1,-2.725911856E0,3.818617821E0,4.701623455E0
1.042930175E0,-1.248252392E-1,-3.219851017E0,4.992928505E0,5.942420127E0
1.047956008E0,-8.588416576E-1,-3.556376934E0,6.559158325E0,7.510524870E0
1.052981842E0,-1.537676334E0,-3.671160936E0,7.120311737E0,8.157248946E0
1.058007675E0,-2.066402912E0,-3.713986397E0,6.315175056E0,7.612171303E0
1.063033508E0,-1.932269931E0,-3.764331818E0,5.783772469E0,7.166302051E0
1.068059342E0,-1.301633835E0,-3.807804346E0,5.273146629E0,6.633226964E0
1.073085175E0,-6.640276909E-1,-3.549647093E0,4.989110947E0,6.158908612E0
1.078111008E0,-2.828207016E-1,-2.896308422E0,5.218293190E0,5.974878563E0
1.083136842E0,1.118106842E-1,-2.153546810E0,5.806062698E0,6.193595850E0
1.088162675E0,6.234283447E-1,-1.442449450E0,6.295866966E0,6.489011032E0
1.093188508E0,1.044378281E0,-8.034491539E-1,6.289012909E0,6.425569228E0
1.098214342E0,1.236916065E0,-2.377188057E-1,5.775632858E0,5.911379407E0
1.103240175E0,1.329902172E0,2.164405435E-1,4.990527153E0,5.169221175E0
1.108266008E0,1.413292885E0,5.882121325E-1,4.001165390E0,4.284006859E0
1.113291842E0,1.399511814E0,8.730826974E-1,2.927899361E0,3.360580512E0
1.118317675E0,1.244082928E0,1.071534753E0,1.881494522E0,2.497188558E0
1.123343508E0,9.744863510E-1,1.165086508E0,7.860469818E-1,1.710239772E0
1.128369342E0,6.851482391E-1,1.150236368E0,-3.815946579E-1,1.392151678E0
1.133395175E0,3.697376251E-1,1.105270505E0,-1.472214222E0,1.877696332E0
1.138421008E0,-2.645635605E-2,1.089727163E0,-2.484647274E0,2.713241107E0
1.143446842E0,-3.284568787E-1,1.139569879E0,-3.408152103E0,3.608601417E0
1.148472675E0,-5.232114792E-1,1.190927744E0,-4.184677601E0,4.382189609E0
1.153498508E0,-5.823163986E-1,1.208464026E0,-4.575102806E0,4.767708399E0
1.158524342E0,-5.004906654E-1,1.227741718E0,-4.388914108E0,4.584801815E0
1.163550175E0,-2.426981926E-1,1.301798701E0,-3.661279678E0,3.893398407E0
1.168576008E0,6.901025772E-2,1.386270046E0,-2.375265121E0,2.751070965E0
1.173601842E0,2.167320251E-1,1.454479218E0,-7.625064850E-1,1.656471764E0
1.178627675E0,2.645325661E-1,1.426622629E0,8.836579323E-1,1.698846946E0
1.183653508E0,3.526086807E-1,1.256488442E0,2.327741146E0,2.668609175E0
1.188679342E0,2.809286118E-1,1.046822548E0,3.545241356E0,3.707221952E0
1.193705175E0,2.008438110E-3,8.048729897E-1,4.564765453E0,4.635181572E0
1.198731008E0,-4.406185150E-1,5.052303076E-1,5.352662563E0,5.394478553E0
1.203756842E0,-1.084334850E0,2.378281802E-1,5.879829884E0,5.983706524E0
1.208782675E0,-1.693363667E0,1.172404289E-1,6.150401115E0,6.380333824E0
1.213808508E0,-1.989722490E0,1.862622201E-1,6.054182529E0,6.375485495E0
1.218834342E0,-2.266106606E0,3.729027510E-1,5.606410503E0,6.058558768E0
1.223860175E0,-2.462159395E0,5.816374421E-1,4.813662529E0,5.438003121E0
1.228886008E0,-2.551357269E0,8.274938464E-1,3.778391838E0,4.633617902E0
1.233911842E0,-2.488139153E0,1.264482617E0,2.497745514E0,3.745461972E0
1.238937675E0,-2.318749189E0,1.817362428E0,1.084227562E0,3.139260009E0
1.243963508E0,-2.127343893E0,2.372887611E0,-2.448635101E-1,3.196270607E0
1.248989342E0,-2.246342421E0,2.913871288E0,-1.172338009E0,3.861486315E0
1.254015175E0,-1.729974031E0,3.393463612E0,-1.721641541E0,4.180006582E0
1.259041008E0,-1.264092922E0,3.873827934E0,-1.830420494E0,4.467092227E0
1.264066842E0,-1.098428249E0,4.191662788E0,-1.426909447E0,4.562088570E0
1.269092675E0,-1.060743332E0,4.187787533E0,-6.264915466E-1,4.365229947E0
1.274118508E0,-9.779219627E-1,4.023534775E0,2.827548981E-1,4.150314901E0
1.279144342E0,-1.059215546E0,3.764811039E0,1.098969460E0,4.062446751E0
1.284170175E0,-1.369708061E0,3.492612600E0,1.811632156E0,4.166107778E0
1.289196008E0,-1.830185890E0,3.130759001E0,2.361984253E0,4.327840330E0
1.294221842E0,-2.284289360E0,2.699446917E0,2.652633667E0,4.420572011E0
1.299247675E0,-2.561171293E0,2.339241028E0,2.834794998E0,4.479699729E0
1.304273508E0,-2.572176695E0,2.094738245E0,3.208161354E0,4.614793662E0
1.309299342E0,-2.373101234E0,1.914128542E0,3.670870781E0,4.771874876E0
1.314325175E0,-1.953936577E0,1.868537426E0,4.107611656E0,4.917496698E0
1.319351008E0,-1.349083900E0,1.942299366E0,4.480628967E0,5.066417881E0
1.324376842E0,-7.608594894E-1,2.090559721E0,4.771724701E0,5.264855528E0
1.329402675E0,-2.767992020E-1,2.216180325E0,4.872038841E0,5.359555532E0
1.334428508E0,1.875276566E-1,2.212775707E0,4.830857277E0,5.316834113E0
1.339454342E0,5.591535568E-1,2.180205345E0,4.711421013E0,5.221440032E0
1.344480175E0,6.797914505E-1,2.123163700E0,4.504749298E0,5.026202021E0
1.349506008E0,6.981091499E-1,1.985011101E0,4.220612526E0,4.716057204E0
1.354531842E0,5.721101761E-1,1.767038941E0,3.877869606E0,4.299722009E0
1.359557675E0,3.892140388E-1,1.523435473E0,3.509590149E0,3.845720508E0
1.364583508E0,2.841033936E-1,1.303393602E0,3.192116737E0,3.459647220E0
1.369609342E0,2.140665054E-1,1.160367012E0,3.035336494E0,3.256615376E0
1.374635175E0,2.313561440E-1,1.122984052E0,3.034628868E0,3.244008510E0
1.379661008E0,2.057733536E-1,1.080351114E0,3.027904510E0,3.221444851E0
1.384686842E0,9.343080521E-1,1.064829111E0,2.882330894E0,3.211638827E0
1.389712675E0,1.686933041E0,9.124283791E-1,2.623202324E0,3.249532130E0
1.394738508E0,1.873043060E0,8.757981062E-1,2.352287292E0,3.131863365E0
1.399764342E0,1.916167259E0,7.532122135E-1,2.185705185E0,3.002720893E0
1.404790175E0,1.947976112E0,6.111423373E-1,2.043065071E0,2.888290286E0
1.409816008E0,1.966512442E0,4.207010567E-1,1.800759315E0,2.699424878E0
1.414841842E0,1.822600842E0,1.394907832E-1,1.478281021E0,2.350882022E0
1.419867675E0,1.602623224E0,-1.833732128E-1,1.147218704E0,1.979428627E0
1.424893508E0,1.508196592E0,-5.129430890E-1,9.696903229E-1,1.864957612E0
1.429919342E0,1.439059258E0,-7.765417695E-1,1.069534302E0,1.953922283E0
1.434945175E0,1.239684582E0,-9.832386374E-1,1.344874382E0,2.076598946E0
1.439971008E0,1.092290640E0,-1.247440338E0,1.477665901E0,2.220968877E0
1.444996842E0,1.075720072E0,-1.401279926E0,1.443153381E0,2.281107360E0
1.450022675E0,1.118419647E0,-1.487387180E0,1.413517952E0,2.336924503E0
1.455048508E0,1.278275013E0,-1.610700727E0,1.264139175E0,2.413791974E0
1.460074342E0,1.441196918E0,-1.670598507E0,1.023513794E0,2.432185934E0
1.465100175E0,1.507903576E0,-1.580578089E0,6.482019424E-1,2.278632495E0
1.470126008E0,1.564652205E0,-1.358903170E0,1.669073105E-1,2.079089319E0
1.475151842E0,1.691914082E0,-1.100336194E0,-3.866119385E-1,2.054940824E0
1.480177675E0,1.845435858E0,-8.513791561E-1,-8.638525009E-1,2.208329938E0
1.485203508E0,1.885909081E0,-6.058382988E-1,-1.384576797E0,2.416763541E0
1.490229342E0,1.793230057E0,-3.479483128E-1,-1.943900585E0,2.667487872E0
1.495255175E0,1.627130747E0,-9.078681469E-2,-2.388188362E0,2.891235094E0
1.500281008E0,1.427727938E0,8.077561855E-2,-2.654766083E0,3.015412860E0
1.505306842E0,1.254539490E0,1.484072208E-1,-2.633274078E0,2.920620894E0
1.510332675E0,1.101170540E0,2.125930786E-2,-2.275882244E0,2.528372699E0
1.515358508E0,9.817471504E-1,-3.206083775E-1,-1.645055771E0,1.942376299E0
1.520384342E0,9.067232609E-1,-8.356513977E-1,-7.937879562E-1,1.466478656E0
1.525410175E0,8.063592911E-1,-1.487442970E0,6.212902069E-2,1.693092411E0
1.530436008E0,6.729869843E-1,-2.191894054E0,8.698911667E-1,2.452350234E0
1.535461842E0,4.460096359E-1,-2.845645905E0,1.595957756E0,3.292978343E0
1.540487675E0,1.362645626E-1,-3.421760321E0,2.187775612E0,4.063665076E0
1.545513508E0,-2.454099655E-1,-3.926612377E0,2.597581863E0,4.714439770E0
1.550539342E0,-6.547849178E-1,-4.328049660E0,2.835028648E0,5.215184041E0
1.555565175E0,-9.956133366E-1,-4.603165150E0,2.785513878E0,5.471696526E0
1.560591008E0,-1.296638250E0,-4.742807388E0,2.439851761E0,5.488931525E0
1.565616842E0,-1.591866255E0,-4.756229877E0,1.961072922E0,5.385310374E0
1.570642675E0,-1.914826512E0,-4.676375389E0,1.392267227E0,5.241512700E0
1.575668508E0,-2.207602024E0,-4.574105740E0,6.566905975E-1,5.121249121E0
1.580694342E0,-2.393548250E0,-4.434047699E0,-1.022138596E-1,5.039871020E0
1.585720175E0,-2.569005489E0,-4.260153770E0,-7.839593887E-1,5.036198137E0
1.590746008E0,-2.744496107E0,-4.094992161E0,-1.455380440E0,5.139975866E0
1.595771842E0,-2.858957767E0,-3.971529484E0,-2.178390980E0,5.356498223E0
1.600797675E0,-2.861395597E0,-3.850980997E0,-2.837743759E0,5.574085490E0
1.605823508E0,-2.696106434E0,-3.737806320E0,-3.380474567E0,5.715574712E0
1.610849342E0,-2.455483675E0,-3.631960392E0,-3.739354134E0,5.762230966E0
1.615875175E0,-2.159611225E0,-3.533695459E0,-3.895140648E0,5.685335954E0
1.620901008E0,-1.875657439E0,-3.453363895E0,-3.914824486E0,5.547040993E0
1.625926842E0,-1.712878108E0,-3.358036995E0,-3.927792072E0,5.444071494E0
1.630952675E0,-1.608002424E0,-3.248177290E0,-3.967707157E0,5.373921063E0
1.635978508E0,-1.508003592E0,-3.056939125E0,-4.120662212E0,5.347785403E0
1.641004342E0,-1.365341067E0,-2.783833027E0,-4.362540245E0,5.352162174E0
1.646030175E0,-1.180558920E0,-2.399327755E0,-4.578350067E0,5.302054543E0
1.651056008E0,-9.873213768E-1,-2.012751818E0,-4.729837418E0,5.234246400E0
1.656081842E0,-7.943465710E-1,-1.685429573E0,-4.769569397E0,5.120590938E0
1.661107675E0,-6.662836075E-1,-1.397432566E0,-4.636332512E0,4.887978190E0
1.666133508E0,-6.384007931E-1,-1.210128069E0,-4.479699135E0,4.683980130E0
1.671159342E0,-6.461038589E-1,-1.055619240E0,-4.238471985E0,4.415475846E0
1.676185175E0,-7.159562111E-1,-1.000086188E0,-3.913646221E0,4.102364248E0
1.681211008E0,-8.174281120E-1,-9.951467514E-1,-3.477374077E0,3.708185034E0
1.686236842E0,-9.920446873E-1,-1.054997563E0,-2.992554188E0,3.324538026E0
1.691262675E0,-1.233508587E0,-1.141510963E0,-2.469326019E0,2.986998779E0
1.696288508E0,-1.468585491E0,-1.255072594E0,-1.956024647E0,2.749178601E0
1.701314342E0,-1.605677605E0,-1.329327583E0,-1.491031647E0,2.562906117E0
1.706340175E0,-1.492064953E0,-1.341320157E0,-1.016594887E0,2.249191577E0
1.711366008E0,-1.195879221E0,-1.282943606E0,-5.225276947E-1,1.830056447E0
1.716391842E0,-8.806462288E-1,-1.194209576E0,-1.374120712E-1,1.490153136E0
1.721417675E0,-6.564676762E-1,-1.062496901E0,1.583127975E-1,1.258933046E0
1.726443508E0,-5.474474430E-1,-9.035331011E-1,2.742176056E-1,1.091451356E0
1.731469342E0,-4.926593304E-1,-7.327380180E-1,2.686042786E-1,9.229119554E-1
1.736495175E0,-5.035560131E-1,-5.557827950E-1,1.759424210E-1,7.703368802E-1
1.741521008E0,-6.106023788E-1,-4.162198305E-1,-4.598045349E-2,7.403974706E-1
1.746546842E0,-8.534338474E-1,-3.139730096E-1,-4.538717270E-1,1.016330619E0
1.751572675E0,-1.108947754E0,-2.436164320E-1,-9.609670639E-1,1.487471608E0
1.756598508E0,-1.321390986E0,-2.092617005E-1,-1.442296028E0,1.967252508E0
1.761624342E0,-1.520917773E0,-2.150577456E-1,-1.859239578E0,2.411682507E0
1.766650175E0,-1.728226423E0,-2.461424321E-1,-2.216250896E0,2.821191362E0
1.771676008E0,-1.935390472E0,-2.495523989E-1,-2.584730148E0,3.238648271E0
1.776701842E0,-1.933676004E0,-1.293898225E-1,-2.825579643E0,3.426331119E0
1.781727675E0,-3.601944447E-1,8.525769114E-1,5.110369682E0,5.193506110E0
1.786753508E0,1.665879250E0,2.434652328E0,1.177433968E0,3.176324351E0
1.791779342E0,1.529222488E0,1.882801414E0,-2.142773151E0,3.236501098E0
1.796805175E0,1.113456488E0,1.043156862E0,-3.072453022E0,3.430441540E0
1.801831008E0,-4.744503498E-1,-1.272943020E0,-4.207180977E0,4.421069875E0
1.806856842E0,-3.137607098E0,-4.033759594E0,-3.936005592E0,6.450421287E0
1.811882675E0,-5.664324284E0,-5.196829319E0,-3.116858959E0,8.294963191E0
1.816908508E0,-9.043706894E0,-4.597857952E0,-3.867380142E0,1.085751175E1
1.821934342E0,-1.332879639E1,-2.751010418E0,-4.039626122E0,1.419659997E1
1.826960175E0,-1.235365295E1,-1.510106683E0,-4.519409657E0,1.324077895E1
1.831986008E0,-9.532828331E0,-1.896357775E0,-4.595116615E0,1.075109694E1
1.837011842E0,-8.272324562E0,-3.093470097E0,-3.827268839E0,9.625429739E0
1.842037675E0,-7.350373268E0,-3.333238840E0,-4.889052391E0,9.436169860E0
1.847063508E0,-5.853659153E0,-3.145921469E0,-5.451735973E0,8.595555392E0
1.852089342E0,-4.150767326E0,-3.018907785E0,-5.264590263E0,7.352454301E0
1.857115175E0,-2.853965044E0,-3.018545151E0,-4.358318329E0,6.020935970E0
1.862141008E0,-1.819058418E0,-2.866799593E0,-2.892280102E0,4.460134261E0
1.867166842E0,-8.839640617E-1,-2.315360785E0,-1.182254314E0,2.745908463E0
1.872192675E0,-1.028699875E-1,-1.599568963E0,6.293129921E-1,1.721986627E0
1.877218508E0,8.583769798E-1,-1.026573181E0,2.303493500E0,2.663971817E0
1.882244342E0,2.157601357E0,-5.916873217E-1,3.108118057E0,3.829586839E0
1.887270175E0,3.266324997E0,-1.925199330E-1,3.198785782E0,4.575824886E0
1.892296008E0,3.946733952E0,9.389200807E-2,3.062494278E0,4.996438311E0
1.897321842E0,4.174443722E0,3.255929351E-1,2.982105255E0,5.140519711E0
1.902347675E0,4.138842583E0,7.902460098E-1,2.863892078E0,5.094740868E0
1.907373508E0,5.948672771E0,2.147305965E0,1.923779964E0,6.610488636E0
1.912399342E0,7.757296085E0,3.481256485E0,9.404406548E-1,8.554485250E0
1.917425175E0,8.222432137E0,4.476638794E0,9.409942627E-1,9.409259022E0
1.922451008E0,7.648153305E0,5.269461632E0,9.577465057E-1,9.336956315E0
1.927476842E0,7.206271172E0,5.318135262E0,-6.815705299E-1,8.982062416E0
1.932502675E0,8.305141449E0,4.932997227E0,-2.924847841E0,1.009279798E1
1.937528508E0,9.176628113E0,4.421973705E0,-4.325052261E0,1.106663599E1
1.942554342E0,8.894119263E0,4.034406185E0,-3.956199646E0,1.053723428E1
1.947580175E0,8.343173981E0,3.899896145E0,-3.068713903E0,9.707458320E0
1.952606008E0,7.326753139E0,3.350684643E0,-2.011785030E0,8.303955573E0
1.957631842E0,6.221313477E0,2.327894926E0,-9.853234291E-1,6.715258626E0
1.962657675E0,5.634800434E0,1.207448483E0,-1.909570694E-1,5.765880017E0
1.967683508E0,4.223503590E0,-1.910367012E-1,1.317228317E0,4.428269192E0
1.972709342E0,3.366686344E0,-1.388454556E0,2.503908157E0,4.419495339E0
1.977735175E0,2.895516872E0,-2.299719334E0,3.771864414E0,5.282015537E0
1.982761008E0,2.249996185E0,-3.021809816E0,5.020330429E0,6.276745575E0
1.987786842E0,1.478427887E0,-3.842377663E0,6.019508839E0,7.292743090E0
1.992812675E0,2.085121155E0,-3.820207119E0,6.323286057E0,7.676305050E0
1.997838508E0,3.260221481E0,-3.054969311E0,6.669896126E0,8.028038112E0
2.002864342E0,3.923753738E0,-2.531469822E0,7.067393303E0,8.470668861E0
2.007890175E0,4.529084682E0,-2.218916416E0,7.249014854E0,8.830878466E0
2.012916008E0,4.922542572E0,-2.000047684E0,7.224536419E0,8.968028913E0
2.017941842E0,5.065505505E0,-1.837974429E0,6.908201694E0,8.761321057E0
2.022967675E0,5.055153370E0,-1.766407967E0,5.930257320E0,7.990164240E0
2.027993508E0,4.944582939E0,-1.650301695E0,4.865194798E0,7.130393856E0
2.033019342E0,4.699670792E0,-1.478382945E0,4.054073334E0,6.380284655E0
2.038045175E0,4.305540085E0,-1.287367582E0,3.402207375E0,5.636488777E0
2.043071008E0,3.867759228E0,-1.090104342E0,2.904836655E0,4.958423632E0
2.048096842E0,3.545640469E0,-9.138340950E-1,2.378746986E0,4.366359618E0
2.053122675E0,3.460092068E0,-8.053534031E-1,1.894279957E0,4.026056107E0
2.058148508E0,3.492788792E0,-7.254674435E-1,1.459480762E0,3.854343089E0
2.063174342E0,3.453015804E0,-6.883068085E-1,1.135776997E0,3.699604546E0
2.068200175E0,2.954231739E0,-1.047226906E0,8.698763847E-1,3.252822511E0
2.073226008E0,2.561419010E0,-1.399339914E0,6.716027260E-1,2.995007473E0
2.078251842E0,2.274272442E0,-1.662980080E0,6.131467819E-1,2.883360342E0
2.083277675E0,1.872576237E0,-1.957437754E0,6.326198578E-1,2.781782200E0
2.088303508E0,1.628877640E0,-2.215778828E0,6.107921600E-1,2.817088078E0
2.093329342E0,4.812835217E0,-2.721575737E0,4.579997063E-1,5.547983512E0
2.098355175E0,6.672969818E0,-2.919735909E0,6.972842216E-1,7.317075184E0
2.103381008E0,2.371634007E0,-1.941246033E0,2.790513992E0,4.144882672E0
2.108406842E0,2.872500420E-1,-1.717841387E0,3.200662136E0,3.643861925E0
2.113432675E0,1.299321651E0,-2.045760155E0,2.172848225E0,3.254940978E0
2.118458508E0,2.295558453E0,-2.020604610E0,2.042835236E0,3.677717689E0
2.123484342E0,1.351456642E0,-1.867455721E0,1.912541866E0,2.995269990E0
2.128510175E0,7.531728745E-1,-1.705087662E0,1.526212215E0,2.409132010E0
2.133536008E0,4.798693657E-1,-1.423495054E0,1.530860424E0,2.144795192E0
2.138561842E0,-3.202981949E-1,-1.176158428E0,1.438093662E0,1.885219606E0
2.143587675E0,-1.121740818E0,-9.582588673E-1,9.953780174E-1,1.779702199E0
2.148613508E0,-1.845302582E0,-7.360427380E-1,3.673834801E-1,2.020364114E0
2.153639342E0,-1.901040077E0,-2.318725586E-1,-3.622012138E-1,1.949078751E0
2.158665175E0,-1.645466805E0,2.528052330E-1,-9.196271896E-1,1.901890023E0
2.186271936E0,3.761148453E-1,1.439412117E0,2.987763405E0,3.337678802E0
2.191298238E0,6.342339516E-1,1.665262699E0,2.974292755E0,3.467242414E0
2.196324749E0,8.365000486E-1,1.860011101E0,2.881464005E0,3.530185326E0
2.201351415E0,9.268184900E-1,1.798896790E0,2.627838135E0,3.316708524E0
2.206378238E0,1.155413508E0,1.472841263E0,2.232359886E0,2.913361018E0
2.211405165E0,1.327160001E0,1.136022091E0,1.742566109E0,2.467475735E0
2.216432144E0,1.447676778E0,9.372382164E-1,1.311126709E0,2.166387956E0
2.221459124E0,1.426875353E0,8.000383377E-1,9.998445511E-1,1.917217708E0
2.226484801E0,1.317731500E0,6.480498314E-1,7.892580032E-1,1.667127195E0
2.231510478E0,1.172905445E0,4.574427605E-1,7.270345688E-1,1.453802025E0
2.236536155E0,1.078460574E0,2.188262939E-1,8.224906921E-1,1.373846096E0
2.241561832E0,9.003199339E-1,-1.491737366E-2,1.003584862E0,1.348325289E0
2.246587509E0,6.478602886E-1,-1.811656952E-1,1.155220985E0,1.336816924E0
2.251613186E0,4.400459528E-1,-2.554159164E-1,1.200655937E0,1.304013961E0
2.256638863E0,3.383932114E-1,-2.464909554E-1,1.192248344E0,1.263615397E0
2.261664540E0,3.137069941E-1,-1.585288048E-1,1.201438904E0,1.251798266E0
2.266690217E0,3.133338690E-1,-4.887914658E-2,1.280738831E0,1.319416248E0
2.271715894E0,3.040746450E-1,1.013636589E-1,1.324922562E0,1.363141876E0
2.276741571E0,2.526557446E-1,2.580852509E-1,1.248283386E0,1.299482333E0
2.281767249E0,1.733664274E-1,4.493184090E-1,1.118346214E0,1.217637551E0
2.286792926E0,1.186009645E-1,6.406607628E-1,1.012269974E0,1.203828435E0
2.291818603E0,1.123093367E-1,7.977919579E-1,9.305019379E-1,1.230820560E0
2.296844280E0,1.117472649E-1,9.056425095E-1,8.399038315E-1,1.240207342E0
2.301869957E0,6.458735466E-2,9.112672806E-1,7.119626999E-1,1.158218662E0
2.306895634E0,-5.236029625E-3,8.481569290E-1,5.850467682E-1,1.030377267E0
2.311921311E0,-1.167711020E-1,7.358660698E-1,5.067729950E-1,9.010844752E-1
2.316946988E0,-2.606502771E-1,5.988678932E-1,3.907613754E-1,7.611016838E-1
2.321972665E0,-3.940472603E-1,4.571590424E-1,2.461996078E-1,6.518296405E-1
2.326998342E0,-4.456294775E-1,3.498868942E-1,1.540021896E-1,5.871312838E-1
2.332024019E0,-5.016254187E-1,2.491321564E-1,1.471395493E-1,5.790897503E-1
2.337049696E0,-6.623503566E-1,6.472969055E-2,1.820669174E-1,6.899610787E-1
2.342075374E0,-8.178881407E-1,-1.884593964E-1,1.533517838E-1,8.532143484E-1
2.347101051E0,-8.441929221E-1,-3.859443665E-1,5.633163452E-2,9.299397813E-1
2.352126728E0,-7.847973108E-1,-4.847655296E-1,-7.056045532E-2,9.251395655E-1
2.357152405E0,-7.212092280E-1,-5.094404221E-1,-1.791591644E-1,9.009829635E-1
2.362178082E0,-7.396073341E-1,-5.274634361E-1,-2.548627853E-1,9.434997215E-1
2.367203759E0,-8.352918625E-1,-5.821380615E-1,-3.644847870E-1,1.081409441E0
2.372229436E0,-9.129436016E-1,-6.977651119E-1,-4.981117249E-1,1.252380718E0
2.377255113E0,-9.203286171E-1,-8.075869083E-1,-6.220388412E-1,1.373365828E0
2.382280790E0,-9.007599354E-1,-9.119572639E-1,-7.504186630E-1,1.485315684E0
2.387306467E0,-8.547315001E-1,-9.968833923E-1,-8.877887726E-1,1.585090325E0
2.392332144E0,-8.117324114E-1,-1.043339491E0,-9.766130447E-1,1.643544901E0
2.397357821E0,-7.817387581E-1,-1.003738165E0,-1.007247925E0,1.622699655E0
2.402383499E0,-7.314869761E-1,-9.499609470E-1,-1.003639221E0,1.563582644E0
2.407409176E0,-6.418000460E-1,-8.629007339E-1,-9.849748611E-1,1.458314250E0
2.412434853E0,-5.076369047E-1,-7.809915543E-1,-9.464750290E-1,1.327952565E0
2.417460530E0,-3.860674500E-1,-7.427558899E-1,-9.167804718E-1,1.241459150E0
2.422486207E0,-2.910711765E-1,-7.195544243E-1,-9.006633759E-1,1.188980873E0
2.427511884E0,-2.173892260E-1,-6.732335091E-1,-8.694171906E-1,1.120887008E0
2.432537561E0,-1.785020828E-1,-6.278662682E-1,-7.705144882E-1,1.009837423E0
2.437563238E0,-1.969680786E-1,-5.599098206E-1,-6.136293411E-1,8.537191572E-1
2.442588915E0,-2.138497829E-1,-4.936733246E-1,-3.845462799E-1,6.613024440E-1
2.447614592E0,-2.853434086E-1,-5.062837601E-1,-2.315301895E-1,6.255799990E-1
2.452640269E0,-3.444566727E-1,-5.598430634E-1,-2.021284103E-1,6.876994614E-1
2.457665946E0,-2.532964945E-1,-6.118137836E-1,-3.006334305E-1,7.272246417E-1
2.462691624E0,6.153941154E-3,-6.101479530E-1,-4.739217758E-1,7.726061385E-1
2.467717301E0,3.474422693E-1,-5.602695942E-1,-5.877361298E-1,8.832054726E-1
2.472742978E0,5.937702656E-1,-4.628739357E-1,-6.132316589E-1,9.710141483E-1
2.477768655E0,6.307381392E-1,-3.758690357E-1,-6.699266434E-1,9.939365371E-1
2.482794332E0,5.208693743E-1,-3.374724388E-1,-8.295431137E-1,1.036018499E0
2.487820009E0,3.406705856E-1,-3.564915657E-1,-1.130485535E0,1.233345138E0
2.492845686E0,1.565470695E-1,-4.029645920E-1,-1.506047249E0,1.566864947E0
2.497871363E0,-2.713334560E-2,-4.802644253E-1,-1.794073582E0,1.857441830E0
2.502897040E0,-1.246538162E-1,-5.441775322E-1,-2.004683018E0,2.080966545E0
2.507922717E0,-9.322679043E-2,-6.034936905E-1,-2.176567078E0,2.260606138E0
2.512948394E0,-1.720097065E-1,-5.858006477E-1,-2.290969849E0,2.370926525E0
2.517974071E0,-2.074475288E-1,-4.908065796E-1,-2.381680489E0,2.440558855E0
2.522999749E0,-1.179285049E-1,-3.759453297E-1,-2.453592300E0,2.485026599E0
2.528025426E0,-1.234192848E-1,-2.411797047E-1,-2.497224808E0,2.511878124E0
2.533051103E0,-1.425998211E-1,-1.584410667E-1,-2.493392944E0,2.502488093E0
2.538076780E0,-2.046463490E-1,-1.469249725E-1,-2.461155891E0,2.474016046E0
2.543102457E0,-1.568421125E-1,-1.634674072E-1,-2.448337555E0,2.458796011E0
2.548128134E0,-5.254375935E-2,-1.981830597E-1,-2.431052208E0,2.439682809E0
2.553153811E0,1.027102470E-1,-2.697868347E-1,-2.385481834E0,2.402885331E0
2.558179488E0,2.885938883E-1,-4.448764324E-1,-2.220789909E0,2.283223444E0
2.563205165E0,2.599736452E-1,-5.847582817E-1,-1.846029758E0,1.953805111E0
2.568230842E0,-2.436697483E-1,-2.646255493E-1,-1.069417953E0,1.128298004E0
2.573256519E0,2.205380201E-1,-2.031345367E-1,-1.048135757E0,1.090178529E0
2.578282196E0,1.029087067E0,-7.682857513E-1,-7.815294266E-1,1.503353395E0
2.583307874E0,1.086072922E0,-7.496929169E-1,-5.995807648E-1,1.449514041E0
2.588333551E0,6.825536489E-1,-6.117982864E-1,-4.070129395E-1,1.002913835E0
2.593359228E0,4.619913101E-1,-6.897463799E-1,-3.713598251E-1,9.094471721E-1
2.598384905E0,9.694211483E-1,-7.827024460E-1,-8.509044647E-1,1.508787225E0
2.603410582E0,1.230722308E0,-7.567510605E-1,-1.495364666E0,2.079294364E0
2.608436259E0,4.517484903E-1,-1.119189262E0,-1.290300369E0,1.766787012E0
2.613461936E0,1.217401028E-1,-1.203798771E0,-1.366806507E0,1.825407396E0
2.618487613E0,3.932673931E-1,-1.376468420E0,-2.444191456E0,2.832560048E0
2.623513290E0,5.440798998E-1,-1.832971573E0,-2.875350952E0,3.453035016E0
2.628538967E0,5.522980690E-1,-1.679860592E0,-2.091784477E0,2.739074125E0
2.633564644E0,7.319344282E-1,-1.346796036E0,-1.705552578E0,2.293141331E0
2.638590321E0,1.108048320E0,-6.585593224E-1,-1.892731667E0,2.289957341E0
2.643615999E0,1.632373929E0,-2.665262222E-1,-2.374025822E0,2.893385469E0
2.648641676E0,1.925520658E0,-5.209944248E-1,-2.123452187E0,2.913436834E0
2.653667353E0,2.311981201E0,-3.997724056E-1,-1.355831623E0,2.709862439E0
2.658693030E0,2.279050350E0,-3.716461658E-1,-6.373949051E-1,2.395509056E0
2.663718707E0,1.563481331E0,-5.501003265E-1,-8.398876190E-1,1.858089194E0
2.668744384E0,4.509956837E-1,-4.968726635E-1,-1.015987396E0,1.217583648E0
2.673770061E0,-1.288161278E0,-4.002120495E-1,1.657857895E-1,1.359048965E0
2.678795738E0,-2.172997952E0,-1.933474541E-1,-1.660680771E-1,2.187894408E0
2.683821415E0,-2.002989769E0,-2.510643005E-2,-6.876659393E-1,2.117895841E0
2.688847092E0,-2.548084259E0,9.746932983E-2,9.033126831E-1,2.705218561E0
2.693872769E0,-3.238529205E0,3.361291885E-1,2.436364174E0,4.066561770E0
2.698898446E0,-3.391987801E0,1.026184082E0,3.125574112E0,4.725235289E0
2.703924124E0,-2.781052828E0,1.428010225E0,4.232044220E-1,3.154769408E0
2.708949801E0,-2.119868279E0,1.192330837E0,-7.544450760E-1,2.546503822E0
2.713975478E0,-2.297801495E0,4.984571934E-1,5.606184006E-1,2.417156237E0
2.719001155E0,-2.601213932E0,5.598888397E-1,2.198095322E0,3.451291422E0
2.724026832E0,-2.085589886E0,3.651177883E-1,6.189470291E-1,2.205921938E0
2.729052509E0,-1.598194599E0,-4.616761208E-2,-2.216730118E-1,1.614154995E0
2.734078186E0,-1.659129500E0,-4.916667938E-3,8.184185028E-1,1.850011816E0
2.739103863E0,-1.508772850E0,2.372338772E-1,1.260124207E0,1.980047586E0
2.744129540E0,-1.080563188E0,3.959321976E-1,1.372819901E0,1.791371984E0
2.749155217E0,-6.417644024E-1,1.784653664E-1,1.587629318E0,1.721707956E0
2.754180894E0,-4.091048837E-1,-3.294806480E-1,1.775188446E0,1.851274783E0
2.759206571E0,-3.790821433E-1,-8.453431129E-1,1.380304337E0,1.662392346E0
2.764232249E0,-1.074852586E0,-2.534301281E0,1.430861473E0,3.102475724E0
2.769257926E0,-9.741659760E-1,-3.469895363E0,1.226444244E0,3.807011776E0
2.774283603E0,-5.170239210E-1,-2.784169674E0,7.564868927E-1,2.931072658E0
2.779309280E0,-1.919723153E-1,-1.767426610E0,3.025369644E-1,1.803379829E0
2.784334957E0,2.034632564E-1,-6.616868973E-1,-9.743499756E-2,6.990854207E-1
2.789360634E0,6.214999557E-1,1.703381538E-1,-9.396171570E-2,6.512342785E-1
2.794386311E0,7.903911471E-1,6.999769211E-1,1.123170853E-1,1.061744312E0
2.799411988E0,6.112914085E-1,8.398094177E-1,5.174837112E-1,1.160494048E0
2.804437665E0,8.306545019E-2,5.736258030E-1,1.184547424E0,1.318749040E0
2.809463342E0,-6.023494005E-1,3.370022774E-2,1.798336983E0,1.896833258E0
2.814489019E0,-1.248420000E0,-5.950226784E-1,2.177839279E0,2.579842710E0
2.819514696E0,-1.750128508E0,-1.198692203E0,2.199326515E0,3.055625944E0
2.824540374E0,-2.099097252E0,-1.610974908E0,2.117034912E0,3.388699787E0
2.829566051E0,-1.980571866E0,-1.891213417E0,2.170694351E0,3.494462344E0
2.834591728E0,-1.577329040E0,-1.687251806E0,1.944432259E0,3.019205585E0
2.839617405E0,-1.765080214E0,-1.172727704E0,1.410000801E0,2.545368478E0
2.844643082E0,-1.840278387E0,-8.790196180E-1,9.263448715E-1,2.239958672E0
2.849668759E0,-1.454373598E0,-6.288833618E-1,9.141168594E-1,1.829291250E0
2.854694436E0,-1.816385746E0,-8.911204338E-2,2.449064255E0,3.050428471E0
2.859720113E0,-2.191247463E0,5.085563660E-1,2.325345993E0,3.235340633E0
2.864745790E0,-1.749254465E0,4.431984425E-1,1.405309677E0,2.287184149E0
2.869771467E0,-1.914121509E0,1.429963112E-2,6.600246429E-1,2.024771137E0
2.874797144E0,-2.007028580E0,-1.241772175E-1,-2.367868423E-1,2.024759667E0
2.879822821E0,-1.484742403E0,-7.838582993E-2,-1.042112350E0,1.815654839E0
2.884848499E0,5.016182661E-1,-5.853222609E-1,4.961227417E0,5.020756967E0
2.889874176E0,-8.701444268E-1,-8.281549215E-1,1.570217133E0,1.977011315E0
2.894899853E0,-1.459005594E0,-1.048309803E-1,-2.642121792E0,3.020015633E0
2.899925582E0,-4.329455495E-1,1.716349125E0,-2.097829819E0,2.744847194E0
2.904951311E0,1.318533778E0,1.431443691E0,-3.234444141E0,3.774810097E0
2.909977040E0,1.698479414E0,1.569950581E0,-3.059943199E0,3.835730638E0
2.915002769E0,4.074921310E-1,2.209540129E0,-8.483333588E-1,2.401621724E0
2.920028499E0,-9.794238806E-1,2.892185688E0,4.382810593E-1,3.084817576E0
2.925054228E0,-1.289811492E0,3.573152304E0,1.427996635E0,4.058350091E0
2.930079957E0,-2.105834246E0,3.893604040E0,2.379487038E0,5.025599353E0
2.935105686E0,-2.483619928E0,3.485119820E0,2.365147591E0,4.889616675E0
2.940131415E0,-2.125601053E0,2.294584036E0,2.390614510E0,3.936792282E0
2.945157144E0,-1.720158458E0,8.181424141E-1,2.733352661E0,3.331594048E0
2.950182874E0,-1.473308921E0,-3.863176107E-1,3.020011902E0,3.382358993E0
2.955208603E0,-1.399611235E0,-9.576665163E-1,3.217230797E0,3.636840767E0
2.960234332E0,-1.499607086E0,-9.796565175E-1,3.516401291E0,3.946343414E0
2.965260061E0,-1.495046496E0,-5.973441601E-1,3.596905708E0,3.940775907E0
2.970285790E0,-1.347339630E0,-3.555893898E-2,3.085794449E0,3.367300981E0
2.975311519E0,-1.095875978E0,5.919380188E-1,2.232248306E0,2.556221289E0
2.980337249E0,-7.800826430E-1,1.229244113E0,1.505174637E0,2.094067980E0
2.985362978E0,-3.990344405E-1,1.681532025E0,1.047843933E0,2.021077768E0
2.990388707E0,-8.401066065E-2,1.921481490E0,7.977685928E-1,2.082206434E0
2.995414436E0,1.209667474E-1,1.950739026E0,5.394363403E-1,2.027561902E0
3.000440165E0,2.055121213E-1,1.794641614E0,2.201547623E-1,1.819736760E0
3.005465894E0,2.259165198E-1,1.660278440E0,-9.802436829E-2,1.678443192E0
3.010491624E0,2.423553467E-1,1.753957510E0,-2.383537292E-1,1.786593284E0
3.015517353E0,4.006987810E-1,1.971966982E0,-1.507282257E-2,2.012322161E0
3.020543082E0,7.117329836E-1,2.006543636E0,-5.724391937E-1,2.204646873E0
3.025568811E0,4.637612700E-1,1.973780394E0,-6.844034195E-1,2.139927942E0
3.030594540E0,2.225221395E-1,1.927020073E0,-1.930093765E-1,1.949403776E0
3.035620269E0,2.904686630E-1,1.825540543E0,-7.906913757E-2,1.850195191E0
3.040645999E0,2.899296284E-1,1.673367262E0,-3.419647217E-1,1.732384788E0
3.045671728E0,1.529456079E-1,1.422958255E0,-6.511659622E-1,1.572329375E0
3.050697457E0,-1.222961545E-1,1.084125519E0,-8.534364700E-1,1.385149197E0
3.055723134E0,-4.036778510E-1,8.100913763E-1,-1.044384956E0,1.382007157E0
3.060748811E0,-3.535956740E-1,2.712253332E-1,-1.687790871E0,1.745632007E0
3.065774488E0,3.931259811E-1,-6.972262859E-1,-2.869323730E0,2.978874150E0
3.070800165E0,-4.878411889E-1,-3.733453751E-1,-1.795229912E0,1.897426212E0
3.075825842E0,-1.149286151E0,-2.089257240E-1,-2.016474724E0,2.330381713E0
3.080851519E0,6.444909573E-1,-2.116454124E0,-3.731786251E0,4.338314797E0
3.085877196E0,2.189604759E0,-3.011124134E0,-4.696012020E0,5.992809562E0
3.090902874E0,1.685190916E0,-2.123023272E0,-3.690716267E0,4.579135595E0
3.095928551E0,1.291796327E0,-8.710689545E-1,-2.832292557E0,3.232550077E0
3.100954228E0,1.187247515E0,-2.843155861E-1,-2.909823418E0,3.155545014E0
3.105979905E0,7.208339572E-1,1.894323826E-1,-3.640232086E0,3.715747013E0
3.111005582E0,-2.546125650E-1,9.816026688E-2,-4.903216362E0,4.910803772E0
3.116031259E0,8.645772934E-3,2.672693729E-1,-5.349580765E0,5.356260078E0
3.121056936E0,2.577096224E-1,6.739132404E-1,-5.493128777E0,5.540310195E0
3.126082613E0,-3.828526139E-1,4.341773987E-1,-6.263068199E0,6.289762269E0
3.131108290E0,-5.813129544E-1,2.957282066E-1,-6.741073608E0,6.772551463E0
3.136133967E0,-5.742616057E-1,5.933053493E-1,-6.808764458E0,6.858648633E0
3.141159644E0,-1.024443865E0,6.999015808E-1,-6.998239517E0,7.107369682E0
3.146185321E0,-1.084670186E0,9.840199947E-1,-7.309751987E0,7.455017028E0
3.151210999E0,-1.259434581E0,1.177711010E0,-7.317551613E0,7.517961179E0
3.156236676E0,-1.285803080E0,1.026544333E0,-6.992328644E0,7.183296088E0
3.161262353E0,-9.160119295E-1,7.210328579E-1,-6.400186539E0,6.505486451E0
3.166288030E0,2.611172199E-1,1.717185974E-1,-4.917695522E0,4.927615928E0
3.171313707E0,1.970795751E0,-3.408372402E-1,-7.249942780E0,7.520763008E0
3.176339384E0,2.760118008E0,-6.999790668E-1,-9.742986679E0,1.015056706E1
3.181365061E0,2.695834160E0,-1.299179554E0,-9.808226585E0,1.025459400E1
3.186390738E0,2.649523020E0,-2.122799397E0,-9.530755043E0,1.011738806E1
3.191416415E0,2.930095434E0,-2.546887398E0,-8.980169296E0,9.783431671E0
3.196442092E0,2.677098989E0,-2.990204573E0,-8.738166809E0,9.615806860E0
3.201467769E0,1.840099573E0,-3.669140577E0,-8.429531097E0,9.375796155E0
3.206493446E0,2.692904472E-1,-4.507429123E0,-7.866390228E0,9.070255226E0
3.211519124E0,-1.927772284E0,-5.433008671E0,-7.573545933E0,9.518008573E0
3.216544801E0,-4.121800900E0,-6.371790409E0,-8.098393440E0,1.109833014E1
3.221570478E0,-5.210272789E0,-6.859501839E0,-9.800312996E0,1.304782905E1
3.226596155E0,-4.208693504E0,-6.386526108E0,-1.294203949E1,1.503320335E1
3.231621832E0,-5.574810028E0,-6.504298210E0,-1.390423489E1,1.633132419E1
3.236647509E0,-7.733275890E0,-6.759597778E0,-1.294791031E1,1.652707172E1
3.241673186E0,-9.301790237E0,-7.414726257E0,-1.042658424E1,1.581818972E1
3.246698863E0,-8.006113052E0,-8.216785431E0,-9.151512146E0,1.467527116E1
3.251724540E0,-4.542798042E0,-9.062032700E0,-1.130723190E1,1.518587976E1
3.256750217E0,-2.763846397E0,-9.905007362E0,-1.326910973E1,1.678741465E1
3.261775894E0,-1.887887001E0,-1.026427078E1,-1.166052532E1,1.564887289E1
3.266801571E0,-6.092953682E-1,-1.056638336E1,-9.767533302E0,1.440223611E1
3.271827249E0,7.128615379E-1,-1.090275764E1,-8.520919800E0,1.385584245E1
3.276852926E0,1.640945435E0,-1.118717957E1,-7.157884598E0,1.338211495E1
3.281878603E0,2.302923679E0,-1.126145554E1,-5.742589474E0,1.284917009E1
3.286904280E0,2.957081318E0,-1.107169533E1,-4.525815964E0,1.232111105E1
3.291929957E0,3.772252083E0,-1.060114861E1,-3.505793095E0,1.178578902E1
3.296955634E0,4.565296173E0,-9.922037125E0,-2.636982441E0,1.123576549E1
3.301981311E0,6.005952835E0,-9.477980614E0,-2.419073105E0,1.147847989E1
3.307006988E0,7.315113068E0,-8.721843719E0,-2.000136852E0,1.155776728E1
3.312032665E0,8.402287483E0,-7.968385696E0,-1.527548552E0,1.168019735E1
3.317058342E0,8.130804062E0,-6.833893776E0,-4.077433944E-1,1.062912666E1
3.322084019E0,8.942575455E0,-6.661855698E0,-5.347039700E-1,1.116404431E1
3.327109696E0,1.181058598E1,-7.718487740E0,-2.072644234E0,1.426046452E1
3.332135374E0,1.465466213E1,-8.295671463E0,-2.960985661E0,1.709809122E1
3.337161051E0,1.538197803E1,-7.333651543E0,-2.032156706E0,1.716150792E1
3.342186728E0,1.389643955E1,-5.307446480E0,1.993862987E-1,1.487682007E1
3.347212405E0,1.212267685E1,-3.976753235E0,1.709166288E0,1.287226125E1
3.352238082E0,1.106845570E1,-3.748832703E0,2.549754143E0,1.196100766E1
3.357263759E0,1.064745617E1,-4.141682625E0,3.300605297E0,1.189183977E1
3.362289436E0,1.030528259E1,-4.405013084E0,4.201637268E0,1.196899099E1
3.367315113E0,9.880446434E0,-4.333320141E0,5.206614494E0,1.197955424E1
3.372340790E0,9.890820503E0,-4.080074310E0,5.988845348E0,1.226138676E1
3.377366467E0,1.100195980E1,-3.480512857E0,6.401401043E0,1.319602306E1
3.382392144E0,1.305058765E1,-2.287315607E0,6.641769409E0,1.482102398E1
3.387417821E0,1.549457264E1,-7.536509633E-1,6.528418064E0,1.683062725E1
3.392443499E0,1.803536797E1,8.325752020E-1,5.963875771E0,1.901408671E1
3.397469176E0,2.032140732E1,2.321424723E0,5.022639751E0,2.106123259E1
3.402494853E0,2.174287033E1,3.668480396E0,3.818331242E0,2.237833354E1
3.407520530E0,2.205914307E1,4.744933128E0,2.389917850E0,2.268990724E1
3.412546207E0,2.126490784E1,5.448450565E0,8.453221321E-1,2.196807885E1
3.417571884E0,1.953275299E1,5.731816769E0,-6.675064564E-1,2.036732009E1
3.422597561E0,1.721288872E1,5.631213665E0,-1.927976489E0,1.821294042E1
3.427623238E0,1.470363617E1,5.284086227E0,-2.733810186E0,1.586165824E1
3.432648915E0,1.220741367E1,4.905001640E0,-3.106255531E0,1.351772219E1
3.437674592E0,9.936388969E0,4.564980030E0,-2.911978960E0,1.131593964E1
3.442700269E0,8.322382927E0,4.248208046E0,-2.567288876E0,9.690216786E0
3.447725946E0,7.715198517E0,4.445012093E0,-1.808141112E0,9.085801833E0
3.452751624E0,6.281928062E0,4.133087635E0,-6.135660410E-1,7.544633647E0
3.457777301E0,5.659643173E0,3.620192528E0,7.834911346E-3,6.718438522E0
3.462802978E0,5.350541115E0,3.680551529E0,9.617539644E-1,6.565037735E0
3.467828655E0,4.608428001E0,4.259463310E0,2.244668007E0,6.664770874E0
3.472854332E0,3.318854332E0,4.313304901E0,3.380056620E0,6.406572875E0
3.477880009E0,2.721063614E0,4.168448925E0,3.987360477E0,6.378024554E0
3.482905686E0,2.139566422E0,4.222530365E0,4.587829113E0,6.592092469E0
3.487931363E0,1.397031784E0,4.322471142E0,4.921258450E0,6.697330760E0
3.492957040E0,7.564449310E-1,4.349170208E0,5.028515816E0,6.691297463E0
3.497982717E0,-1.221656799E-2,4.101976395E0,5.427270412E0,6.803059879E0
3.503008394E0,-4.067354202E-1,3.988302231E0,5.349260807E0,6.684802134E0
3.508034071E0,-7.049751282E-1,4.117825985E0,5.336280823E0,6.777121350E0
3.513059749E0,-9.981451035E-1,4.188332558E0,5.157617569E0,6.718589305E0
3.518085426E0,-1.386822701E0,4.213881493E0,4.803095341E0,6.538333067E0
3.523111103E0,-1.842183590E0,4.290291309E0,4.430786133E0,6.436777583E0
3.528136780E0,-2.263544083E0,4.384655952E0,4.108959198E0,6.421244842E0
3.533162457E0,-2.540787220E0,4.373310089E0,3.814532280E0,6.334989925E0
3.538188134E0,-2.659575939E0,4.209428787E0,3.518909931E0,6.097160158E0
3.543213811E0,-2.629539967E0,3.970456123E0,3.159632206E0,5.715092120E0
3.548239488E0,-2.450779915E0,3.819586754E0,2.765039444E0,5.314226970E0
3.553265165E0,-2.104351997E0,3.747132778E0,2.316316366E0,4.882071578E0
3.558290842E0,-1.710060596E0,3.814953804E0,1.947951078E0,4.612232992E0
3.563316519E0,-1.100693703E0,3.888511419E0,1.769587755E0,4.411744384E0
3.568342196E0,-2.194194794E-1,3.985779047E0,1.655659318E0,4.321549178E0
3.573367874E0,7.656459808E-1,4.105222702E0,1.623821139E0,4.480609590E0
3.578393551E0,1.633993149E0,4.269345284E0,1.796043038E0,4.911518437E0
3.583419228E0,2.385483742E0,4.348010063E0,1.978783131E0,5.339598006E0
3.588444905E0,3.024775505E0,4.345115662E0,2.175286055E0,5.723737100E0
3.593470582E0,3.542288780E0,4.183633804E0,2.494241238E0,6.022610809E0
3.598496259E0,3.832884789E0,4.001911640E0,2.997623682E0,6.300162721E0
3.603521936E0,4.030797958E0,3.761540651E0,3.767378330E0,6.677548932E0
3.608547613E0,4.184004784E0,3.390610456E0,4.511640072E0,7.025455959E0
3.613573290E0,4.149096489E0,2.884004593E0,4.987404823E0,7.099766971E0
3.618598967E0,3.740001678E0,2.419201612E0,5.297039032E0,6.920893837E0
3.623624644E0,2.986233711E0,2.021191597E0,5.504460812E0,6.580417622E0
3.628650321E0,2.132597923E0,1.658285141E0,5.496407986E0,6.124408890E0
3.633675999E0,1.327894211E0,1.265402198E0,5.188498020E0,5.503186119E0
3.638701676E0,6.441612244E-1,9.688595533E-1,4.682813168E0,4.825181000E0
3.643727353E0,6.712150574E-2,8.752648830E-1,4.086098671E0,4.179329643E0
3.648753030E0,-3.745450974E-1,9.328970909E-1,3.394496441E0,3.540224159E0
3.653778707E0,-5.997076035E-1,1.075179219E0,2.594478369E0,2.871755137E0
3.658804384E0,-6.851968765E-1,1.230573297E0,1.638550162E0,2.160706373E0
3.663830061E0,-7.029008865E-1,1.409084558E0,5.168586969E-1,1.657326722E0
3.668855738E0,-5.380458832E-1,1.630374908E0,-6.471139193E-1,1.834767598E0
3.673881415E0,-1.382236481E-1,1.827595353E0,-1.610809565E0,2.440065164E0
3.678907092E0,5.583963394E-1,1.976373672E0,-2.218616247E0,3.023262711E0
3.683932821E0,1.369565010E0,2.003723860E0,-2.674531698E0,3.611611472E0
3.688958551E0,2.232695580E0,2.027451515E0,-3.229259014E0,4.418552136E0
3.693984280E0,3.046994209E0,1.925714493E0,-3.487915754E0,5.015785714E0
3.699010009E0,3.640218735E0,1.625504732E0,-3.624877930E0,5.388246289E0
3.704035738E0,3.864268303E0,1.054033041E0,-3.454563141E0,5.289381974E0
3.709061467E0,3.657437325E0,5.316932201E-1,-2.923981905E0,4.712665450E0
3.714087196E0,3.350338936E0,3.504062891E-1,-2.625181675E0,4.270729959E0
3.719112926E0,2.885764122E0,-1.589715481E-2,-2.746876955E0,3.984121019E0
3.724138655E0,2.340498924E0,-5.425478220E-1,-3.086106300E0,3.911054263E0
3.729164384E0,1.671782494E0,-1.017904043E0,-3.895442724E0,4.359525131E0
3.734190113E0,7.507581711E-1,-1.454865336E0,-5.258296013E0,5.507263199E0
3.739215842E0,-4.943752289E-2,-1.938048601E0,-6.853152752E0,7.122090921E0
3.744241571E0,-3.325920105E-1,-2.126577854E0,-7.629320145E0,7.927135465E0
3.749267301E0,-6.018686295E-1,-2.134315491E0,-7.234130859E0,7.566386043E0
3.754293030E0,-7.376871109E-1,-2.462239742E0,-6.266125679E0,6.772823477E0
3.759318759E0,-6.300439835E-1,-2.993908882E0,-4.793047428E0,5.686277294E0
3.764344488E0,-4.366188049E-1,-3.603787422E0,-2.880459785E0,4.634109228E0
3.769370217E0,7.724094391E-2,-4.142928123E0,-1.105289340E0,4.288529366E0
3.774395946E0,1.064503670E0,-4.367320538E0,5.166393518E-1,4.524773250E0
3.779421676E0,2.218953133E0,-4.444445610E0,1.599922538E0,5.218869793E0
3.784447405E0,3.182200432E0,-4.479693890E0,1.986898422E0,5.843100399E0
3.789473134E0,3.758790016E0,-4.434921741E0,2.108190060E0,6.183971100E0
3.794498863E0,4.274491310E0,-4.167481899E0,2.367028236E0,6.421993772E0
3.799524592E0,5.073495865E0,-3.708010197E0,2.766498566E0,6.866091626E0
3.804550321E0,5.963698387E0,-3.193294048E0,3.195599556E0,7.481622943E0
3.809576051E0,6.576124191E0,-2.746238232E0,3.672710419E0,8.017233664E0
3.814601780E0,6.685753822E0,-2.335991859E0,4.164396286E0,8.215738468E0
3.819627509E0,6.455346107E0,-2.026358604E0,4.595901966E0,8.179238195E0
3.824653238E0,6.066654205E0,-1.828038454E0,4.922150135E0,8.023314763E0
3.829678967E0,5.710828781E0,-1.789877772E0,5.178312302E0,7.914047391E0
3.834704644E0,5.224871635E0,-1.922507524E0,5.207808495E0,7.623423647E0
3.839730321E0,4.546597481E0,-1.963153362E0,5.236638546E0,7.207489371E0
3.844755999E0,3.580513000E0,-2.021976948E0,5.046244621E0,6.509458418E0
3.849781676E0,2.594869614E0,-2.170058489E0,4.830023766E0,5.896747555E0
3.854807353E0,1.642497063E0,-2.430127382E0,4.661068916E0,5.507166162E0
3.859833030E0,6.471509933E-1,-2.743206024E0,4.467805386E0,5.282543768E0
3.864858707E0,-3.907670975E-1,-3.074178696E0,4.188521862E0,5.210277245E0
3.869884384E0,-1.389507294E0,-3.349484444E0,3.842998028E0,5.283787505E0
3.874910061E0,-2.334327698E0,-3.543252468E0,3.493782520E0,5.496384280E0
3.879935738E0,-3.215302467E0,-3.610612392E0,3.140458822E0,5.765168984E0
3.884961415E0,-4.032124043E0,-3.607346058E0,2.772473335E0,6.079274486E0
3.889987092E0,-4.703179836E0,-3.612943172E0,2.417388678E0,6.404453681E0
3.895012769E0,-5.127976418E0,-3.549684048E0,2.107183218E0,6.583055529E0
3.900038446E0,-5.450150490E0,-3.450349331E0,1.744346499E0,6.682199905E0
3.905064124E0,-5.693676472E0,-3.295381069E0,1.260100245E0,6.698159507E0
3.910089801E0,-5.873037815E0,-3.070542812E0,7.389277816E-1,6.668344668E0
3.915115478E0,-5.935843945E0,-2.752506256E0,1.937507987E-1,6.545843979E0
3.920141155E0,-5.963650703E0,-2.375330925E0,-3.187908232E-1,6.427204237E0
3.925166832E0,-5.975790977E0,-1.997260928E0,-6.797190905E-1,6.337282309E0
3.930192509E0,-5.934147835E0,-1.681136370E0,-9.756141901E-1,6.244369709E0
3.935218186E0,-5.867635250E0,-1.399080753E0,-1.129958034E0,6.137049416E0
3.940243863E0,-5.795529842E0,-1.127897739E0,-1.195466995E0,6.024073439E0
3.945269540E0,-5.756180286E0,-9.112348557E-1,-1.253411889E0,5.961124207E0
3.950295217E0,-5.754403591E0,-7.209806442E-1,-1.308225036E0,5.945117873E0
3.955320894E0,-5.828425407E0,-5.288333893E-1,-1.426172495E0,6.023634739E0
3.960346571E0,-5.992450714E0,-3.159320354E-1,-1.572431564E0,6.203371635E0
3.965372249E0,-6.136301041E0,-9.202075005E-2,-1.650007367E0,6.354933720E0
3.970397926E0,-6.154751778E0,1.140031815E-1,-1.624667048E0,6.366593217E0
3.975423603E0,-6.119736671E0,2.874383926E-1,-1.496260405E0,6.306551590E0
3.980449280E0,-6.093516350E0,4.041407108E-1,-1.384179354E0,6.261806744E0
3.985474957E0,-6.066514969E0,4.926977158E-1,-1.259138107E0,6.215366737E0
3.990500634E0,-6.033957481E0,5.529654026E-1,-1.072656631E0,6.153454792E0
3.995526311E0,-5.895413399E0,6.422913074E-1,-8.531507254E-1,5.991352387E0
4.000551988E0,-5.713209152E0,7.078936100E-1,-6.339498162E-1,5.791697899E0
4.005577665E0,-5.606882095E0,7.069630623E-1,-4.197870791E-1,5.666846106E0
4.010603342E0,-5.533177376E0,6.685655117E-1,-1.964664459E-1,5.576883608E0
4.015629019E0,-5.348458767E0,7.077994347E-1,-3.077055886E-2,5.395177295E0
4.020654696E0,-5.105429173E0,8.054575920E-1,1.684482992E-1,5.171319348E0
4.025680374E0,-4.947577477E0,8.276190758E-1,3.580208719E-1,5.029080946E0
4.030706051E0,-4.860283852E0,8.034176826E-1,5.331910253E-1,4.955010773E0
4.035731728E0,-4.781087875E0,7.428593636E-1,6.747606397E-1,4.885278214E0
4.040757405E0,-4.599712372E0,7.182474136E-1,7.778427005E-1,4.719986495E0
4.045783082E0,-4.258804798E0,7.534325123E-1,8.753715158E-1,4.412635737E0
4.050808759E0,-3.725039482E0,7.812280655E-1,9.187310934E-1,3.915393116E0
4.055834436E0,-3.056235790E0,7.674391270E-1,8.449472189E-1,3.262434033E0
4.060860113E0,-2.458392143E0,7.448873520E-1,6.722458601E-1,2.655270908E0
4.065885790E0,-1.989021778E0,8.133285046E-1,4.004173577E-1,2.185873956E0
4.070911467E0,-1.638534546E0,8.478806019E-1,8.722397685E-2,1.846971845E0
4.075937144E0,-1.301584244E0,8.198132515E-1,-1.851557195E-1,1.549354043E0
4.080962821E0,-8.491816521E-1,8.150010109E-1,-4.060536623E-1,1.245076585E0
4.085988499E0,-1.765098572E-1,8.187117577E-1,-6.360698342E-1,1.051679374E0
4.091014176E0,7.013854980E-1,9.451546669E-1,-8.686776161E-1,1.462825951E0
4.096039853E0,1.597036362E0,1.240951777E0,-1.012037039E0,2.261571449E0
4.101065530E0,2.361385345E0,1.656823635E0,-1.095211625E0,3.085562155E0
4.106091207E0,2.946021080E0,2.004944086E0,-1.243329763E0,3.774216461E0
4.111116884E0,3.312338829E0,2.141204596E0,-1.432669401E0,4.196294467E0
4.116142561E0,3.484341621E0,2.113754511E0,-1.572028399E0,4.368050818E0
4.121168238E0,3.471963882E0,2.028612614E0,-1.546252966E0,4.308213153E0
4.126193915E0,3.448008537E0,1.963418961E0,-1.402854085E0,4.208536144E0
4.131219592E0,3.451326370E0,1.914572239E0,-1.204037070E0,4.126371995E0
4.136245269E0,3.319828987E0,1.859194517E0,-1.074327469E0,3.953738518E0
4.141270946E0,3.283811569E0,1.827021360E0,-8.750215769E-1,3.858378964E0
4.146296624E0,3.443920135E0,1.837714434E0,-5.825570822E-1,3.946790214E0
4.151322301E0,3.785767555E0,1.901088953E0,-1.543509364E-1,4.239103608E0
4.156347978E0,4.371074677E0,1.925812006E0,4.042913318E-1,4.793589176E0
4.161373655E0,4.912282944E0,1.930520773E0,9.062159657E-1,5.355246171E0
4.166399332E0,5.275193214E0,1.924217224E0,1.351041794E0,5.775429794E0
4.171425009E0,5.593803406E0,1.892264843E0,1.690138817E0,6.142301849E0
4.176450686E0,5.925489426E0,1.858384609E0,1.994472980E0,6.522494980E0
4.181476363E0,6.255673409E0,1.788663626E0,2.253631830E0,6.885609907E0
4.186502040E0,6.526765823E0,1.721075296E0,2.395557404E0,7.162364663E0
4.191527717E0,6.743416786E0,1.626686573E0,2.520975590E0,7.380724699E0
4.196553394E0,6.972235680E0,1.624613285E0,2.558638096E0,7.602504035E0
4.201579071E0,7.217496872E0,1.723794222E0,2.643402100E0,7.877264898E0
4.206604749E0,7.473939896E0,1.861415148E0,2.785224915E0,8.190367619E0
4.211630426E0,7.784111023E0,2.098937988E0,2.993507862E0,8.599942698E0
4.216656103E0,8.114080429E0,2.373459578E0,3.181674719E0,9.032976563E0
4.221681780E0,8.496898651E0,2.459504128E0,3.210643530E0,9.410349575E0
4.226707457E0,9.003828049E0,2.332758665E0,3.066153049E0,9.793466038E0
4.231733134E0,9.495410919E0,2.026022434E0,2.863275766E0,1.012254630E1
4.236758811E0,9.631876945E0,1.634602547E0,2.639919281E0,1.011998779E1
4.241784488E0,9.380726814E0,1.130266190E0,2.461974144E0,9.764059295E0
4.246810165E0,8.915757179E0,6.530971527E-1,2.146728039E0,9.193786121E0
4.251835842E0,8.334203720E0,2.764968872E-1,1.732390046E0,8.516840814E0
4.256861519E0,7.537108421E0,-2.513933182E-1,1.357465506E0,7.662500542E0
4.261887196E0,6.674544334E0,-8.756737709E-1,9.880045652E-1,6.803859173E0
4.266912874E0,5.968004227E0,-1.575054169E0,9.585106373E-1,6.246327939E0
4.271938551E0,4.955096245E0,-2.414380074E0,1.534405947E0,5.721591697E0
4.276964228E0,4.570906639E0,-3.276732922E0,3.150763035E0,6.446508655E0
4.281989905E0,4.228564262E0,-3.735046864E0,4.242127895E0,7.058822839E0
4.287015582E0,3.904272079E0,-3.550822735E0,4.943996429E0,7.231513207E0
4.292041259E0,3.429796219E0,-2.983973980E0,5.159955502E0,6.876971979E0
4.297066936E0,3.158369064E0,-2.337488651E0,5.414245605E0,6.689783540E0
4.302092613E0,2.878120422E0,-1.689171314E0,5.016716957E0,6.025307123E0
4.307118290E0,2.835310936E0,-9.689602852E-1,3.806734085E0,4.844491360E0
4.312143967E0,2.842763901E0,-6.518745422E-2,1.169555902E0,3.074640956E0
4.317169644E0,3.074469566E0,5.728530884E-1,-1.831467152E0,3.624195870E0
4.322195321E0,2.592960358E0,2.208714485E-1,-3.280828476E0,4.187608279E0
4.327220999E0,1.681923866E0,-5.454187393E-1,-3.756989241E0,4.152266567E0
4.332246676E0,1.334225655E0,-1.370335102E0,-3.840354443E0,4.290256243E0
4.337272353E0,1.130746841E0,-2.205687046E0,-3.375248432E0,4.187594267E0
4.342298030E0,8.488960266E-1,-2.936794281E0,-2.727651834E0,4.097007401E0
4.347323707E0,4.186840057E-1,-3.434954166E0,-2.165562630E0,4.082140116E0
4.352349384E0,-1.462650299E-2,-3.906354904E0,-1.239227295E0,4.098232163E0
4.357375061E0,-1.668329239E-1,-4.240948200E0,-1.413691044E-1,4.246582165E0
4.362400738E0,-3.425388336E-1,-4.338202953E0,7.258346081E-1,4.411822027E0
4.367426415E0,-4.878835678E-1,-4.255278587E0,1.130395889E0,4.429810504E0
4.372452092E0,-8.457684517E-1,-4.063067436E0,9.617457390E-1,4.260140389E0
4.377477769E0,-1.099676132E0,-3.765342236E0,3.358006477E-1,3.936985118E0
4.382503446E0,-1.373732567E0,-3.509435177E0,-5.448279381E-1,3.807901510E0
4.387529124E0,-1.581708908E0,-3.232125998E0,-1.611120224E0,3.942606994E0
4.392554801E0,-1.575407028E0,-2.903928995E0,-2.655547380E0,4.238707681E0
4.397580478E0,-1.507970810E0,-2.624645233E0,-3.471593857E0,4.605942083E0
4.402606155E0,-1.388724327E0,-2.350502014E0,-4.092746735E0,4.919755157E0
4.407631832E0,-1.174416065E0,-1.961483002E0,-4.552668571E0,5.094453826E0
4.412657509E0,-1.051565647E0,-1.428756237E0,-5.042518616E0,5.345477405E0
4.417683186E0,-1.020226955E0,-7.715897560E-1,-5.609195709E0,5.753198267E0
4.422708863E0,-1.090256214E0,-1.286633015E-1,-6.236613274E0,6.332500137E0
4.427734540E0,-1.266772747E0,4.047989845E-1,-6.808038712E0,6.936711505E0
4.432760217E0,-1.583402634E0,7.485053539E-1,-7.202395916E0,7.412282448E0
4.437785894E0,-1.877287388E0,9.327731133E-1,-7.428663731E0,7.718764049E0
4.442811571E0,-2.219948292E0,1.016681552E0,-7.515498161E0,7.902184787E0
4.447837249E0,-2.610841751E0,1.073633432E0,-7.377458572E0,7.899118836E0
4.452862926E0,-2.867630482E0,1.104647040E0,-7.168938637E0,7.799822488E0
4.457888655E0,-3.152812481E0,1.081928253E0,-6.828277588E0,7.598432082E0
4.462914384E0,-3.409255028E0,1.077482224E0,-6.441240311E0,7.367059422E0
4.467940113E0,-3.589722633E0,1.076804996E0,-5.868296623E0,6.962939239E0
4.472965842E0,-3.938895702E0,1.036387086E0,-5.252189636E0,6.646389510E0
4.477991571E0,-4.533343315E0,9.609653950E-1,-4.291432381E0,6.315936034E0
4.483017301E0,-4.243986130E0,7.736111879E-1,-3.221498966E0,5.384045703E0
4.488043030E0,-3.708566189E0,5.877561569E-1,-2.520494699E0,4.522368186E0
4.493068759E0,-3.430395126E0,5.834517479E-1,-1.833315611E0,3.933074217E0
4.498094488E0,-3.223253250E0,6.965934038E-1,-1.303179979E0,3.545825989E0
4.503120217E0,-2.911095619E0,9.155586958E-1,-9.051311016E-1,3.183078343E0
4.508145946E0,-2.528857708E0,1.156841397E0,-5.850775242E-1,2.841780962E0
4.513171676E0,-2.235707283E0,1.408973575E0,-3.656444550E-1,2.667824855E0
4.518197405E0,-1.975195885E0,1.665564537E0,-2.266855240E-1,2.593624941E0
4.523223134E0,-1.795838356E0,1.839216352E0,-1.819968224E-1,2.576989529E0
4.528248863E0,-1.655146122E0,1.948307395E0,-2.739377022E-1,2.571079978E0
4.533274592E0,-1.553409100E0,1.997288942E0,-4.303441048E-1,2.566600670E0
4.538300321E0,-1.538238049E0,2.005559206E0,-6.083521843E-1,2.599718524E0
4.543326051E0,-1.666324139E0,1.959559798E0,-8.325285912E-1,2.703629892E0
4.548351780E0,-1.841403008E0,1.836607218E0,-1.141300440E0,2.840151018E0
4.553377509E0,-2.000829697E0,1.710282326E0,-1.448474646E0,3.004407414E0
4.558403238E0,-2.153815269E0,1.606165171E0,-1.648851871E0,3.152364076E0
4.563428967E0,-2.266230106E0,1.564155698E0,-1.781374931E0,3.279585124E0
4.568454696E0,-2.251450062E0,1.585597515E0,-1.813220024E0,3.297106871E0
4.573480426E0,-2.137532234E0,1.585351944E0,-1.759942532E0,3.190577150E0
4.578506155E0,-1.947749138E0,1.564025760E0,-1.675445557E0,3.007826640E0
4.583531884E0,-1.724559784E0,1.522096515E0,-1.522610903E0,2.758482954E0
4.588557613E0,-1.510365009E0,1.488491535E0,-1.302710772E0,2.488747650E0
4.593583342E0,-1.342742443E0,1.430075169E0,-1.026540279E0,2.214013821E0
4.598609071E0,-1.221004009E0,1.337494254E0,-6.809444427E-1,1.934793789E0
4.603634801E0,-1.087395668E0,1.244178414E0,-3.240442276E-1,1.683868738E0
4.608660478E0,-8.510875702E-1,1.183168054E0,9.181118011E-2,1.460365019E0
4.613686155E0,-5.938076973E-1,1.167839766E0,5.285177231E-1,1.412723711E0
4.618711832E0,-3.110651970E-1,1.168201685E0,9.814286232E-1,1.557131618E0
4.623737509E0,2.528285980E-2,1.187494755E0,1.427184105E0,1.856781486E0
4.628763186E0,3.763656616E-1,1.190672278E0,1.737310886E0,2.139532823E0
4.633788863E0,6.987648010E-1,1.176410675E0,1.926751614E0,2.363172889E0
4.638814540E0,1.006562233E0,1.100403309E0,1.991264343E0,2.487808002E0
4.643840217E0,1.179990768E0,9.668232799E-1,1.940968990E0,2.468701296E0
4.648865894E0,1.200089455E0,7.897922993E-1,1.809609413E0,2.310556817E0
4.653891571E0,1.086299896E0,6.078215241E-1,1.587736607E0,2.017523730E0
4.658917249E0,8.866357803E-1,4.453480542E-1,1.256536484E0,1.601043982E0
4.663942926E0,6.298179626E-1,2.409937382E-1,8.356466293E-1,1.073803491E0
4.668968603E0,3.206243515E-1,2.456995845E-2,3.207249641E-1,4.541675465E-1
4.673994280E0,-1.233196259E-2,-1.883272529E-1,-2.303361893E-1,2.977817851E-1
4.679019957E0,-3.308939934E-1,-4.248366356E-1,-7.645792961E-1,9.351783262E-1
4.684045634E0,-6.592206955E-1,-6.835949421E-1,-1.252983093E0,1.572208829E0
4.689071311E0,-9.688625336E-1,-9.106635451E-1,-1.642683268E0,2.113388516E0
4.694096988E0,-1.245831013E0,-1.133573294E0,-1.971691608E0,2.593193229E0
4.699122665E0,-1.461938381E0,-1.313348055E0,-2.244338751E0,2.983153260E0
4.704148342E0,-1.641758919E0,-1.487785339E0,-2.459999084E0,3.310660517E0
4.709174019E0,-1.814606667E0,-1.661569357E0,-2.618044853E0,3.592738362E0
4.714199696E0,-2.004965782E0,-1.853526354E0,-2.751316786E0,3.876234228E0
4.719225374E0,-2.136954784E0,-2.140069962E0,-2.768078089E0,4.099845302E0
4.724251051E0,-2.182586193E0,-2.482800007E0,-2.748844862E0,4.299316974E0
4.729276728E0,-2.104387283E0,-2.919860601E0,-2.764314890E0,4.538223064E0
4.734302405E0,-1.888892174E0,-3.408457994E0,-2.794017792E0,4.795001039E0
4.739328082E0,-1.713678360E0,-3.915390491E0,-2.736483097E0,5.074969553E0
4.744353759E0,-1.745946884E0,-4.340649605E0,-2.572454214E0,5.339203143E0
4.749379436E0,-1.913248062E0,-4.717710972E0,-2.297506571E0,5.585324646E0
4.754405113E0,-2.214903831E0,-5.141790867E0,-1.945543051E0,5.926968033E0
4.759430790E0,-2.521084309E0,-5.626357079E0,-1.536101818E0,6.353846777E0
4.764456467E0,-2.821493626E0,-6.146420002E0,-1.127258539E0,6.856385122E0
4.769482144E0,-3.082129478E0,-6.676916599E0,-6.810071468E-1,7.385425386E0
4.774507821E0,-3.317012787E0,-7.202430725E0,-1.685752869E-1,7.931330267E0
4.779533499E0,-3.525789261E0,-7.693185329E0,4.293169975E-1,8.473523677E0
4.784559176E0,-3.660163403E0,-8.134032249E0,1.127103806E0,8.990530560E0
4.789584853E0,-3.599953651E0,-8.443095207E0,1.891120911E0,9.371331883E0
4.794610530E0,-3.454288483E0,-8.615294456E0,2.725255966E0,9.673801092E0
4.799636207E0,-3.164501667E0,-8.708135605E0,3.474909067E0,9.895488343E0
4.804661884E0,-2.705491066E0,-8.755815506E0,3.975934982E0,9.989596892E0
4.809687561E0,-2.047690868E0,-8.788303375E0,4.160454750E0,9.936634130E0
4.814713238E0,-1.328957081E0,-8.763855934E0,4.075085640E0,9.755901841E0
4.819738915E0,-6.676893234E-1,-8.664779663E0,3.813181400E0,9.490235405E0
4.824764592E0,-5.307769775E-2,-8.482665062E0,3.386056900E0,9.133663292E0
4.829790269E0,5.923700333E-1,-8.228292465E0,2.814399481E0,8.716452466E0
4.834815946E0,1.273936272E0,-7.874345303E0,2.181285143E0,8.269596873E0
4.839841624E0,1.939118385E0,-7.474927425E0,1.479306459E0,7.862764636E0
4.844867301E0,2.458639145E0,-7.026981354E0,7.349138260E-1,7.480873727E0
4.849892978E0,2.803546906E0,-6.565336704E0,3.264427185E-2,7.138948588E0
4.854918655E0,3.026100159E0,-6.091074944E0,-6.000417471E-1,6.827776083E0
4.859944332E0,3.030087471E0,-5.619503021E0,-1.111027956E0,6.480326181E0
4.864970009E0,2.877291679E0,-5.194204330E0,-1.491011620E0,6.122228490E0
4.869995686E0,2.643812180E0,-4.805786610E0,-1.797198176E0,5.771936336E0
4.875021363E0,2.367285728E0,-4.440133572E0,-2.013885021E0,5.419830323E0
4.880047040E0,2.085364342E0,-4.102125645E0,-2.115471840E0,5.064721152E0
4.885072717E0,1.783135414E0,-3.854120731E0,-2.176944256E0,4.772096480E0
4.890098394E0,1.517559052E0,-3.605051279E0,-2.143991470E0,4.460502172E0
4.895124071E0,1.302494049E0,-3.369413137E0,-2.029464245E0,4.143447931E0
4.900149749E0,1.128016472E0,-3.142530441E0,-1.918584108E0,3.850828965E0
4.905175426E0,9.985466003E-1,-2.919686317E0,-1.781473875E0,3.563048228E0
4.910201103E0,8.802385330E-1,-2.710506678E0,-1.626498818E0,3.281335815E0
4.915226780E0,7.728137970E-1,-2.500589848E0,-1.519521475E0,3.026406493E0
4.920252457E0,6.807956696E-1,-2.308899641E0,-1.487970114E0,2.829939108E0
4.925278134E0,6.278305054E-1,-2.082522154E0,-1.482586145E0,2.632324323E0
4.930303811E0,5.706062317E-1,-1.806746244E0,-1.473266602E0,2.400091236E0
4.935329488E0,5.041751862E-1,-1.529172182E0,-1.459112287E0,2.172917128E0
4.940355165E0,4.618406296E-1,-1.235203505E0,-1.520553827E0,2.012736547E0
4.945380842E0,5.247144699E-1,-8.863146305E-1,-1.642353058E0,1.938608384E0
4.950406519E0,6.492891312E-1,-4.825642109E-1,-1.756431341E0,1.933777560E0
4.955432196E0,7.348661423E-1,-1.906323433E-2,-1.771293402E0,1.917777873E0
4.960457874E0,7.670679092E-1,4.706118107E-1,-1.672852993E0,1.899554103E0
4.965483551E0,8.032121658E-1,9.431314468E-1,-1.523681402E0,1.963734128E0
4.970509228E0,8.860902786E-1,1.369349957E0,-1.352750063E0,2.119011094E0
4.975534905E0,9.674501419E-1,1.724771261E0,-1.184066057E0,2.304952951E0
4.980560582E0,1.022947311E0,2.047059059E0,-9.936594963E-1,2.494840914E0
4.985586259E0,1.028308868E0,2.297372341E0,-8.246667385E-1,2.648662688E0
4.990611936E0,9.451389313E-1,2.509061813E0,-6.341288090E-1,2.755140310E0
4.995637613E0,7.734775543E-1,2.667771816E0,-4.558413029E-1,2.814794004E0
5.000663290E0,5.230350494E-1,2.812058926E0,-2.994904518E-1,2.875923433E0
5.005688967E0,2.466917038E-1,2.894598246E0,-1.364860535E-1,2.908295763E0
5.010714644E0,-2.680778503E-3,2.949499846E0,4.736900330E-2,2.949881412E0
5.015740321E0,-1.866273880E-1,2.958097219E0,2.326254845E-1,2.973093264E0
5.020765999E0,-3.145809174E-1,2.939818621E0,4.618136883E-1,2.992451597E0
5.025791676E0,-3.960676193E-1,2.904393673E0,6.341698170E-1,2.999090449E0
5.030817353E0,-3.929100037E-1,2.837504387E0,7.975635529E-1,2.973536117E0
5.035843030E0,-3.817300797E-1,2.734506130E0,9.329450130E-1,2.914382958E0
5.040868707E0,-4.197053909E-1,2.586012125E0,1.049286604E0,2.822164719E0
5.045894384E0,-5.158085823E-1,2.445302486E0,1.102727652E0,2.731587637E0
5.050920061E0,-6.694293022E-1,2.313053131E0,1.102216244E0,2.648250560E0
5.055945738E0,-8.130602837E-1,2.223512888E0,1.104884148E0,2.612631923E0
5.060971415E0,-9.080333710E-1,2.191862822E0,1.129989862E0,2.627863071E0
5.065997092E0,-9.780063629E-1,2.209144354E0,1.201554298E0,2.698249053E0
5.071022769E0,-1.013238907E0,2.280501842E0,1.281353235E0,2.805210839E0
5.076048446E0,-9.946155548E-1,2.358144283E0,1.321687222E0,2.880444701E0
5.081074124E0,-8.650264740E-1,2.460988998E0,1.346940756E0,2.935811140E0
5.086099801E0,-6.297268867E-1,2.583811283E0,1.386287451E0,2.999071455E0
5.091125478E0,-3.418669701E-1,2.773992300E0,1.492985725E0,3.168739920E0
5.096151155E0,-5.941390991E-2,2.973462582E0,1.619787455E0,3.386550034E0
5.101176832E0,2.219181061E-1,3.133706570E0,1.762333870E0,3.602108435E0
5.106202509E0,4.872865677E-1,3.254053831E0,1.920914888E0,3.810016869E0
5.111228186E0,7.505970001E-1,3.300444841E0,2.048019648E0,3.956098644E0
5.116253863E0,9.923744202E-1,3.310693026E0,2.177279711E0,4.084855229E0
5.121279540E0,1.178989410E0,3.294004679E0,2.332417250E0,4.204836867E0
5.126305217E0,1.339344025E0,3.245534658E0,2.498369932E0,4.309198296E0
5.131330894E0,1.497469902E0,3.184255600E0,2.664908409E0,4.414027261E0
5.136356571E0,1.639012337E0,3.153040886E0,2.817375422E0,4.534934678E0
5.141382249E0,1.840424538E0,3.103678703E0,2.945903540E0,4.658146803E0
5.146407926E0,2.044190407E0,3.045534134E0,3.102936983E0,4.804394915E0
5.151433603E0,2.269401550E0,2.944928646E0,3.206937313E0,4.909911919E0
5.156459280E0,2.463545799E0,2.840188026E0,3.243349552E0,4.965384401E0
5.161484957E0,2.641133308E0,2.736119509E0,3.211994410E0,4.977835193E0
5.166510634E0,2.821574211E0,2.585176945E0,3.136635065E0,4.948019846E0
5.171536311E0,2.995643616E0,2.373565674E0,2.959811926E0,4.834064679E0
5.176561988E0,3.163738251E0,2.145039320E0,2.719846964E0,4.691268582E0
5.181587665E0,3.359642982E0,1.924046040E0,2.459873199E0,4.586952179E0
5.186613342E0,3.540484428E0,1.730062008E0,2.199078321E0,4.512658862E0
5.191639019E0,3.720863342E0,1.553951025E0,1.966239691E0,4.486166105E0
5.196664696E0,3.876938820E0,1.367128372E0,1.737471342E0,4.463014818E0
5.201690374E0,3.942028999E0,1.217829704E0,1.479198217E0,4.383004584E0
5.206716051E0,3.935587883E0,1.101539612E0,1.277405977E0,4.281822922E0
5.211741728E0,3.824494362E0,1.056872845E0,1.141365290E0,4.128734922E0
5.216767405E0,3.657047272E0,1.069754839E0,1.084790945E0,3.961709424E0
5.221793082E0,3.376547813E0,1.116862774E0,1.092244864E0,3.720410788E0
5.226818759E0,3.060114861E0,1.150991440E0,1.182266951E0,3.476613208E0
5.231844436E0,2.818042755E0,1.115272999E0,1.287705660E0,3.292929501E0
5.236870113E0,2.659785271E0,1.038825750E0,1.404282331E0,3.182078800E0
5.241895790E0,2.723708153E0,8.882591724E-1,1.594880581E0,3.278907520E0
5.246921467E0,3.056971550E0,6.631102562E-1,1.831129551E0,3.624613869E0
5.251947144E0,3.505732536E0,3.147623539E-1,2.008008718E0,4.052324638E0
5.256972821E0,3.988012314E0,-1.097335815E-1,2.130791426E0,4.522892412E0
5.261998499E0,4.307320595E0,-4.294569492E-1,2.180390358E0,4.846807825E0
5.267024176E0,4.358413696E0,-5.829575062E-1,2.089964628E0,4.868630357E0
5.272049853E0,4.208518982E0,-6.374366283E-1,1.855126143E0,4.643215532E0
5.277075582E0,3.963086128E0,-6.450419426E-1,1.553402662E0,4.305251514E0
5.282101311E0,3.660490990E0,-7.102372646E-1,1.310224295E0,3.952254921E0
5.287127040E0,3.401316643E0,-8.466391563E-1,1.149934769E0,3.688916201E0
5.292152769E0,3.142395973E0,-9.963445663E-1,1.025227547E0,3.452310309E0
5.297178499E0,2.897802353E0,-1.096916676E0,1.027865648E0,3.264504933E0
5.302204228E0,2.590660095E0,-1.133818388E0,1.149209976E0,3.052498556E0
5.307229957E0,2.173121452E0,-1.077904701E0,1.380266905E0,2.790962579E0
5.312255686E0,1.803186417E0,-1.010086060E0,1.678153992E0,2.662321528E0
5.317281415E0,1.633862495E0,-9.684000015E-1,2.076299906E0,2.813952117E0
5.322307144E0,1.655362129E0,-9.770894051E-1,2.583585739E0,3.220224023E0
5.327332874E0,1.776577950E0,-1.008346796E0,3.189260244E0,3.787396649E0
5.332358603E0,1.896981239E0,-1.063170195E0,3.748558521E0,4.333654309E0
5.337384332E0,1.978264809E0,-1.171201706E0,4.203273296E0,4.790902993E0
5.342410061E0,2.082481384E0,-1.285349607E0,4.481440067E0,5.106090227E0
5.347435790E0,2.233179092E0,-1.392142773E0,4.664621353E0,5.355729897E0
5.352461519E0,2.353623390E0,-1.463699579E0,4.738261223E0,5.489360522E0
5.357487249E0,2.453577995E0,-1.548370123E0,4.639494896E0,5.471965635E0
5.362512978E0,2.566764832E0,-1.708661795E0,4.319885731E0,5.307468281E0
5.367538707E0,2.602632523E0,-1.906364441E0,3.831417561E0,5.008760521E0
5.372564436E0,2.537698746E0,-2.088527918E0,3.293400288E0,4.652778658E0
5.377590165E0,2.367674828E0,-2.221170664E0,2.729463100E0,4.241397414E0
5.382615894E0,2.203103065E0,-2.289235592E0,2.148944616E0,3.835651923E0
5.387641624E0,2.034743309E0,-2.306463957E0,1.537381887E0,3.438531574E0
5.392667353E0,1.619086266E0,-2.171696186E0,1.047608376E0,2.904339506E0
5.397693082E0,-8.312692642E-1,-1.061020851E0,1.405376196E0,1.947268879E0
5.402718811E0,-3.494105339E0,7.750773430E-2,3.071512938E0,4.652845505E0
5.407744540E0,-2.237295628E0,-1.064040899E0,5.466167927E-1,2.537018857E0
5.412770269E0,-2.681674957E-1,-2.480503082E0,-1.686183214E0,3.011315855E0
5.417795999E0,1.012629509E0,-3.270542860E0,-2.947016954E0,4.517386197E0
5.422821728E0,1.570769310E0,-3.390619040E0,-3.465251207E0,5.096231905E0
5.427847405E0,1.637199402E0,-3.178623915E0,-3.627504349E0,5.093413362E0
5.432873082E0,1.453502655E0,-2.884299755E0,-3.817200422E0,5.000287403E0
5.437898759E0,1.002588272E0,-2.564578533E0,-4.124297619E0,4.959039942E0
5.442924436E0,2.428331375E-1,-2.103804588E0,-4.402407646E0,4.885299864E0
5.447950113E0,-9.158143997E-1,-1.438321829E0,-4.417004108E0,4.734702841E0
5.452975790E0,-1.793857574E0,-8.678975105E-1,-4.649808407E0,5.058842684E0
5.458001467E0,-2.186509609E0,-4.390747547E-1,-5.007569313E0,5.481729776E0
5.463027144E0,-2.558565140E0,-1.846520901E-1,-5.020412445E0,5.637809245E0
5.468052821E0,-2.852600574E0,-3.638982773E-3,-4.860939503E0,5.636140180E0
5.473078499E0,-2.944336414E0,2.141604424E-1,-4.768583298E0,5.608419410E0
5.478104176E0,-2.748048782E0,5.303087234E-1,-4.753005981E0,5.515801421E0
5.483129853E0,-2.665785789E0,8.242632151E-1,-4.685707569E0,5.453593233E0
5.488155530E0,-2.630108833E0,1.066661716E0,-4.625460625E0,5.426797000E0
5.493181207E0,-2.349303246E0,1.338141561E0,-4.830797195E0,5.535923601E0
5.498206884E0,-1.958220959E0,1.628166437E0,-5.176031590E0,5.768609736E0
5.503232561E0,-1.639849663E0,1.978713155E0,-5.553670883E0,6.119450379E0
5.508258238E0,-1.423937798E0,2.427170515E0,-5.817910194E0,6.462726560E0
5.513283915E0,-1.139487743E0,2.862484455E0,-6.210230827E0,6.932475496E0
5.518309592E0,-1.160509586E0,3.155118465E0,-6.322040558E0,7.160289928E0
5.523335269E0,-1.630335808E0,3.200093746E0,-6.219950676E0,7.182365992E0
5.528360946E0,-2.184615612E0,3.037046432E0,-5.966428757E0,7.042334025E0
5.533386624E0,-2.583225250E0,2.801601410E0,-5.567634583E0,6.746893952E0
5.538412301E0,-2.744036674E0,2.528847218E0,-5.312198639E0,6.491861051E0
5.543437978E0,-2.848095894E0,2.176915169E0,-5.120370865E0,6.250504593E0
5.548463655E0,-3.023669720E0,1.775626659E0,-4.902942657E0,6.027791910E0
5.553489332E0,-3.250822544E0,1.478450418E0,-4.317273617E0,5.602902313E0
5.558515009E0,-3.385633469E0,1.203612208E0,-3.307707548E0,4.883863794E0
5.563540686E0,-3.409069061E0,9.163475037E-1,-2.095621347E0,4.105249498E0
5.568566363E0,-3.574764252E0,5.817801952E-1,-8.733637333E-1,3.725610267E0
5.573592040E0,-3.935103893E0,2.324491739E-1,2.339751720E-1,3.948901069E0
5.578617717E0,-4.351157665E0,-7.462894917E-2,1.082818031E0,4.484488532E0
5.583643394E0,-4.727432251E0,-4.635351896E-1,1.683782816E0,5.039702881E0
5.588669071E0,-5.030724049E0,-8.572168350E-1,2.114511251E0,5.523962616E0
5.593694749E0,-5.189326763E0,-1.226285219E0,2.576264620E0,5.921995195E0
5.598720426E0,-5.475905418E0,-1.512985468E0,2.844113350E0,6.353239010E0
5.603746103E0,-5.350165367E0,-1.702793241E0,3.024378061E0,6.377353443E0
5.608771780E0,-5.100011349E0,-1.815019965E0,3.199597120E0,6.288229875E0
5.613797457E0,-5.036854267E0,-1.935267210E0,3.093721628E0,6.219829065E0
5.618823134E0,-4.792609215E0,-1.976740360E0,3.019326448E0,5.999411449E0
5.623848811E0,-4.444046021E0,-2.053971767E0,2.952667713E0,5.717218876E0
5.628874488E0,-4.034180164E0,-2.175947189E0,2.802695513E0,5.372565300E0
5.633900165E0,-3.505012512E0,-2.390211344E0,2.615597010E0,4.983931249E0
5.638925842E0,-2.889373779E0,-2.596134663E0,2.188446283E0,4.458440664E0
5.643951519E0,-2.674747467E0,-2.750339985E0,1.482260227E0,4.112874837E0
5.648977196E0,-2.597955704E0,-2.771028757E0,7.138085365E-1,3.864905799E0
5.654002874E0,-2.740950584E0,-2.700530529E0,-1.189622879E-1,3.849652877E0
5.659028551E0,-2.640273094E0,-2.567143917E0,-8.989684582E-1,3.790701016E0
5.664054228E0,-2.890094757E0,-2.451483250E0,-2.302564859E0,4.434436014E0
5.669079905E0,-2.830998421E0,-2.314300060E0,-4.076792717E0,5.476383449E0
5.674105582E0,-2.521410942E0,-2.073933840E0,-5.807339668E0,6.662124941E0
5.679131259E0,-2.114853382E0,-1.711451888E0,-7.272945404E0,7.765140517E0
5.684156936E0,-7.552194595E-1,-1.108811021E0,-7.551014900E0,7.669266219E0
5.689182613E0,1.083812714E0,-4.799705744E-1,-6.579609871E0,6.685528237E0
5.694208290E0,2.871759415E0,-1.966609955E-1,-4.928824425E0,5.707800618E0
5.699233967E0,4.882231712E0,3.058815002E-2,-3.952567101E0,6.281712252E0
5.704259644E0,6.962553024E0,1.706136465E-1,-2.774060965E0,7.496777165E0
5.709285321E0,8.272686005E0,1.358001232E-1,-1.358499289E0,8.384586795E0
5.714310999E0,8.738375664E0,5.953526497E-2,1.867852211E-1,8.740574490E0
5.719336676E0,8.619387627E0,-1.519656181E-2,1.757834673E0,8.796820831E0
5.724362353E0,8.481024742E0,-1.629424095E-2,3.022780180E0,9.003624059E0
5.729388030E0,8.830157280E0,1.519341469E-1,3.584911108E0,9.531335123E0
5.734413707E0,8.504297256E0,2.174263000E-1,2.875830650E0,8.980019374E0
5.739439384E0,7.040608406E0,2.211815119E-1,6.744258404E-1,7.076294101E0
5.744465061E0,4.707673073E0,-1.722750664E-1,-2.202702761E0,5.200361902E0
5.749490738E0,2.285456657E0,-1.640496254E-1,-4.045646667E0,4.649460331E0
5.754516415E0,6.489648819E-1,2.250121832E-1,-5.181627274E0,5.226953903E0
5.759542092E0,-2.748193741E-1,5.235031843E-1,-6.249283791E0,6.277191185E0
5.764567769E0,-4.779710770E-1,7.139883041E-1,-7.460238457E0,7.509553481E0
5.769593446E0,3.926277161E-3,1.006829381E0,-7.409393311E0,7.477488218E0
5.774619124E0,1.634256363E0,1.097169518E0,-3.509752274E0,4.024044711E0
5.779644801E0,3.638558388E0,2.420909405E-1,2.459442139E0,4.398473690E0
5.784670478E0,4.873517990E0,-1.400722265E0,6.785028458E0,8.470526054E0
5.789696155E0,5.336912155E0,-2.786964178E0,9.141125679E0,1.094577450E1
5.794721832E0,5.384647369E0,-3.335285902E0,1.066784000E1,1.240650514E1
5.799747509E0,5.469635010E0,-3.151926517E0,1.109812927E1,1.276792940E1
5.804773186E0,5.787834167E0,-2.418109179E0,9.783281326E0,1.162148312E1
5.809798863E0,6.163123131E0,-1.515143156E0,7.373665810E0,9.728858771E0
5.814824540E0,6.754508018E0,-6.184506416E-1,4.743394852E0,8.276814272E0
5.819850217E0,7.226840019E0,3.896617889E-2,1.731074333E0,7.431376277E0
5.824875894E0,6.642617226E0,2.290594578E-1,-1.541904926E0,6.823071350E0
5.829901571E0,5.244042397E0,-4.112386703E-2,-3.620010614E0,6.372295401E0
5.834927249E0,3.522008896E0,-7.012028694E-1,-3.589928150E0,5.077776703E0
5.839952926E0,1.841380119E0,-1.569914341E0,-1.392242908E0,2.791711321E0
5.844978603E0,6.857833862E-1,-2.438521147E0,1.626584768E0,3.010392374E0
5.850004280E0,3.664045334E-1,-3.331371546E0,4.075933456E0,5.276885653E0
5.855029957E0,5.713081360E-1,-4.108589649E0,5.433144569E0,6.835639093E0
5.860055634E0,7.143936157E-1,-4.478536606E0,6.251584053E0,7.723338109E0
5.865081311E0,5.067319870E-1,-4.363917351E0,7.146903038E0,8.389205861E0
5.870106988E0,1.008987427E-2,-4.087936401E0,8.239162445E0,9.197560743E0
5.875132665E0,-7.130804062E-1,-3.823621273E0,8.848726273E0,9.665842951E0
5.880158342E0,-1.208132267E0,-3.661852837E0,9.086071014E0,9.870432425E0
5.885184019E0,-1.523492813E0,-3.487717867E0,8.388101578E0,9.211159229E0
5.890209696E0,-1.558866501E0,-3.334773302E0,7.602274418E0,8.446617907E0
5.895235374E0,-2.094480038E0,-3.010719299E0,5.376754761E0,6.508515121E0
5.900261051E0,-2.312364101E0,-2.605241299E0,3.566122055E0,4.985131540E0
5.905286728E0,-2.705815315E0,-2.045381784E0,1.482819080E0,3.701861098E0
5.910312405E0,-3.117148876E0,-1.391545773E0,-3.637328148E-1,3.432975140E0
5.915338082E0,-3.182559490E0,-7.284078598E-1,-1.581320524E0,3.627649035E0
5.920363759E0,-3.284210682E0,-7.885813713E-2,-2.597572088E0,4.188035239E0
5.925389436E0,-3.569279671E0,5.681024790E-1,-3.720251083E0,5.186787630E0
5.930415113E0,-3.687330246E0,1.108775854E0,-4.405650139E0,5.851114542E0
5.935440790E0,-3.302866459E0,1.496090770E0,-4.163597107E0,5.521119027E0
5.940466467E0,-2.630875587E0,1.681401253E0,-3.146229744E0,4.432536309E0
5.945492144E0,-2.273650646E0,1.806709766E0,-2.251619816E0,3.674708048E0
5.950517821E0,-2.234772205E0,1.746368527E0,-1.764951468E0,3.340518452E0
5.955543499E0,-2.422360897E0,1.748465657E0,-1.329506636E0,3.269946844E0
5.960569176E0,-2.979838371E0,1.889535666E0,-9.496598244E-1,3.653988989E0
5.965594853E0,-3.486530781E0,2.040709257E0,-6.618263721E-1,4.093703129E0
5.970620530E0,-3.876266479E0,2.249838591E0,-7.174859047E-1,4.538942776E0
5.975646207E0,-3.891272545E0,2.253324032E0,-4.748096466E-1,4.521605402E0
5.980671884E0,-4.196690083E0,2.351911545E0,-5.423252583E-1,4.841261432E0
5.985697561E0,-4.878249168E0,2.349429607E0,-9.770548344E-1,5.501978788E0
5.990723238E0,-5.051070690E0,2.318140030E0,-9.117605686E-1,5.631908704E0
5.995748915E0,-5.294360638E0,2.257525444E0,-4.385843277E-1,5.772264019E0
6.000774592E0,-5.674444199E0,1.951830864E0,5.744743347E-2,6.001021654E0
6.005800269E0,-5.674470901E0,1.376756310E0,8.049552441E-1,5.894321920E0
6.010825946E0,-6.721402168E0,1.097750187E0,-7.315039635E-1,6.849627773E0
6.015851624E0,-8.787919998E0,1.324645519E0,-4.208793640E0,9.833420949E0
6.020877301E0,-1.020007515E1,1.583902717E0,-6.657847404E0,1.228320858E1
6.025902978E0,-8.743828773E0,1.661332130E0,-6.593523026E0,1.107651172E1
6.030928655E0,-5.789867401E0,1.791356444E0,-5.443613529E0,8.146437914E0
6.035954332E0,-3.037947655E0,2.221487045E0,-4.034592152E0,5.517432779E0
6.040980009E0,-1.033650398E0,2.989439011E0,-2.692521572E0,4.153895901E0
6.046005686E0,-1.116228104E-1,3.800018311E0,-1.836946011E0,4.222199600E0
6.051031363E0,3.599376678E-1,4.437007904E0,-1.483484507E0,4.692261773E0
6.056057040E0,2.809352875E-1,4.594504833E0,-1.395153522E0,4.809870336E0
6.061082717E0,-3.805007935E-1,4.073529720E0,-1.361851454E0,4.311967604E0
6.066108394E0,-1.325194836E0,3.092537165E0,-1.468543053E0,3.671041564E0
6.071134071E0,-5.993986130E-1,2.442662716E0,-1.898079395E0,3.150965762E0
6.076159749E0,3.115657806E0,3.227025986E0,-2.322250843E0,5.051125544E0
6.081185426E0,3.145825386E0,3.861073017E0,-3.255220413E0,5.949837153E0
6.086211103E0,1.143416405E0,3.948101044E0,-5.517914772E0,6.880573113E0
6.091236780E0,1.191934586E0,4.116800308E0,-5.861281872E0,7.261086559E0
6.096262457E0,3.905723572E0,6.005246162E0,-1.119585276E0,7.250595098E0
6.101288186E0,5.595846176E-1,9.184355736E0,6.128568172E0,1.105553586E1
6.106313915E0,-4.340408325E0,5.540944099E0,-4.637093544E-1,7.053809773E0
6.111339644E0,-5.460204601E0,3.119904041E0,-2.633152962E0,6.817707095E0
6.116365374E0,-5.796513557E0,2.459863186E0,5.432624817E-1,6.320255568E0
6.121391103E0,-5.545382977E0,2.115184307E0,3.545407057E0,6.913406411E0
6.126416832E0,-5.587375164E0,1.207178473E0,5.375785351E0,7.846980899E0
6.131442561E0,-5.631373405E0,-7.285589576E-1,6.363369465E0,8.528518953E0
6.136468290E0,-6.214377403E0,-3.064769506E0,7.980202198E0,1.056858201E1
6.141494019E0,-7.713626862E0,-4.518263817E0,8.711735725E0,1.248235101E1
6.146519749E0,-8.935718536E0,-5.090169430E0,6.490710735E0,1.216084769E1
6.151545478E0,-9.199962616E0,-5.832375050E0,2.551440716E0,1.118775047E1
6.156571207E0,-7.040080547E0,-5.872113705E0,-5.362989902E-1,9.183249429E0
6.161596936E0,-4.957876682E0,-5.131867886E0,-1.857733250E0,7.373451161E0
6.166622665E0,-2.496237755E0,-4.205611706E0,-2.529043436E0,5.505854470E0
6.171648394E0,6.616764069E-1,-3.612137318E0,-3.625823021E0,5.160614716E0
6.176674124E0,3.038925171E0,-3.458762169E0,-5.214699745E0,6.956378035E0
6.181699853E0,4.538390160E0,-3.860258341E0,-7.459884167E0,9.547169815E0
6.186725582E0,3.037677765E0,-3.400999546E0,-9.119484901E0,1.019604281E1
6.191751311E0,8.349723816E-1,-2.723214388E0,-1.012794113E1,1.052084916E1
6.196777040E0,-6.805481911E-1,-2.142831802E0,-8.965983391E0,9.243577886E0
6.201802769E0,-9.384698868E-1,-1.395381093E0,-6.316187859E0,6.536210155E0
6.206828499E0,-5.122375488E-2,-6.785048246E-1,-4.402575016E0,4.454846736E0
6.211854228E0,7.112941742E-1,4.031959772E-1,-2.905874729E0,3.018710708E0
6.216879957E0,1.046210289E0,1.911085129E0,-1.510572195E0,2.651156483E0
6.221905686E0,1.090167046E0,3.429085016E0,-5.073046684E-1,3.633792270E0
6.226931415E0,1.108404160E0,4.547174931E0,-2.287454605E-1,4.685902700E0
6.231957144E0,1.173653603E0,5.148036957E0,-4.843268394E-1,5.302293822E0
6.236982874E0,9.616193771E-1,5.497008324E0,-9.020884037E-1,5.652926306E0
6.242008603E0,2.349348068E-1,5.687620640E0,-1.623165607E0,5.919365633E0
6.247034332E0,-1.133404732E0,5.719322205E0,-2.884373426E0,6.504987535E0
6.252060061E0,-3.504104137E0,5.862408161E0,-4.707956314E0,8.295265391E0
6.257085738E0,-3.201600075E0,4.827364922E0,-7.354077339E0,9.361418089E0
6.262111415E0,-3.490654469E0,3.827922583E0,-8.416061401E0,9.882699501E0
6.267137092E0,-4.216082573E0,3.295871019E0,-8.715316772E0,1.022716307E1
6.272162769E0,-4.664658070E0,2.538064718E0,-8.332591057E0,9.880935236E0
6.277188446E0,-4.957612991E0,1.286750674E0,-7.895305634E0,9.411137281E0
6.282214124E0,-5.139144897E0,-1.181672215E-1,-7.686052322E0,9.246630417E0
6.287239801E0,-4.741238594E0,-1.399949074E0,-7.327683449E0,8.839352100E0
6.292265478E0,-3.488094807E0,-2.360860348E0,-6.667979240E0,7.886850709E0
6.297291155E0,-1.596086979E0,-2.881706238E0,-6.006574631E0,6.850595834E0
6.302316832E0,8.806304932E-1,-3.002789974E0,-4.911095619E0,5.823325328E0
6.307342509E0,3.378020287E0,-2.819024563E0,-2.793448925E0,5.211648246E0
6.312368186E0,6.020902634E0,-2.326419830E0,-3.127284050E-1,6.462298106E0
6.317393863E0,8.266078949E0,-1.776799679E0,5.882891178E0,1.030016927E1
6.322419540E0,1.026634216E1,-1.314961672E0,1.088439369E1,1.501988454E1
6.327445217E0,1.284684277E1,-5.441312790E-1,1.490032768E1,1.968139256E1
6.332470894E0,1.604085541E1,7.643563747E-1,1.959691238E1,2.533638210E1
6.337496571E0,1.658380127E1,1.955819726E0,2.226337814E1,2.782994254E1
6.342522249E0,1.387955284E1,3.093077898E0,2.152999878E1,2.580213102E1
6.347547926E0,1.033889294E1,3.929755211E0,1.799748039E1,2.112451144E1
6.352573603E0,8.873547554E0,3.889780521E0,1.379776478E1,1.685967234E1
6.357599280E0,9.224540710E0,2.871802092E0,1.246101952E1,1.576757451E1
6.362624957E0,1.002857876E1,1.133249402E0,1.305203056E1,1.649885293E1
6.367650634E0,9.914214134E0,-8.643424511E-1,1.359386826E1,1.684731385E1
6.372676311E0,7.843889236E0,-3.010482788E0,1.355867577E1,1.595077721E1
6.377701988E0,7.364608765E0,-4.026514053E0,1.118930721E1,1.398752564E1
6.382727665E0,7.675942421E0,-6.024104118E0,1.132261658E1,1.494695851E1
6.387753342E0,9.470192909E0,-7.625619411E0,1.010490417E1,1.580960827E1
6.392779019E0,8.242444038E0,-8.273063660E0,7.012544632E0,1.362193996E1
6.397804696E0,6.080864906E0,-9.438418388E0,4.190774441E0,1.198429181E1
6.402830374E0,4.410713196E0,-1.030695248E1,5.840616226E-1,1.122625442E1
6.407856051E0,2.721736908E0,-1.097807312E1,-3.592626810E0,1.186730419E1
6.412881728E0,8.020868301E-1,-1.148750114E1,-8.409197807E0,1.425905444E1
6.417907405E0,2.431277275E0,-1.125543022E1,-1.230748749E1,1.685437827E1
6.422933082E0,4.076743126E0,-1.083067703E1,-1.169690323E1,1.645420751E1
6.427958759E0,3.985321045E0,-9.355707169E0,-9.534065247E0,1.393952799E1
6.432984436E0,2.814573288E0,-7.495247841E0,-6.685238361E0,1.043038709E1
6.438010113E0,7.279262543E-1,-5.874845505E0,-4.025541306E0,7.158817580E0
6.443035790E0,-1.477261543E0,-4.867395401E0,-8.278269768E-1,5.153555778E0
6.448061467E0,-1.370088100E0,-4.988652229E0,-3.638961315E-1,5.186155885E0
6.453087144E0,-8.104829788E-1,-5.277740479E0,-1.012277603E-1,5.340568722E0
6.458112821E0,-3.161258698E-1,-5.562410831E0,5.634934902E-1,5.599810241E0
6.463138499E0,-6.444196701E-1,-5.446197510E0,9.070427418E-1,5.558693242E0
6.468164176E0,-1.495945454E0,-5.096286774E0,1.083193779E0,5.420636535E0
6.473189853E0,-1.808365822E0,-4.378190041E0,4.864952564E-1,4.761870705E0
6.478215530E0,-1.211916924E0,-3.230776787E0,-1.223136187E0,3.660973014E0
6.483241207E0,-9.638204575E-1,-1.587932587E0,-2.810296059E0,3.368715439E0
6.488266884E0,-1.342871189E0,3.927960396E-1,-3.706796169E0,3.962061282E0
6.493292561E0,-1.339896679E0,1.808732629E0,-4.146206856E0,4.717824512E0
6.498318238E0,-8.415155411E-1,2.472944260E0,-3.919347525E0,4.710083517E0
6.503343915E0,-4.996032715E-1,2.705118656E0,-3.444795132E0,4.408387899E0
6.508369592E0,-8.407049179E-1,2.672524452E0,-2.819273233E0,3.974603536E0
6.513395269E0,-1.907927513E0,2.590325356E0,-2.133100033E0,3.860063289E0
6.518420946E0,-3.356764793E0,2.582132339E0,-8.327000141E-1,4.316093907E0
6.523446624E0,-4.378978729E0,2.636623859E0,2.209310532E-1,5.116253572E0
6.528472301E0,-9.186255455E0,2.360978365E0,2.789882660E0,9.886604745E0
6.533497978E0,-1.164613152E1,2.493927717E0,3.629815578E0,1.245100863E1
6.538523655E0,-9.790027618E0,2.593245268E0,2.134205341E0,1.035009151E1
6.543549332E0,-6.023290634E0,3.075835705E0,9.984506369E-1,6.836497570E0
6.548575009E0,-2.687241077E0,3.530630112E0,-1.383277178E-1,4.439115695E0
6.553600686E0,-1.369653225E0,3.792651176E0,-7.054425478E-1,4.093629452E0
6.558626363E0,-1.007235527E0,4.042977810E0,-6.920164227E-1,4.223633472E0
6.563652040E0,-8.625707626E-1,4.104557991E0,-9.391313791E-1,4.298068446E0
6.568677717E0,-1.508553028E0,3.925731897E0,-9.114719629E-1,4.303241140E0
6.573703394E0,-2.182820797E0,3.751707554E0,-5.524030328E-1,4.375518862E0
6.578729071E0,-2.587835312E0,3.717215776E0,-1.212514043E-1,4.530925582E0
6.583754749E0,-2.651163101E0,3.755624771E0,3.267939687E-1,4.608706707E0
6.588780426E0,-2.544523716E0,3.843183517E0,7.017768621E-1,4.662311793E0
6.593806103E0,-2.679190636E0,3.826633453E0,7.429099679E-1,4.730021276E0
6.598831780E0,-3.298723698E0,3.663071394E0,7.084539533E-1,4.980118179E0
6.603857457E0,-4.258651733E0,3.424911976E0,6.602915525E-1,5.504736285E0
6.608883134E0,-5.223937511E0,3.265058756E0,3.793278933E-1,6.172035438E0
6.613908811E0,-6.105187416E0,3.444408655E0,2.715442181E-1,7.015055284E0
6.618934488E0,-5.739578724E0,4.379447937E0,1.418910027E0,7.357692153E0
6.623960165E0,-5.845228195E0,5.018020630E0,1.918744445E0,7.939068204E0
6.628985842E0,-5.919900894E0,5.470659256E0,2.185109615E0,8.351529400E0
6.634011519E0,-5.969117165E0,5.646829128E0,2.646820784E0,8.632653079E0
6.639037196E0,-6.041387558E0,5.690649986E0,3.048323870E0,8.841614067E0
6.644062874E0,-6.204218388E0,5.583665371E0,3.368631601E0,9.000962373E0
6.649088551E0,-6.373430729E0,5.421213150E0,3.636767149E0,9.123390081E0
6.654114228E0,-6.293570042E0,5.250164032E0,3.814659595E0,9.040181086E0
6.659139905E0,-6.039733887E0,5.112496853E0,4.012480736E0,8.872204413E0
6.664165582E0,-5.758553982E0,5.012135983E0,4.143363953E0,8.686191105E0
6.669191259E0,-5.375328064E0,5.163617134E0,4.042780876E0,8.479455815E0
6.674216936E0,-4.312819958E0,6.990375042E0,3.172456264E0,8.805125664E0
6.679242613E0,-4.106679916E0,8.595767021E0,1.724336028E0,9.681186154E0
6.684268290E0,-4.693703175E0,9.734340668E0,5.375322104E-1,1.082022082E1
6.689293967E0,-5.677703857E0,1.063735962E1,2.902531624E-2,1.205780176E1
6.694319644E0,-6.695312977E0,1.099649429E1,9.949618578E-2,1.287478163E1
6.699345321E0,-7.799833298E0,1.063288593E1,8.080327511E-1,1.321168345E1
6.704370999E0,-8.549140930E0,9.423438072E0,1.251397252E0,1.278495173E1
6.709396676E0,-8.384299278E0,6.851222515E0,-9.561144114E-1,1.086967705E1
6.714422353E0,-7.017243385E0,4.032996178E0,-7.026074409E0,1.071785821E1
6.719448030E0,-4.195841789E0,1.260023594E0,-1.292468452E1,1.364698567E1
6.724473707E0,-1.363454342E0,-9.004139900E-1,-1.506087399E1,1.514924679E1
6.729499384E0,7.272734642E-1,-2.531269073E0,-1.409397602E1,1.433793604E1
6.734525061E0,2.621430397E0,-3.895557404E0,-1.103781128E1,1.199502158E1
6.739550738E0,4.242180347E0,-5.311316013E0,-6.992460251E0,9.751957355E0
6.744576415E0,5.518791676E0,-5.669974327E0,-6.021751881E0,9.943196978E0
6.749602092E0,6.005844593E0,-6.311433792E0,-4.999226570E0,1.004473156E1
6.754627769E0,7.654257298E0,-7.180189610E0,-6.551548958E0,1.237196716E1
6.759653446E0,1.145709991E1,-8.432144165E0,-8.887670517E0,1.677369610E1
6.764679124E0,1.380340290E1,-9.172397614E0,-8.799657822E0,1.876434884E1
6.769704801E0,1.343828011E1,-9.314657211E0,-5.904152870E0,1.738416614E1
6.774730478E0,1.231863403E1,-8.687521935E0,-2.600821018E0,1.529660262E1
6.779756155E0,9.093288422E0,-6.516916275E0,1.137738585E0,1.124511188E1
6.784781832E0,5.041938782E0,-3.251840591E0,3.827584982E0,7.116601767E0
6.789807509E0,1.302599430E0,-4.207992554E-1,5.338945389E0,5.511639969E0
6.794833186E0,2.663969994E-1,8.991670609E-1,5.800450802E0,5.875772142E0
6.799858863E0,-3.565735817E0,1.034685135E0,8.576969147E0,9.346092498E0
6.804884540E0,-8.954670906E0,9.409246445E-1,4.464023590E0,1.004982472E1
6.809910217E0,-8.533332825E0,3.501877785E-1,6.941079497E-1,8.568674718E0
6.814935894E0,-6.780873299E0,-3.560304642E-1,-3.826904535E0,7.794369680E0
6.819961571E0,-5.067690849E0,-1.395665169E0,-9.290399551E0,1.067431008E1
6.824987249E0,-2.999736309E0,-1.984878540E0,-1.014492798E1,1.076372261E1
6.830012926E0,-1.065982580E0,-1.706567764E0,-5.795495510E0,6.134856201E0
6.835038603E0,-5.503129959E-1,-6.535129547E-1,-2.035117388E0,2.207176105E0
6.840064280E0,-7.905933857E-1,4.903326035E-1,1.008809090E0,1.372282676E0
6.845089957E0,-3.978567123E-1,7.412161827E-1,3.351488113E0,3.455454235E0
6.850115634E0,2.116580009E-1,4.364471436E-1,5.384098530E0,5.405904383E0
6.855141363E0,1.128245831E0,-4.557580948E-1,6.964028358E0,7.069536411E0
6.860167092E0,2.089113474E0,-1.991258621E0,7.621622562E0,8.149762971E0
6.865192821E0,2.217677593E0,-3.374345779E0,7.755657196E0,8.743827645E0
6.870218551E0,2.526492834E0,-4.771121025E0,7.082000256E0,8.905138376E0
6.875244280E0,3.372656822E0,-5.481806755E0,6.339913845E0,9.034352600E0
6.880270009E0,3.405837297E0,-7.552685738E0,4.048243999E0,9.221229258E0
6.885295738E0,3.487553596E0,-1.117706490E1,9.570016861E-1,1.174758111E1
6.890321467E0,3.540750027E0,-1.344970703E1,7.968711853E-1,1.393077649E1
6.895347196E0,2.062779427E0,-1.434905815E1,3.079205990E0,1.481998780E1
6.900372926E0,1.172931194E-1,-1.472374916E1,5.771548271E0,1.581497128E1
6.905398655E0,-1.469781280E0,-1.396265411E1,7.357275009E0,1.585072435E1
6.910424384E0,-3.191019297E0,-1.124886990E1,7.433682919E0,1.385566021E1
6.915450113E0,-4.342740059E0,-7.960968018E0,7.426755905E0,1.172148055E1
6.920475842E0,-4.168378830E0,-5.811561584E0,6.584515095E0,9.721392346E0
6.925501571E0,-3.119043589E0,-4.317703247E0,5.686354637E0,7.791381347E0
6.930527301E0,-2.031939983E0,-2.399262428E0,5.981501102E0,6.757484424E0
6.935553030E0,-1.575213194E0,-8.087921143E-2,6.863701820E0,7.042601844E0
6.940578759E0,-1.654053211E0,2.273759365E0,6.895073891E0,7.446335853E0
6.945604488E0,-1.798824310E0,3.985402584E0,5.871002197E0,7.320373587E0
6.950630217E0,-1.869109392E0,4.743709564E0,5.056962967E0,7.181171548E0
6.955655946E0,-1.776978254E0,4.779379845E0,4.602107048E0,6.868734432E0
6.960681676E0,-1.774846554E0,4.208039761E0,4.023634911E0,6.086650705E0
6.965707405E0,-1.632164836E0,3.236041546E0,3.752491474E0,5.217002895E0
6.970733134E0,-1.487960100E0,2.294211864E0,3.740045786E0,4.633074122E0
6.975758863E0,-1.457996845E0,1.272099972E0,3.445564747E0,3.951697049E0
6.980784592E0,-1.304873466E0,3.697586060E-1,2.798933983E0,3.110216653E0
6.985810321E0,-1.117675662E0,-2.204322815E-2,2.218859673E0,2.484556909E0
6.990836051E0,-1.047246337E0,-4.645576477E-1,1.836784363E0,2.164789942E0
6.995861780E0,-1.729558229E0,-1.469619751E0,1.620356679E0,2.788675250E0
7.000887509E0,-3.142174721E0,-2.720313072E0,1.641608000E0,4.468583893E0
7.005913238E0,-4.630137920E0,-3.899572372E0,1.631433606E0,6.269483030E0
7.010938967E0,-5.583385468E0,-5.183512688E0,1.626500368E0,7.790282441E0
7.015964644E0,-6.364502430E0,-6.399301529E0,1.467792273E0,9.143979735E0
7.020990321E0,-6.752775192E0,-6.973025322E0,1.113003492E0,9.770457088E0
7.026015999E0,-7.001586914E0,-7.058545113E0,8.312908411E-1,9.976789207E0
7.031041676E0,-7.363779068E0,-6.670769691E0,6.860270500E-1,9.959670856E0
7.036067353E0,-7.694565773E0,-5.891347885E0,7.252874970E-1,9.718043234E0
7.041093030E0,-7.667656422E0,-5.031331062E0,7.427033186E-1,9.201024697E0
7.046118707E0,-7.201772213E0,-4.081144333E0,6.849792004E-1,8.306049517E0
7.051144384E0,-6.451095581E0,-2.969309807E0,6.374766827E-1,7.130204166E0
7.056170061E0,-5.608643532E0,-1.906784058E0,5.133401155E-1,5.946110139E0
7.061195738E0,-4.786214352E0,-9.082527161E-1,2.785761952E-1,4.879587638E0
7.066221415E0,-4.023585320E0,3.078842163E-2,3.311675787E-2,4.023839394E0
7.071247092E0,-3.284035206E0,7.570219040E-1,-1.998616457E-1,3.376079690E0
7.076272769E0,-2.698131323E0,1.265606880E0,-4.925454557E-1,3.020641395E0
7.081298446E0,-2.257023811E0,1.623556137E0,-7.683481574E-1,2.884519008E0
7.086324124E0,-1.812921643E0,1.864376545E0,-9.460933208E-1,2.767250866E0
7.091349801E0,-1.366617560E0,2.045436382E0,-1.111984253E0,2.699622664E0
7.096375478E0,-1.052801371E0,2.228833199E0,-1.246870756E0,2.762385714E0
7.101401155E0,-7.380059361E-1,2.400087357E0,-1.279332399E0,2.818113459E0
7.106426832E0,-4.706251621E-1,2.535177231E0,-1.300509691E0,2.887894924E0
7.111452509E0,-2.176272869E-1,2.619674206E0,-1.368021011E0,2.963365666E0
7.116478186E0,5.420565605E-2,2.663132191E0,-1.481517553E0,3.047967450E0
7.121503863E0,3.828879595E-1,2.689492702E0,-1.683365345E0,3.195886899E0
7.126529540E0,5.054297447E-1,2.847039700E0,-1.848773479E0,3.432063178E0
7.131555217E0,7.051139474E-1,2.786566257E0,-2.130581617E0,3.577920515E0
7.136580894E0,1.040153265E0,2.594536304E0,-2.360798597E0,3.658812303E0
7.141606571E0,1.444194555E0,2.357282639E0,-2.677844763E0,3.848809157E0
7.146632249E0,1.898831367E0,2.142004013E0,-3.028164387E0,4.166955880E0
7.151657926E0,2.409407616E0,1.891513348E0,-3.339034557E0,4.531249229E0
7.156683603E0,2.899732590E0,1.653977871E0,-3.623708010E0,4.927002296E0
7.161709280E0,3.403670549E0,1.367592812E0,-3.924003839E0,5.371507185E0
7.166734957E0,3.920885086E0,1.133337975E0,-4.156917572E0,5.825612287E0
7.171760634E0,4.312181473E0,9.612436295E-1,-4.450102806E0,6.270750621E0
7.176786311E0,4.529380798E0,8.182430267E-1,-4.400663376E0,6.367939244E0
7.181811988E0,4.132817268E0,6.329526901E-1,-4.109058380E0,5.862181203E0
7.186837665E0,3.200670004E0,5.540351868E-1,-3.709467649E0,4.930658547E0
7.191863342E0,2.246747494E0,5.050926208E-1,-3.255018234E0,3.987246739E0
7.196889019E0,1.420870304E0,4.623317719E-1,-2.870738983E0,3.236319730E0
7.201914696E0,9.299665689E-1,3.971691132E-1,-2.628844976E0,2.816630440E0
7.206940374E0,6.979907155E-1,2.523441315E-1,-2.582091808E0,2.686645996E0
7.211966051E0,8.396953344E-1,-4.847431183E-2,-2.486447811E0,2.624854421E0
7.216991728E0,1.201274037E0,-3.712587357E-1,-2.461932659E0,2.764417620E0
7.222017405E0,1.696085691E0,-6.538772583E-1,-2.456174374E0,3.055659453E0
7.227043082E0,2.428118229E0,-7.770614624E-1,-2.364559650E0,3.477171982E0
7.232068759E0,3.505548477E0,-1.109507561E0,-2.503402233E0,4.448246834E0
7.237094436E0,4.955305576E0,-1.330504417E0,-3.216576815E0,6.055713151E0
7.242120113E0,7.086917400E0,-1.377455711E0,-5.085293770E0,8.830741487E0
7.247145790E0,9.507450104E0,-1.354443550E0,-7.348991394E0,1.209271679E1
7.252171467E0,1.122589397E1,-1.375231743E0,-8.249155045E0,1.399858982E1
7.257197144E0,1.161960125E1,-1.430167198E0,-7.624767303E0,1.397131303E1
7.262222821E0,1.072125149E1,-1.395823479E0,-5.996743679E0,1.236343364E1
7.267248499E0,9.095120430E0,-1.331068039E0,-4.307421207E0,1.015119871E1
7.272274176E0,7.119452000E0,-1.146080017E0,-3.114504337E0,7.854949615E0
7.277299853E0,5.149802208E0,-9.133911133E-1,-2.318962574E0,5.721217836E0
7.282325530E0,3.929335594E0,-7.433671951E-1,-1.844881296E0,4.404073114E0
7.287351207E0,3.401369333E0,-6.264905930E-1,-1.654146433E0,3.833797625E0
7.292376884E0,3.379572868E0,-5.818510056E-1,-1.536172867E0,3.757644268E0
7.297402561E0,3.466980219E0,-6.476459503E-1,-1.491028070E0,3.829172472E0
7.302428238E0,3.659059763E0,-8.716144562E-1,-1.394485950E0,4.011610796E0
7.307453915E0,4.046363354E0,-1.153303146E0,-1.194535017E0,4.373794513E0
7.312479592E0,4.604406357E0,-1.492900848E0,-9.733929634E-1,4.937287181E0
7.317505269E0,5.293903828E0,-1.871554375E0,-8.086318970E-1,5.672919800E0
7.322530946E0,5.998270512E0,-2.217811584E0,-6.771738529E-1,6.430902097E0
7.327556624E0,6.610139370E0,-2.522457123E0,-6.180100441E-1,7.102018646E0
7.332582301E0,7.266561985E0,-2.953008652E0,-6.215193272E-1,7.868257078E0
7.337607978E0,7.932118416E0,-3.456586838E0,-9.212882519E-1,8.701452015E0
7.342633655E0,8.831893921E0,-4.257320404E0,-2.213282585E0,1.005115650E1
7.347659332E0,9.844251633E0,-5.300847054E0,-4.095253944E0,1.190711445E1
7.352685009E0,1.075228977E1,-6.016180992E0,-5.567294121E0,1.352038952E1
7.357710686E0,1.174655247E1,-6.613109589E0,-6.019213200E0,1.476298211E1
7.362736363E0,1.249350166E1,-7.153711319E0,-6.220714569E0,1.568312658E1
7.367762040E0,1.312906170E1,-7.623510361E0,-6.691582680E0,1.659118592E1
7.372787717E0,1.311562443E1,-7.783307076E0,-7.357667923E0,1.693324394E1
7.377813394E0,1.211468792E1,-7.542386055E0,-8.149385452E0,1.643367683E1
7.382839071E0,1.057464600E1,-7.254850388E0,-9.011466980E0,1.567362527E1
7.387864749E0,8.953724861E0,-6.767508507E0,-1.007056713E1,1.507927991E1
7.392890426E0,8.037519455E0,-6.190829277E0,-1.109950066E1,1.503751977E1
7.397916103E0,7.435919285E0,-5.836804390E0,-1.158492184E1,1.495231069E1
7.402941780E0,6.305289268E0,-5.754809380E0,-1.094423199E1,1.387986735E1
7.407967457E0,4.881316185E0,-5.803152084E0,-9.338701248E0,1.202976154E1
7.412993134E0,3.692274094E0,-6.079379082E0,-7.686128139E0,1.047226355E1
7.418018811E0,2.553745031E0,-6.517958641E0,-5.961231709E0,9.194655079E0
7.423044488E0,1.396816373E0,-7.033933640E0,-3.919530630E0,8.172517286E0
7.428070165E0,5.272912979E-2,-7.651958466E0,-1.447527766E0,7.787848570E0
7.433095842E0,-1.092646718E0,-8.180829048E0,1.323147058E0,8.358861101E0
7.438121519E0,-1.640528440E0,-8.390687943E0,3.940708876E0,9.414040798E0
7.443147196E0,-1.705890894E0,-8.333730698E0,6.055922508E0,1.044199830E1
7.448172874E0,-1.366913080E0,-8.038141251E0,7.622978687E0,1.116198774E1
7.453198551E0,-1.376898527E0,-7.618266106E0,8.797998428E0,1.171915545E1
7.458224228E0,-1.669674039E0,-7.738089561E0,9.441564560E0,1.232107880E1
7.463249905E0,-1.925380945E0,-8.223862648E0,9.687560081E0,1.285254173E1
7.468275582E0,-1.782064080E0,-8.902335167E0,9.708166122E0,1.329194543E1
7.473301259E0,-1.739929676E0,-9.529194832E0,9.742808342E0,1.373882178E1
7.478326936E0,-2.245352745E0,-9.927394867E0,1.004481888E1,1.430011063E1
7.483352613E0,-3.091445208E0,-1.049337387E1,1.033601379E1,1.504995381E1
7.488378290E0,-3.260104895E0,-1.137020683E1,1.076888180E1,1.599620900E1
7.493403967E0,-3.690287352E0,-1.187835979E1,1.097987461E1,1.659130190E1
7.498429644E0,-4.032634735E0,-1.218569565E1,1.081751537E1,1.678606446E1
7.503455321E0,-4.000802994E0,-1.232637215E1,1.006001663E1,1.640578586E1
7.508480999E0,-3.825577497E0,-1.207183743E1,8.711817741E0,1.537075373E1
7.513506728E0,-3.455214024E0,-1.091186714E1,6.582634926E0,1.320372792E1
7.518532457E0,-3.257938862E0,-9.250073433E0,4.482988358E0,1.078309829E1
7.523558186E0,-2.420600414E0,-7.308117867E0,-1.522620916E-1,7.700069926E0
7.528583915E0,1.281058311E0,-4.755766869E0,-1.187317181E1,1.285420700E1
7.533609644E0,2.420623302E0,-3.612027168E0,-1.238055706E1,1.312190347E1
7.538635374E0,1.175679684E0,-3.416289330E0,-8.157249451E0,8.921545500E0
7.543661103E0,-8.050804138E-1,-3.356847763E0,-4.072579861E0,5.338772153E0
7.548686832E0,-2.859673500E0,-3.181405067E0,-8.514580727E-1,4.361656976E0
7.553712561E0,-4.146310329E0,-2.575487137E0,1.669199228E0,5.158609251E0
7.558738290E0,-4.921432018E0,-1.790016174E0,3.473920584E0,6.284327747E0
7.563764019E0,-5.298353672E0,-8.751373291E-1,4.617655754E0,7.082454493E0
7.568789749E0,-5.219341278E0,1.802196503E-1,5.373164654E0,7.492990117E0
7.573815478E0,-4.904529572E0,1.271790981E0,6.028629303E0,7.875038660E0
7.578841207E0,-4.421349525E0,2.333158016E0,6.379582882E0,8.105000660E0
7.583866936E0,-3.794902802E0,3.230030537E0,6.084270477E0,7.864650773E0
7.588892665E0,-3.074084520E0,3.975817204E0,5.314879417E0,7.314715394E0
7.593918394E0,-2.193096876E0,4.544975281E0,4.387544632E0,6.687078742E0
7.598944124E0,-1.330328465E0,4.859066010E0,3.445060015E0,6.103174159E0
7.603969853E0,-5.734057426E-1,4.853727341E0,2.533495188E0,5.505094105E0
7.608995582E0,-1.146464348E-1,4.598783970E0,1.827154636E0,4.949793114E0
7.614021311E0,8.389139175E-2,4.021076679E0,1.608624458E0,4.331716527E0
7.619047040E0,8.199214935E-3,3.211027145E0,1.790617943E0,3.676557517E0
7.624072769E0,-1.498818398E-1,2.293185234E0,2.236663342E0,3.206840499E0
7.629098499E0,-3.189368248E-1,1.435194016E0,2.962218046E0,3.306998384E0
7.634124228E0,-6.387825012E-1,6.947956085E-1,4.000603199E0,4.110426982E0
7.639149957E0,-1.182339191E0,6.344938278E-2,5.255146027E0,5.386883287E0
7.644175686E0,-1.988674164E0,-5.146603584E-1,6.524722099E0,6.840445796E0
7.649201415E0,-3.000100136E0,-1.070559025E0,7.566784382E0,8.209928339E0
7.654227144E0,-4.019505501E0,-1.467580795E0,8.403749466E0,9.430441291E0
7.659252874E0,-4.853839874E0,-1.674492359E0,8.873535156E0,1.025199065E1
7.664278603E0,-5.629864216E0,-1.713003635E0,8.983531952E0,1.073934816E1
7.669304332E0,-6.329842091E0,-1.576271534E0,8.728267670E0,1.089652189E1
7.674330061E0,-6.973896980E0,-1.267543316E0,8.088994026E0,1.075517222E1
7.679355738E0,-7.649169922E0,-8.957619667E-1,7.319656372E0,1.062494985E1
7.684381415E0,-8.304252625E0,-5.027618408E-1,6.663443565E0,1.065902722E1
7.689407092E0,-8.951089859E0,-1.353483200E-1,6.241870880E0,1.091335333E1
7.694432769E0,-9.546031952E0,1.884016991E-1,6.135241032E0,1.134915872E1
7.699458446E0,-9.994562149E0,4.789719582E-1,6.201604843E0,1.177202571E1
7.704484124E0,-1.029964638E1,7.701520920E-1,6.369544983E0,1.213453555E1
7.709509801E0,-1.047995090E1,1.076068878E0,6.547886848E0,1.240411695E1
7.714535478E0,-1.048292923E1,1.396073580E0,6.760706425E0,1.255181174E1
7.719561155E0,-1.035135078E1,1.772183180E0,7.019029617E0,1.263162195E1
7.724586832E0,-1.016053963E1,2.207942724E0,7.206167221E0,1.265070838E1
7.729612509E0,-1.007089520E1,2.659014702E0,7.206725597E0,1.266610370E1
7.734638186E0,-9.931837082E0,3.099941730E0,7.168771267E0,1.263496371E1
7.739663863E0,-9.688108444E0,3.519682407E0,7.178524494E0,1.256100408E1
7.744689540E0,-9.436607361E0,3.840604067E0,7.236577034E0,1.249671338E1
7.749715217E0,-9.206842422E0,4.104779720E0,7.305428505E0,1.244927506E1
7.754740894E0,-8.942267418E0,4.316244602E0,7.404681206E0,1.238642070E1
7.759766571E0,-8.773300171E0,4.474400520E0,7.505633354E0,1.238247100E1
7.764792249E0,-8.662514687E0,4.617374420E0,7.722908974E0,1.249010129E1
7.769817926E0,-8.610578537E0,4.673718929E0,7.965050220E0,1.262646967E1
7.774843603E0,-8.699254990E0,4.663039207E0,8.097620010E0,1.276684855E1
7.779869280E0,-8.799201965E0,4.614580631E0,8.225646019E0,1.289889771E1
7.784894957E0,-8.899938583E0,4.567504406E0,8.253269196E0,1.296871064E1
7.789920634E0,-9.076142311E0,4.508151531E0,8.190553665E0,1.303015575E1
7.794946311E0,-9.263440132E0,4.437379837E0,8.085662842E0,1.307209266E1
7.799971988E0,-9.411666870E0,4.375164032E0,7.900571346E0,1.304379397E1
7.804997665E0,-9.380660057E0,4.312263966E0,7.802611351E0,1.294114166E1
7.810023342E0,-9.198091507E0,4.282573700E0,7.781471729E0,1.278657996E1
7.815049019E0,-8.896752357E0,4.243040085E0,7.769336700E0,1.255062486E1
7.820074696E0,-8.533418655E0,4.198398590E0,7.726922989E0,1.225361675E1
7.825100374E0,-8.092822075E0,4.129216194E0,7.629540443E0,1.186398259E1
7.830126051E0,-7.583381653E0,4.063806057E0,7.481275082E0,1.140138912E1
7.835151728E0,-7.027784824E0,3.987076044E0,7.272044182E0,1.087056399E1
7.840177405E0,-6.419960022E0,3.840775490E0,7.168694973E0,1.036135274E1
7.845203082E0,-5.844573975E0,3.638438225E0,7.165558815E0,9.936926627E0
7.850228759E0,-5.333140373E0,3.378994942E0,7.137866020E0,9.529382161E0
7.855254436E0,-4.893239975E0,2.998761654E0,7.033221245E0,9.077586132E0
7.860280113E0,-4.594572544E0,2.333396435E0,6.756774902E0,8.497578647E0
7.865305790E0,-4.487004280E0,1.314269543E0,6.305795670E0,7.850068208E0
7.870331467E0,-4.127730846E0,1.166448593E-1,5.209627151E0,6.647705094E0
7.875357144E0,-2.865709305E0,-1.391284943E0,2.190913200E0,3.866272658E0
7.880382821E0,-6.275477409E-1,-3.065412521E0,-5.878240585E0,6.659150282E0
7.885408499E0,4.581276894E0,-4.234627724E0,-2.492740440E1,2.569621879E1
7.890434176E0,1.373195553E1,-8.666717529E0,-5.050594330E1,5.305213383E1
7.895459853E0,1.843249130E1,-2.033447456E1,-5.377725601E1,6.037583006E1
7.900485530E0,2.387565041E1,-3.115920639E1,-2.670982361E1,4.748007479E1
7.905511207E0,2.443451881E1,-3.692203140E1,-6.047811985E0,4.468621871E1
7.910536884E0,3.273476410E1,-4.175667953E1,5.205781937E0,5.331308687E1
7.915562561E0,4.014783859E1,-4.529124832E1,5.520495415E0,6.077517575E1
7.920588238E0,4.146638870E1,-4.586203003E1,-4.027500629E0,6.195972847E1
7.925613915E0,3.314280701E1,-4.554397583E1,-1.485887909E1,5.825363232E1
7.930639592E0,1.816586113E1,-3.950488281E1,-1.481122589E1,4.593480912E1
7.935665269E0,5.554586887E0,-2.883485031E1,-4.341911316E0,2.968424198E1
7.940690946E0,-1.223057270E0,-1.902935410E1,7.947329998E0,2.065846656E1
7.945716624E0,-5.291642189E0,-1.071028709E1,1.229714870E1,1.714443329E1
7.950742301E0,-9.124267578E0,-4.019587517E0,1.232725716E1,1.585467160E1
7.955767978E0,-1.115504456E1,5.592236519E-1,1.328625298E1,1.735719644E1
7.960793655E0,-1.151374435E1,4.271544933E0,1.469020367E1,1.914717966E1
7.965819332E0,-1.123525810E1,7.240822315E0,1.580567265E1,2.069975411E1
7.970845009E0,-1.105005264E1,9.160239220E0,1.650800323E1,2.187527867E1
7.975870686E0,-1.185505486E1,1.019828224E1,1.609418488E1,2.244036704E1
7.980896363E0,-1.295971489E1,1.065818501E1,1.461784744E1,2.225382173E1
7.985922040E0,-1.246163559E1,1.073142815E1,1.201021671E1,2.036421413E1
7.990947717E0,-1.175449371E1,1.001953983E1,9.090449333E0,1.792192986E1
7.995973394E0,-1.062171364E1,8.869558334E0,6.767960072E0,1.540438734E1
8.000999071E0,-9.178563118E0,7.809494019E0,4.909591675E0,1.301300535E1
8.006024749E0,-7.688138962E0,6.879336357E0,3.601188660E0,1.092709061E1
8.011050426E0,-6.088003159E0,6.066634178E0,2.679650545E0,9.002686252E0
8.016076103E0,-4.664493084E0,5.149003029E0,1.910408020E0,7.205510858E0
8.021101780E0,-3.606798172E0,4.048623562E0,1.298063874E0,5.575420668E0
8.026127457E0,-2.820854425E0,2.889225483E0,9.280087948E-1,4.143192477E0
8.031153134E0,-2.111489296E0,1.732698441E0,8.417232037E-1,2.858168799E0
8.036178811E0,-1.379259109E0,5.883598328E-1,9.130598903E-1,1.755619932E0
8.041204488E0,-6.110384464E-1,-4.914283752E-1,1.068197250E0,1.325109504E0
8.046230165E0,1.044154167E-2,-1.525947571E0,1.381475687E0,2.058421747E0
8.051255842E0,5.897686481E-1,-2.448256493E0,1.778445244E0,3.082961952E0
8.056281519E0,1.145203829E0,-3.306273460E0,2.227754831E0,4.147990790E0
8.061307196E0,1.603750229E0,-4.090560913E0,2.640989304E0,5.126356199E0
8.066332874E0,1.916472435E0,-4.734236717E0,3.102133274E0,5.975708723E0
8.071358551E0,1.934175730E0,-4.859606743E0,3.456399202E0,6.269251063E0
8.076384228E0,1.704828262E0,-4.414390564E0,3.453753471E0,5.858472198E0
8.081409905E0,1.491466761E0,-3.748197556E0,3.237218380E0,5.172334178E0
8.086435634E0,9.401414394E-1,-2.779787064E0,2.873807907E0,4.107292774E0
8.091461363E0,2.049098015E-1,-1.800941467E0,2.196176529E0,2.847555011E0
8.096487092E0,-1.430871248E0,-5.340089798E-1,3.517414331E-1,1.567252422E0
8.101512821E0,-3.190184593E0,8.010330200E-1,-1.197960138E0,3.500577114E0
8.106538551E0,-3.971396923E0,1.812198162E0,-1.833573580E0,4.734770086E0
8.111564280E0,-4.123446465E0,2.418602943E0,-2.148092508E0,5.240873245E0
8.116590009E0,-4.080800533E0,2.721165180E0,-2.396887541E0,5.459188842E0
8.121615738E0,-3.766138792E0,2.753687382E0,-2.542593241E0,5.313320618E0
8.126641467E0,-3.002752781E0,2.439869881E0,-2.486094236E0,4.598929642E0
8.131667196E0,-1.434307575E0,1.932813168E0,-2.244294882E0,3.290875944E0
8.136692926E0,-6.860876083E-2,1.619768620E0,-2.088145256E0,2.643616491E0
8.141718655E0,4.287291765E-1,1.409643173E0,-2.058922768E0,2.531810725E0
8.146744384E0,4.940834045E-1,1.183032036E0,-2.088284016E0,2.450431256E0
8.151770113E0,3.584247828E-1,9.834442139E-1,-2.060359955E0,2.310998483E0
8.156795842E0,-1.012732983E-1,9.308481216E-1,-2.146894932E0,2.342198189E0
8.161821571E0,-7.397465110E-1,9.825506210E-1,-2.585985899E0,2.863556127E0
8.166847301E0,-1.516444087E0,1.124794960E0,-3.189212322E0,3.706189635E0
8.171873030E0,-1.965278149E0,1.276895523E0,-3.534026384E0,4.240533323E0
8.176898759E0,-2.066284895E0,1.386704445E0,-3.591561317E0,4.369415886E0
8.181924488E0,-1.776659250E0,1.511795044E0,-3.305304050E0,4.045624453E0
8.186950217E0,-1.202858686E0,1.594603062E0,-2.810791731E0,3.448213755E0
8.191975946E0,-4.611300230E-1,1.610971928E0,-2.320288897E0,2.862099232E0
8.197001676E0,2.843271494E-1,1.641909122E0,-1.888066888E0,2.518234315E0
8.202027405E0,8.983087540E-1,1.710945606E0,-1.530008554E0,2.464796069E0
8.207053134E0,1.427942395E0,1.808157444E0,-1.223669410E0,2.608796591E0
8.212078863E0,1.906234264E0,1.918966770E0,-1.013043761E0,2.888324808E0
8.217104592E0,2.323046207E0,2.024049759E0,-8.844359517E-1,3.205549572E0
8.222130321E0,2.634914398E0,2.128035545E0,-7.810776830E-1,3.475829615E0
8.227156051E0,2.836965799E0,2.259495735E0,-7.227099538E-1,3.698108381E0
8.232181780E0,2.920368433E0,2.413535595E0,-6.814275980E-1,3.849421960E0
8.237207509E0,2.872458935E0,2.527878284E0,-5.867563486E-1,3.871107331E0
8.242233238E0,2.800783634E0,2.573802471E0,-4.067332745E-1,3.825477759E0
8.247258967E0,2.832438469E0,2.455610752E0,-1.432389021E-1,3.751432957E0
8.252284696E0,2.993001699E0,2.063249588E0,2.999174595E-2,3.635375846E0
8.257310426E0,3.196651459E0,1.573804379E0,-1.790523529E-3,3.563066653E0
8.262336103E0,3.327488422E0,1.173845291E0,-3.421015739E-1,3.545014169E0
8.267361780E0,3.326401234E0,9.065561295E-1,-8.919725418E-1,3.561236330E0
8.272387457E0,3.258788586E0,6.526250839E-1,-1.456834555E0,3.628772446E0
8.277413134E0,3.219083071E0,2.978200912E-1,-2.033803940E0,3.819365273E0
8.282438811E0,3.187493801E0,-4.131317139E-3,-2.410294056E0,3.996204604E0
8.287464488E0,3.121282578E0,-1.764173508E-1,-2.619285345E0,4.078502633E0
8.292490165E0,3.017235994E0,-2.955875397E-1,-2.714076281E0,4.069065629E0
8.297515842E0,2.782048464E0,-3.713226318E-1,-2.820340633E0,3.978944011E0
8.302541519E0,2.542430401E0,-3.560371399E-1,-3.149842024E0,4.063523048E0
