"Time (s)","Linear Acceleration x (m/s^2)","Linear Acceleration y (m/s^2)","Linear Acceleration z (m/s^2)","Absolute acceleration (m/s^2)"
9.283610200E-2,1.999999955E-2,6.847381592E-4,-2.967500687E-2,3.579210641E-2
1.028376640E-1,-9.333332628E-2,-4.453372955E-2,-1.842737198E-2,1.050425195E-1
1.128397470E-1,-3.999999911E-2,-1.365585327E-1,2.430868149E-2,1.443576973E-1
1.228389660E-1,1.303851582E-9,-9.594240189E-1,8.643245697E-2,9.633094091E-1
1.329736540E-1,3.333333135E-2,-2.189125061E0,6.112537384E-1,2.273105976E0
1.428455810E-1,6.285714358E-2,-1.859250069E0,6.057081223E-1,1.956436599E0
1.528486020E-1,-8.500000089E-2,-1.696844101E0,1.101932764E0,2.025033511E0
1.628271430E-1,-3.999999911E-2,-1.490529060E0,1.033403397E0,1.814166326E0
1.728377160E-1,1.899898017E-10,-1.323475838E0,9.513297081E-1,1.629913036E0
1.828433930E-1,3.636363521E-2,-2.117693901E0,8.479619026E-1,2.281444534E0
1.928392270E-1,7.000000030E-2,-9.823980331E-1,7.264256477E-1,1.223805588E0
2.028413100E-1,-8.307692409E-2,-9.806747437E-1,6.076076031E-1,1.156638114E0
2.128379240E-1,-3.999999911E-2,-8.920555115E-1,5.042519569E-1,1.025491624E0
2.228379240E-1,1.799124183E-10,-8.139181137E-1,4.133262634E-1,9.128533814E-1
2.328371430E-1,3.749999776E-2,-7.442989349E-1,3.325250149E-1,8.160637474E-1
2.428405290E-1,7.294117659E-2,-6.816930771E-1,2.554442883E-1,7.316267156E-1
2.528405290E-1,9.650368094E-1,-7.193765640E-1,1.907477379E-1,1.218681002E0
2.628394870E-1,9.642795920E-1,-6.625680923E-1,1.363794804E-1,1.177892598E0
2.728423520E-1,9.553064108E-1,-6.104393005E-1,9.066486359E-2,1.137306729E0
2.828397470E-1,9.302205443E-1,-5.623235703E-1,4.288411140E-2,1.087822185E0
2.928374040E-1,8.871008158E-1,-5.176715851E-1,-1.123118401E-2,1.027160098E0
3.028392270E-1,8.149489164E-1,-5.716857910E-1,-7.056045532E-2,9.979705196E-1
3.129630290E-1,7.280448675E-1,-5.286989212E-1,-1.388659477E-1,9.104150866E-1
3.228396950E-1,-3.121221662E-1,-4.883508682E-1,-1.910500526E-1,6.102515381E-1
3.328500600E-1,-2.616559267E-1,-4.503374100E-1,-2.201526165E-1,5.654509540E-1
3.428358410E-1,-2.134464532E-1,-4.143981934E-1,-2.014222145E-1,5.077953914E-1
3.528364140E-1,-3.601090908E-1,-4.767408371E-1,-1.518461704E-1,6.164557101E-1
3.628374040E-1,-3.090708256E-1,-4.409914017E-1,-7.632064819E-2,5.438961600E-1
3.728381850E-1,-2.601017952E-1,-4.069576263E-1,3.522396088E-2,4.842604474E-1
3.828392270E-1,-1.744736284E-1,-3.554906845E-1,8.493366241E-1,9.371165215E-1
3.928402680E-1,-3.243380785E-1,-4.222936630E-1,8.981459141E-1,1.044123178E0
4.028389660E-1,-2.759751678E-1,-3.904619217E-1,9.274950027E-1,1.043489236E0
4.128379240E-1,-2.292330265E-1,-3.598766327E-1,9.164714813E-1,1.010929744E0
4.228381850E-1,-1.839765608E-1,-3.304357529E-1,8.711791039E-1,9.497305895E-1
4.328436540E-1,-1.400852948E-1,-3.020448685E-1,8.016247749E-1,8.680191658E-1
4.428402680E-1,-2.921883166E-1,-3.719911575E-1,7.115809917E-1,8.544582737E-1
4.528407890E-1,-2.457219362E-1,-3.429660797E-1,6.281836033E-1,7.567163545E-1
4.628374040E-1,-2.005788982E-1,-3.148918152E-1,5.363006592E-1,6.534578385E-1
4.728371430E-1,-1.566623449E-1,-2.876996994E-1,4.469497204E-1,5.541464246E-1
4.828379240E-1,-1.138846576E-1,-2.613258362E-1,3.743209839E-1,4.705072867E-1
4.929618310E-1,-2.675152421E-1,-3.333883286E-1,3.065545559E-1,5.260112909E-1
5.028413620E-1,-2.223444283E-1,-3.062667847E-1,2.526752949E-1,4.550617462E-1
5.128493310E-1,-1.782923341E-1,-2.799053192E-1,2.059907913E-1,3.905987074E-1
5.228265700E-1,-1.352859735E-1,-2.542552948E-1,1.751577854E-1,3.370879698E-1
5.328486020E-1,-9.325861931E-2,-2.292709351E-1,1.627643108E-1,2.962339491E-1
5.428428720E-1,-2.479823977E-1,-3.028278351E-1,1.565902233E-1,4.215690516E-1
5.528400080E-1,-2.037378550E-1,-2.770566940E-1,1.605699062E-1,3.795421189E-1
5.628397470E-1,-1.604631096E-1,-2.519149780E-1,1.780629158E-1,3.477297337E-1
5.728436540E-1,-1.181010827E-1,-2.273683548E-1,1.926953793E-1,3.205865619E-1
5.828384450E-1,-2.336086035E-1,-2.819461823E-1,2.188162804E-1,4.265526859E-1
5.928366220E-1,-1.900232732E-1,-2.570962906E-1,2.124736309E-1,3.838650685E-1
6.028410490E-1,-1.472955644E-1,-2.327852249E-1,1.825220585E-1,3.304530921E-1
6.128394870E-1,-1.053795740E-1,-2.089862823E-1,1.612460613E-1,2.842189528E-1
6.228371430E-1,-6.423255801E-2,-1.856698990E-1,1.522874832E-1,2.485771720E-1
6.328371430E-1,-2.203664780E-1,-2.610893250E-1,1.442966461E-1,3.708780693E-1
6.428376640E-1,-1.773094237E-1,-2.370033264E-1,1.612689495E-1,3.370710349E-1
6.528394870E-1,-1.350209266E-1,1.223372459E0,1.755766869E-1,1.243261034E0
6.628382370E-1,-9.343724698E-2,1.339577675E0,1.875214577E-1,1.355862516E0
6.729561020E-1,-5.257534981E-2,2.348847389E0,2.023432255E-1,2.358132949E0
6.828374040E-1,-2.092011273E-1,2.466442108E0,2.437193394E-1,2.487267758E0
6.930121430E-1,-1.665573716E-1,3.511562347E0,3.175697327E-1,3.529824643E0
7.028364140E-1,-1.246103272E-1,3.602547646E0,9.587025642E-1,3.730011780E0
7.128377160E-1,-8.332835138E-2,4.447117805E0,1.042516232E0,4.568439611E0
7.228363620E-1,-4.268165678E-2,4.429094315E0,2.840095758E0,5.261638727E0
7.328397470E-1,-1.479631543E0,4.362772942E0,2.640682697E0,5.310019054E0
7.428392270E-1,-1.612337589E0,4.235651970E0,2.641832113E0,5.245918130E0
7.528368830E-1,-2.592336655E0,4.051523209E0,2.643520117E0,5.488465018E0
7.628374040E-1,-3.406937122E0,3.144679070E0,2.685693264E0,5.358094373E0
7.728387060E-1,-3.432812452E0,3.036808014E0,2.491094828E0,5.216508189E0
7.828420910E-1,-3.488629818E0,2.929386139E0,2.496890783E0,5.194834429E0
7.928361020E-1,-4.201291561E0,2.856432915E0,2.503065586E0,5.663514554E0
8.028478200E-1,-4.227705479E0,2.823076248E0,2.509604216E0,5.669335626E0
8.128486020E-1,-4.268506050E0,2.857903481E0,2.516492367E0,5.720182693E0
8.228444350E-1,-4.283009052E0,2.927415848E0,2.326281071E0,5.685553070E0
8.328459970E-1,-4.255470753E0,3.498205185E0,2.336328030E0,5.983719538E0
8.428504240E-1,-4.157799244E0,3.490777016E0,2.346623898E0,5.914343788E0
8.529381850E-1,-3.432349920E0,3.450375557E0,2.357159376E0,5.407616645E0
8.628307370E-1,-2.370044708E0,3.371887207E0,2.367925644E0,4.753294343E0
8.728625080E-1,-1.152633786E0,3.270317078E0,2.181324244E0,4.096549022E0
8.828291740E-1,4.767321050E-1,3.158659935E0,1.103888035E0,3.379789177E0
8.928379770E-1,5.106528997E-1,2.489029884E0,2.589812279E-1,2.554037475E0
9.028374560E-1,2.338466883E0,2.368829727E0,-5.091679096E-1,3.367348155E0
9.128491220E-1,3.159436464E0,1.652470589E0,-6.668641567E-1,3.627313830E0
9.228517270E-1,3.287731171E0,1.499317169E0,-1.671146393E0,3.981188075E0
9.328493830E-1,4.052479744E0,5.194597244E-1,-1.722372293E0,4.433846727E0
9.428496430E-1,4.010646820E0,-1.367259979E0,-1.664269924E0,4.552414980E0
9.528486020E-1,3.932569742E0,-1.332615852E0,-1.523100615E0,4.422759915E0
9.628501640E-1,3.811575651E0,-1.397426605E0,-3.654844761E-1,4.076087458E0
9.728509450E-1,3.136322737E0,-1.362773895E0,6.246668100E-1,3.476187800E0
9.828462580E-1,2.968141317E0,-2.892840385E0,2.305426598E0,4.742718648E0
9.928504240E-1,1.853504896E0,-3.009218216E0,2.320995092E0,4.228225738E0
1.002843914E0,2.261884212E-1,-3.943891525E0,3.690785408E0,5.406231450E0
1.012847560E0,6.551302969E-2,-4.037400723E0,4.333917141E0,5.923490047E0
1.022850424E0,1.044472381E-1,-4.917987823E0,4.375247955E0,6.583335638E0
1.032915789E0,1.430027634E-1,-5.001818657E0,4.391402245E0,6.657556109E0
1.042835372E0,-1.284267306E0,-5.850572586E0,4.351772785E0,7.403814454E0
1.052860529E0,-1.292695880E0,-5.909057140E0,4.278472424E0,7.409004333E0
1.062835893E0,-1.240239501E0,-6.625288963E0,4.195549965E0,7.939476518E0
1.072837195E0,-1.101076603E0,-6.668290138E0,4.123852253E0,7.917361963E0
1.082837664E0,1.896699220E-1,-7.352169991E0,4.071716309E0,8.406500577E0
1.092838185E0,2.275032103E-1,-7.389675140E0,4.070646286E0,8.439740374E0
1.102837143E0,1.667499423E0,-7.932750702E0,4.133321285E0,9.099089673E0
1.112840529E0,2.388328314E0,-7.920043945E0,4.864712715E0,9.596699330E0
1.122838445E0,3.327264071E0,-7.979926109E0,4.996766567E0,9.985869168E0
1.132839227E0,3.317872286E0,-7.969021797E0,5.014013767E0,9.982680951E0
1.142842091E0,3.257638931E0,-7.936650753E0,5.014005661E0,9.936945675E0
1.152840268E0,3.143674374E0,-7.880901814E0,5.028252602E0,9.862789980E0
1.162838185E0,2.402823448E0,-7.800133228E0,5.074343681E0,9.610650483E0
1.172839747E0,2.279871225E0,-7.712395668E0,5.818697453E0,9.926535135E0
1.182836883E0,1.633162141E0,-7.618759155E0,5.870495796E0,9.755789591E0
1.192838445E0,1.549909115E0,-7.515291214E0,6.524716377E0,1.007242494E1
1.202861622E0,1.461544156E0,-7.383992672E0,6.572745800E0,9.993019886E0
1.212923393E0,1.383431196E0,-7.228726864E0,7.131461143E0,1.024822482E1
1.222834279E0,1.314296365E0,-6.475575447E0,7.134355068E0,9.724169607E0
1.232859904E0,1.248160005E0,-6.358987331E0,7.139659882E0,9.642062357E0
1.242845320E0,1.174963593E0,-6.217614174E0,7.122777939E0,9.527498676E0
1.252833810E0,1.076250076E0,-5.537222862E0,7.042914391E0,9.023402594E0
1.262837924E0,-1.405299902E-1,-5.420203209E0,6.898775101E0,8.774477158E0
1.272842872E0,-9.972575307E-2,-5.269718170E0,6.723356247E0,8.543031900E0
1.282840268E0,-5.925174057E-2,-4.384877682E0,6.589124203E0,7.914999735E0
1.292838445E0,-1.910015196E-2,-3.481851578E0,6.622227669E0,7.481814922E0
1.302861883E0,-1.380218565E-1,4.492845535E-1,1.052425098E1,1.053474088E1
1.312840008E0,-9.726784378E-2,2.048022270E0,1.046314144E1,1.066213792E1
1.322839487E0,1.369257331E0,3.588611603E0,1.040311718E1,1.108953768E1
1.332838445E0,2.047242641E0,4.495382309E0,1.034415436E1,1.146303598E1
1.342842352E0,2.156852007E0,4.539381027E0,1.018698025E1,1.135924985E1
1.352838706E0,2.980052471E0,4.451849937E0,1.013080788E1,1.146005885E1
1.362837404E0,3.069580555E0,3.293452263E0,1.007561779E1,1.103572501E1
1.372835060E0,3.095968962E0,1.481941223E0,7.461629391E0,8.213226331E0
1.382838185E0,2.965237856E0,3.256750107E-1,5.506782532E0,6.262855068E0
1.392914956E0,1.507561088E0,-2.589467049E0,4.555600166E0,5.452666587E0
1.402856987E0,-2.788020372E-1,-3.812249660E0,4.579382896E0,5.965041975E0
1.412842872E0,-2.370963097E-1,-3.881752968E0,4.630259037E0,6.046777614E0
1.422842143E0,-1.956984699E-1,-3.782992363E0,4.597494602E0,5.957036656E0
1.432836674E0,-1.305141568E0,-2.615374565E0,4.501854897E0,5.367520483E0
1.442842872E0,-1.371697903E0,-1.144996643E0,4.390657425E0,4.740300104E0
1.452840008E0,-1.428398252E0,3.910264969E-1,4.261180401E0,4.511195151E0
1.462840268E0,-1.432648778E0,1.625360489E0,3.488425732E0,4.106506219E0
1.472840789E0,-1.357218146E0,2.477892876E0,3.349027872E0,4.381550170E0
1.482840268E0,-2.656770945E-1,2.661763191E0,1.649004340E0,3.142416732E0
1.492836622E0,-2.241624892E-1,2.653699875E0,9.028280973E-1,2.812022479E0
1.502858497E0,9.632521272E-1,2.566612244E0,-1.092849374E-1,2.743591855E0
1.512840008E0,1.032801032E0,1.872344017E0,-6.882609427E-2,2.139412798E0
1.522837664E0,1.102193594E0,1.703636169E0,-2.863644809E-2,2.029292232E0
1.532837404E0,1.127539396E0,2.638874054E-1,-1.874035299E-1,1.173073628E0
1.542850685E0,1.114581347E0,2.820434570E-1,-1.464463621E-1,1.159002427E0
1.552847872E0,1.053715467E0,3.000955582E-1,-1.057596132E-1,1.100708284E0
1.562838445E0,9.561229944E-1,3.180427551E-1,-6.533807516E-2,1.009748206E0
1.572864904E0,-1.515541077E-1,3.358898163E-1,-2.517668903E-2,3.693568490E-1
1.582838341E0,-3.095822334E-1,2.542705536E-1,-1.840046793E-1,4.408541660E-1
1.592957977E0,-2.678867579E-1,2.725448608E-1,-1.430989802E-1,4.080702566E-1
1.602859487E0,-2.264624685E-1,2.907171249E-1,-1.024546176E-1,3.824900588E-1
1.612837456E0,-1.853043139E-1,3.087863922E-1,-6.206670403E-2,3.654298845E-1
1.622842872E0,-1.444073766E-1,3.267574310E-1,-2.193049341E-2,3.579173867E-1
1.632844956E0,-3.025398254E-1,2.452440262E-1,-1.808143556E-1,4.293818924E-1
1.642843914E0,-2.609390020E-1,2.636260986E-1,-1.399557292E-1,3.964536402E-1
1.652839487E0,-2.195999771E-1,2.819080353E-1,-9.934993833E-2,3.708998525E-1
1.662825737E0,-1.387640536E-1,3.199806213E-1,-1.923406869E-2,3.493036072E-1
1.672842872E0,-2.969856858E-1,2.385520935E-1,-1.781671941E-1,4.205367379E-1
1.682836883E0,8.778700829E-1,2.570219040E-1,-1.373496354E-1,9.249762504E-1
1.692838966E0,9.212363958E-1,-1.037685394E0,-9.677699208E-2,1.390982840E0
1.702838706E0,9.924553037E-1,-1.079428673E0,-5.644496530E-2,1.467419444E0
1.712837664E0,1.078105092E0,-1.129621506E0,-1.634935290E-2,1.561608990E0
1.722838966E0,1.161623478E0,-1.192014694E0,-1.753299832E-1,1.673621444E0
1.732838966E0,1.768646836E0,-1.250349998E0,-1.345522404E-1,2.170159224E0
1.742842872E0,1.779873729E0,-1.305123329E0,-9.401193261E-2,2.209102903E0
1.752855424E0,1.764037848E0,-1.356765747E0,-5.370504409E-2,2.226101312E0
1.762855633E0,1.724672556E0,-1.381265640E0,-1.362761855E-2,2.209655155E0
1.772876310E0,1.650231361E0,-1.372381210E0,-1.726521850E-1,2.153253935E0
1.782836154E0,1.535567045E0,-1.314944267E0,-1.319110990E-1,2.025943019E0
1.792837716E0,7.459813952E-1,-1.210423470E0,-9.140048921E-2,1.424769198E0
1.802837143E0,-2.675219476E-1,3.732070923E-1,-5.111651123E-2,4.620221033E-1
1.812838445E0,-2.262718230E-1,3.910474777E-1,-1.105543226E-2,4.519284128E-1
1.822837924E0,-3.841610551E-1,3.093481064E-1,-1.701207012E-1,5.217442095E-1
1.832839487E0,-3.422905803E-1,3.275575638E-1,-1.294135153E-1,4.911259074E-1
1.842838706E0,-2.608804405E-1,1.389081001E0,-4.914785922E-2,1.414220684E0
1.852838445E0,-2.196992487E-1,1.424662590E0,-9.098939598E-3,1.441531840E0
1.862838185E0,-3.776795864E-1,1.459599495E0,-1.681994796E-1,1.517024595E0
1.872841570E0,-3.358928859E-1,1.489078522E0,-1.227709532E0,1.958940930E0
1.882837404E0,-2.943355739E-1,1.484513283E0,-1.979612112E0,2.491842136E0
1.892837924E0,-2.530039847E-1,1.430801392E0,-2.680297375E0,3.048802659E0
1.902838966E0,-2.118945867E-1,1.339227676E0,-2.779623032E0,3.092690460E0
1.912838185E0,-3.699676394E-1,2.529516220E-1,-2.869229078E0,2.904020675E0
1.922836362E0,-3.282667696E-1,2.715444565E-1,-2.921045542E0,2.951948936E0
1.932842404E0,-2.867884934E-1,2.900495529E-1,-2.935063362E0,2.963270714E0
1.942837872E0,-2.455293834E-1,3.084669113E-1,-2.896652699E0,2.923359945E0
1.952839435E0,-2.044860870E-1,3.268003464E-1,-2.802869558E0,2.829256225E0
1.962840581E0,-3.626452684E-1,2.455539703E-1,-2.660943508E0,2.696744092E0
1.972840529E0,-3.210239112E-1,2.642192841E-1,-1.725516558E0,1.774901567E0
1.982843133E0,-2.796187997E-1,2.827987671E-1,-1.642241716E0,1.689709937E0
1.992837143E0,-2.384266853E-1,3.012914658E-1,-1.549227357E0,1.596160780E0
2.002841831E0,-1.974443644E-1,1.471417427E0,-1.442909241E0,2.070275489E0
2.012840008E0,-3.158882558E-1,1.538341522E0,3.704473376E-2,1.570876297E0
2.022840789E0,-2.745424807E-1,1.590077400E0,7.666890323E-2,1.615424970E0
2.032847820E0,-2.334039211E-1,1.663487434E0,1.161025465E-1,1.683789665E0
2.042845216E0,-1.924695820E-1,1.741087914E0,1.553484201E-1,1.758568962E0
2.052848602E0,-3.507750034E-1,2.371833801E0,-4.629202187E-3,2.397636360E0
2.062845997E0,-3.092880547E-1,2.389706612E0,3.520155698E-2,2.409895421E0
2.072848081E0,-2.513929009E-1,2.408273697E0,6.796837598E-2,2.422313004E0
2.082843654E0,-1.945076287E-1,2.442579269E0,9.931207448E-2,2.452323305E0
2.092849904E0,-1.385525614E-1,2.471058846E0,1.308373064E-1,2.478396060E0
2.102871779E0,-2.840764225E-1,2.499364853E0,-3.805955127E-2,2.515744942E0
2.112839487E0,-2.282287180E-1,2.522559166E0,-7.136248052E-3,2.532872681E0
2.122839747E0,-1.734466553E-1,2.565764427E0,1.887278080E0,3.189835323E0
2.132835893E0,-1.196719781E-1,2.641036034E0,1.978969574E0,3.302379943E0
2.142840060E0,-6.835646927E-2,3.291091919E0,2.036025524E0,3.870575999E0
2.152868654E0,-1.143237352E0,3.323253632E0,2.049552441E0,4.068374559E0
2.162844435E0,-1.196763754E0,3.398279190E0,2.092105150E0,4.166227178E0
2.172853549E0,-1.235994458E0,4.084686279E0,2.175814629E0,4.790251935E0
2.182849122E0,-1.220072031E0,4.151135445E0,2.685662985E0,5.092473555E0
2.192848341E0,-1.527959704E-1,4.312352180E0,1.076109767E0,4.447217126E0
2.202847820E0,-1.023021862E-1,4.317231178E0,-3.677383959E-1,4.334072255E0
2.212851466E0,1.083194852E0,4.285645485E0,-3.966794014E-1,4.438177876E0
2.222846258E0,1.248013139E0,4.212477684E0,-4.210149944E-1,4.413587957E0
2.232847560E0,2.228813887E0,4.064038277E0,-4.412593842E-1,4.656042128E0
2.242844695E0,2.317206621E0,2.963500023E0,-6.567600369E-1,3.818784186E0
2.252845477E0,2.364290714E0,2.210909843E0,-6.686845422E-1,3.305318734E0
2.262836102E0,2.365663767E0,1.343031883E0,-6.524106264E-1,2.797452291E0
2.272837664E0,2.277470589E0,-3.290939331E-2,-5.921341181E-1,2.353418391E0
2.282852768E0,2.142906904E0,-1.350116730E-2,7.090567350E-1,2.257209280E0
2.292839643E0,1.361316800E0,-1.414192200E0,8.608501554E-1,2.143405234E0
2.302825164E0,1.200925589E0,-2.396660805E0,1.678764343E0,3.162981979E0
2.312819122E0,1.045296431E0,-3.348846436E0,1.740000248E0,3.915995140E0
2.322839799E0,8.839423656E-1,-4.205643654E0,1.787895203E0,4.654606525E0
2.332837664E0,-4.071236849E-1,-4.993384361E0,1.783612490E0,5.317979935E0
2.342842352E0,-6.219421625E-1,-5.664312363E0,1.703060508E0,5.947407981E0
2.352840268E0,-6.346127987E-1,-5.785646439E0,1.595067501E0,6.034954718E0
2.362839487E0,-6.253204346E-1,-6.684143066E0,1.436913967E0,6.865385344E0
2.372837664E0,-5.734375119E-1,-6.854235649E0,1.201030254E0,6.982252544E0
2.382836102E0,-7.592483163E-1,-7.461329937E0,1.088306665E0,7.578411036E0
2.392840008E0,-7.035984397E-1,-7.472018242E0,9.991886616E-1,7.571293506E0
2.402841049E0,-6.500116587E-1,-7.476133347E0,9.598574638E-1,7.565474957E0
2.412840008E0,-5.948953032E-1,-7.464987278E0,9.697288275E-1,7.551179344E0
2.422837924E0,-5.421075821E-1,-7.435009956E0,1.019737244E0,7.524168906E0
2.432838966E0,-6.888092756E-1,-7.388847351E0,1.903307915E0,7.661077236E0
2.442838445E0,-6.342756152E-1,-7.313879967E0,1.938530564E0,7.592960323E0
2.452836883E0,-5.808043480E-1,-7.213231087E0,2.672163486E0,7.714174881E0
2.462856414E0,-5.275806785E-1,-7.080606461E0,2.680258751E0,7.589276395E0
2.472837820E0,-4.745995402E-1,-6.266992092E0,2.689614773E0,6.836260837E0
2.482839279E0,-6.228264570E-1,-6.136703491E0,2.684855938E0,6.727220373E0
2.492840893E0,4.692880511E-1,-5.396370888E0,2.610725880E0,6.013064082E0
2.502839904E0,5.723263621E-1,-5.242635250E0,2.517664433E0,5.843921288E0
2.512837716E0,1.211292982E0,-4.400264263E0,2.379873991E0,5.147169755E0
2.522837404E0,1.293345213E0,-4.233307838E0,2.237632513E0,4.959902858E0
2.532838445E0,1.347636938E0,-3.420577049E0,2.084043741E0,4.226075127E0
2.542844174E0,1.317233205E0,-3.234519958E0,1.980704069E0,4.015023199E0
2.552840529E0,1.266933680E0,-9.204044342E-1,4.120381832E0,4.407926010E0
2.562838185E0,1.330666542E0,1.048905373E0,5.122346878E0,5.395304761E0
2.572838966E0,2.394097567E0,1.023629189E0,4.997710228E0,5.635301890E0
2.582838185E0,2.447913885E0,2.918955803E0,4.756232262E0,6.093794441E0
2.592838445E0,3.072922468E0,3.109058380E0,4.555454731E0,6.313577774E0
2.602836883E0,3.112180233E0,3.769018173E0,4.425023079E0,6.593329435E0
2.612837143E0,3.944845915E0,3.758244514E0,4.233989716E0,6.900208695E0
2.622836622E0,4.038328648E0,2.761613846E0,3.365905762E0,5.938344121E0
2.632837404E0,4.564096928E0,1.425489426E0,2.086615086E0,5.216987961E0
2.642868654E0,4.353436470E0,2.102832794E-1,9.905123711E-1,4.469646844E0
2.652835997E0,3.048253059E0,-8.926773071E-1,8.431854248E-1,3.286286833E0
2.663192612E0,2.144933701E0,-1.499406815E0,8.281126022E-1,2.744946604E0
2.672823289E0,1.891248345E0,-1.444048405E0,7.670874596E-1,2.500103852E0
2.682832977E0,7.594316006E-1,-1.252761364E0,6.025414467E-1,1.584046586E0
2.692840789E0,5.310745239E-1,1.531014442E-1,4.061598778E-1,6.858906972E-1
2.702841310E0,-5.274659395E-1,1.974974632E0,-3.667654991E-1,2.076839437E0
2.712843133E0,-6.941406727E-1,2.003972054E0,-4.648118019E-1,2.171125348E0
2.722837143E0,-8.304167986E-1,3.438357353E0,-1.141206980E0,3.716752173E0
2.732841049E0,-9.537612200E-1,3.612639904E0,-1.308834791E0,3.959024634E0
2.742841310E0,-9.532488585E-1,3.578530788E0,-2.023506880E0,4.220088397E0
2.752839227E0,-9.569290876E-1,3.442540169E0,-2.097673655E0,4.143311581E0
2.762839747E0,-2.002084732E0,1.867594719E0,-2.176431417E0,3.497585885E0
2.772837664E0,-1.917293787E0,1.858355999E0,-2.896162033E0,3.939194969E0
2.782840008E0,-1.834143877E0,8.275523186E-1,-2.927211285E0,3.552110993E0
2.792836883E0,-1.751054883E0,6.662135124E-1,-2.991638899E0,3.529863588E0
2.802837143E0,-1.669648051E0,5.310163498E-1,-4.608116150E0,4.929953086E0
2.812836362E0,-1.792046666E0,4.622087479E-1,-4.688530445E0,5.040573967E0
2.822852508E0,-1.716015458E0,4.956016541E-1,-4.569304466E0,4.906003807E0
2.832845216E0,-1.607742786E0,1.630320549E0,-4.453142166E0,5.007320352E0
2.842845529E0,-1.502746820E0,1.589100838E0,-4.316086292E0,4.838604175E0
2.852824018E0,-1.400961757E0,2.774005890E0,-4.179396629E0,5.208181900E0
2.862836831E0,-1.499642372E0,3.460412025E0,-4.241442680E0,5.675668651E0
2.872836622E0,-1.404650807E0,3.507078171E0,-4.052124023E0,5.540067715E0
2.882839747E0,-1.311051726E0,4.030460358E0,-3.866861343E0,5.737254045E0
2.892839747E0,-1.219212651E0,3.924042702E0,-3.684057236E0,5.518774169E0
2.902837404E0,-1.123037100E0,3.745430946E0,-3.489552975E0,5.240843946E0
2.912839487E0,-1.186970353E0,2.063647270E0,-5.075709343E0,5.606278981E0
2.922836102E0,-4.723048210E-2,9.800863266E-1,-4.943466663E0,5.039907001E0
2.932839227E0,8.002793789E-2,9.430046082E-1,-4.803645134E0,4.895984961E0
2.942840268E0,1.950101852E-1,9.110231400E-1,-4.654215336E0,4.746547432E0
2.952838706E0,3.024467230E-1,7.841482162E-1,-4.492082119E0,4.570028907E0
2.962836362E0,4.126946926E-1,-2.470111847E-1,-4.327828407E0,4.354472432E0
2.972840008E0,5.062584877E-1,-9.918413162E-1,-4.110729218E0,4.258889709E0
2.982835581E0,5.420097709E-1,-1.080293655E0,-3.868505001E0,4.052917457E0
2.992834799E0,5.569024682E-1,-1.189523697E0,-3.640236855E0,3.869939449E0
3.002837456E0,5.761801600E-1,-1.314229012E0,-3.421839714E0,3.710548275E0
3.012851154E0,5.650637150E-1,-2.040826797E0,-3.212694168E0,3.847814293E0
3.022839799E0,5.317649245E-1,-2.104835510E0,-3.031939030E0,3.729042872E0
3.032832247E0,4.708599448E-1,-2.163352013E0,-2.892016649E0,3.642191829E0
3.042846831E0,3.885550499E-1,-2.212435246E0,-2.759414673E0,3.558119458E0
3.052835060E0,2.947822809E-1,-2.215045452E0,-2.635013103E0,3.454940955E0
3.062837143E0,1.958808899E-1,-2.172163963E0,-2.508649349E0,3.324152097E0
3.072838706E0,8.756709099E-2,-2.070011616E0,-2.356706619E0,3.137942347E0
3.082838185E0,-1.044205308E0,-1.209147453E0,-2.182256222E0,2.704559947E0
3.092841049E0,-1.180648923E0,5.174245834E-1,-1.130483031E0,1.714541327E0
3.102839227E0,-1.156236172E0,5.293035507E-1,-1.007114410E0,1.622135558E0
3.112840529E0,-1.128524423E0,5.417861938E-1,-8.871856332E-1,1.534339597E0
3.122838706E0,-1.097309947E0,5.548572540E-1,-7.719362974E-1,1.451840673E0
3.132838185E0,-1.061352372E0,1.829916000E0,-6.619002819E-1,2.216567935E0
3.142841831E0,-1.180091858E0,1.863031387E0,-2.115731716E0,3.056112471E0
3.152837143E0,-2.249997139E0,1.879919052E0,-2.232278824E0,3.685057871E0
3.162838445E0,-2.211396456E0,1.869053841E0,-3.273291111E0,4.370134007E0
3.172836362E0,-2.158572197E0,1.848866463E0,-3.362359524E0,4.402635880E0
3.182835268E0,-2.091955662E0,1.800868034E0,-3.976715565E0,4.840833694E0
3.192857508E0,-1.998615980E0,1.708496094E0,-3.951608658E0,4.746434001E0
3.202845529E0,-1.896840572E0,4.250869751E-1,-3.892083645E0,4.350519301E0
3.212824070E0,-1.799290657E0,4.365148544E-1,-3.769283295E0,4.199462899E0
3.222836154E0,-1.673685789E0,4.462795258E-1,-3.634518147E0,4.026178299E0
3.232838966E0,-5.112855434E-1,4.568939209E-1,-3.457440615E0,3.524778087E0
3.242839487E0,-5.993103981E-1,3.701992035E-1,-3.278288126E0,3.353116974E0
3.252840529E0,-4.911325574E-1,3.858356476E-1,-3.100501537E0,3.162782022E0
3.262848862E0,-3.866791129E-1,4.037590027E-1,-2.959340096E0,3.011683229E0
3.272845997E0,-1.394171119E0,4.436731339E-1,-2.900260448E0,3.248394931E0
3.282852508E0,-1.371518254E0,3.656654358E-1,-2.775573969E0,3.117464417E0
3.292848081E0,-1.331846952E0,3.892021179E-1,-2.607110262E0,2.953357159E0
3.302846779E0,-1.267753363E0,4.140501022E-1,-2.386687040E0,2.734028366E0
3.312849643E0,-1.202173352E0,4.399833679E-1,-1.410371780E0,1.904719059E0
3.322846779E0,-1.115935683E0,2.049027443E0,-1.189273596E0,2.618816068E0
3.332856935E0,-1.021637678E0,2.145266533E0,-2.444408536E-1,2.388653046E0
3.342848341E0,8.071806282E-3,2.249782562E0,-2.980268002E-2,2.249994429E0
3.352848602E0,8.984328806E-2,2.868735313E0,1.149996161E0,3.091958164E0
3.362842456E0,1.696149111E-1,2.886846542E0,1.260457397E0,3.154584763E0
3.372859174E0,2.474935651E-1,2.898606300E0,1.334295630E0,3.200549387E0
3.382842924E0,1.234755367E-1,2.877503395E0,1.194433451E0,3.118003089E0
3.392823706E0,1.972662210E-1,2.814970016E0,1.220741630E0,3.074602459E0
3.402836414E0,2.316932976E-1,2.708917618E0,1.242450118E0,2.989247186E0
3.412850164E0,2.663476467E-1,1.898351669E0,1.225551486E0,2.275226708E0
3.422843133E0,2.996470928E-1,1.774751663E0,1.209832788E0,2.168692514E0
3.432852247E0,1.337146610E-1,3.340854645E-1,9.972869754E-1,1.060223570E0
3.442849643E0,1.679638028E-1,3.476982117E-1,9.872105718E-1,1.060042734E0
3.452847820E0,2.422736585E-1,3.817110062E-1,1.019232035E0,1.115003928E0
3.462857195E0,2.767327428E-1,3.961448669E-1,2.508328438E0,2.554451667E0
3.472847560E0,1.105211973E-1,3.111753464E-1,2.581021309E0,2.602059959E0
3.482846518E0,1.444990039E-1,1.825183868E0,2.621079445E0,3.197222790E0
3.492837404E0,1.800334454E-1,2.947182655E0,2.646990776E0,3.965458084E0
3.502836883E0,2.156035006E-1,3.970890045E0,2.695025921E0,4.803916874E0
3.512838185E0,2.511840463E-1,4.826798439E0,2.726754904E0,5.549438611E0
3.522837664E0,8.557194471E-2,4.969810486E0,2.608276606E0,5.613327505E0
3.532835581E0,1.212115958E-1,5.822170258E0,1.792031050E0,6.092924917E0
3.542835997E0,1.672478318E0,5.786301613E0,4.253624380E-1,6.038162244E0
3.552853549E0,1.767492533E0,5.616389275E0,3.801264763E-1,5.900199528E0
3.562838758E0,2.531182289E0,4.305002213E0,-7.801213264E-1,5.054554097E0
3.572823758E0,2.635366440E0,3.334482193E0,-8.761060238E-1,4.339526418E0
3.582839279E0,3.400032997E0,2.473904610E0,-9.058864713E-1,4.301285703E0
3.592837143E0,3.443322182E0,2.311345100E0,5.049385130E-2,4.147449029E0
3.602837924E0,3.425231457E0,1.293689728E0,4.117863998E-2,3.661630692E0
3.612839227E0,3.376526117E0,2.156934738E-1,1.088990211E0,3.554342693E0
3.622837924E0,3.245136023E0,1.363010406E-1,1.910560727E0,3.768252655E0
3.632843133E0,2.238679647E0,-8.550949097E-1,2.648006678E0,3.571388138E0
3.642839227E0,1.994713426E0,-1.010984421E0,2.684994698E0,3.494305035E0
3.652842872E0,8.892462254E-1,-2.184329987E0,2.664711237E0,3.558474718E0
3.662829122E0,6.618806720E-1,-2.912137985E0,2.584221363E0,3.949282685E0
3.672839747E0,-6.711833477E-1,-3.599360466E0,2.446229219E0,4.403398715E0
3.682836102E0,-7.175300121E-1,-3.736879349E0,2.277162313E0,4.434476834E0
3.692837143E0,-7.605937123E-1,-4.693750858E0,2.120730162E0,5.206466780E0
3.702836102E0,-7.766230702E-1,-4.764905453E0,1.979309082E0,5.217770770E0
3.712838185E0,-9.859486818E-1,-4.853309631E0,1.822798729E0,5.277244014E0
3.722835581E0,-9.633201957E-1,-5.592917442E0,1.645657539E0,5.909052382E0
3.732854643E0,-9.380540252E-1,-5.645450115E0,9.305685163E-1,5.798017775E0
3.742840320E0,-8.751027584E-1,-5.745194435E0,8.006640673E-1,5.866355503E0
3.752824018E0,-8.127573729E-1,-6.613834858E0,6.773252487E-1,6.697921735E0
3.762842872E0,-9.521196485E-1,-6.710494995E0,5.837533474E-1,6.802796695E0
3.772835841E0,-8.902115822E-1,-7.583076954E0,5.526332855E-1,7.655124839E0
3.782836362E0,-8.289514184E-1,-7.686296463E0,5.964523554E-1,7.753842221E0
3.792836883E0,-7.703244686E-1,-9.245051384E0,1.431635380E0,9.386903363E0
3.802836622E0,-7.119911909E-1,-9.171503067E0,1.501316190E0,9.320802018E0
3.812840529E0,-8.168145418E-1,-9.255849838E0,3.188637257E0,9.823713645E0
3.822835581E0,-7.620306015E-1,-7.638984680E0,3.796631813E0,8.564414207E0
3.832841831E0,-7.103939056E-1,-6.548952579E0,4.573350430E0,8.019287596E0
3.842838445E0,-6.584360003E-1,-4.909013748E0,5.443613529E0,7.359679490E0
3.852838966E0,8.331949115E-1,-2.780126572E0,6.142046928E0,6.793236194E0
3.862837664E0,1.783923626E0,-4.766073227E-1,6.030607224E0,6.306961355E0
3.872837404E0,2.653669834E0,7.940759659E-1,5.681072235E0,6.320371980E0
3.882840268E0,2.816552639E0,3.344846725E0,4.358834267E0,6.174172378E0
3.892838966E0,3.764985800E0,4.568994522E0,4.012380123E0,7.151924445E0
3.902837091E0,3.845417023E0,4.759731293E0,3.680323601E0,7.140522100E0
3.912852456E0,3.819411755E0,4.781330109E0,2.676197529E0,6.679150917E0
3.922838602E0,3.685912848E0,3.616226196E0,1.726535559E0,5.444627669E0
3.932831935E0,3.434599400E0,1.213664055E0,1.458135366E0,3.923724279E0
3.942833706E0,2.315534592E0,-7.583522797E-2,1.272902489E0,2.643431893E0
3.952838966E0,2.080440521E0,-1.608009338E0,1.287696123E0,2.927812853E0
3.962835841E0,1.218878031E0,-2.615873337E0,2.061135292E0,3.546369363E0
3.972838185E0,1.030942082E0,-2.658228397E0,1.993371010E0,3.478871623E0
3.982838706E0,1.751725674E-1,-2.580329895E0,1.911769390E0,3.216154536E0
3.992837924E0,-4.969584942E-2,-2.757501602E-1,1.784369469E0,1.806234268E0
4.002837143E0,-1.521680355E-1,1.564393997E0,1.076642036E0,1.905161873E0
4.012839487E0,-2.602983713E-1,1.626246452E0,8.851385117E-1,1.869733390E0
4.022836102E0,-3.321969509E-1,3.371405602E0,1.810169220E-2,3.387780721E0
4.032839747E0,-3.924338818E-1,3.486121178E0,-1.511249542E-1,3.511393451E0
4.042836102E0,-3.976762295E-1,3.493447304E0,-1.001174688E0,3.655772313E0
4.052837924E0,-3.784377575E-1,3.406682014E0,-1.160859823E0,3.618880077E0
4.062837143E0,-3.400592804E-1,1.698451996E0,-2.045495510E0,2.680378962E0
4.072836622E0,-3.138005733E-1,1.715486526E0,-2.165629625E0,2.780524500E0
4.082834122E0,-3.026483059E-1,1.730007172E0,-2.918298244E0,3.406021940E0
4.092849643E0,-3.021138906E-1,1.630682945E0,-2.980471373E0,3.410807716E0
4.102855737E0,-3.092246056E-1,6.495170593E-1,-4.518373013E0,4.575279986E0
4.112840633E0,-3.262448311E-1,5.949831009E-1,-4.419500828E0,4.471289316E0
4.122841102E0,-3.397932053E-1,1.608719826E0,-4.318973064E0,4.621359890E0
4.132835320E0,-3.478575945E-1,1.582746506E0,-4.192523956E0,4.494813515E0
4.142839227E0,-3.390120268E-1,1.457839012E0,-4.265195847E0,4.520190189E0
4.152838966E0,-3.417556286E-1,1.424019814E0,-4.116997242E0,4.369702007E0
4.162837664E0,-3.603856564E-1,2.617383957E0,-3.921866655E0,4.728806896E0
4.172840008E0,-4.699509144E-1,3.377320290E0,-3.690193176E0,5.024407615E0
4.182838185E0,-1.540652990E0,3.363499641E0,-3.702758789E0,5.234230041E0
4.192836362E0,-1.487044096E0,3.327473640E0,-3.519806385E0,5.066795630E0
4.202838706E0,-1.433496714E0,3.232890129E0,-3.340204477E0,4.864509982E0
4.212837924E0,-1.372789264E0,3.071681023E0,-3.150727272E0,4.609431311E0
4.222836883E0,-1.311037183E0,2.248008728E0,-2.966374397E0,3.946104256E0
4.232837924E0,-1.447793722E0,2.064232826E0,-2.989484072E0,3.910777268E0
4.242839747E0,-1.382491231E0,8.576774597E-1,-2.817440271E0,3.253438537E0
4.252837143E0,-1.282759190E0,8.314104080E-1,-2.652737141E0,3.061654576E0
4.262966570E0,-8.482778072E-2,8.090229034E-1,-2.493641376E0,2.622967999E0
4.272843549E0,3.148734570E-2,7.903375626E-1,-2.339877844E0,2.469950048E0
4.282856935E0,1.568843126E-1,6.752595901E-1,-2.390752316E0,2.489233785E0
4.292829227E0,2.944514751E-1,6.634731293E-1,-2.247365475E0,2.361683688E0
4.302843185E0,4.226882458E-1,-9.027318954E-1,-2.109689713E0,2.333319719E0
4.312841049E0,5.126320124E-1,-9.699449539E-1,-1.985042334E0,2.268033919E0
4.322839227E0,5.539250374E-1,-1.059487343E0,-1.862893581E0,2.213530861E0
4.332843654E0,5.646153688E-1,-1.161947250E0,-1.943463087E0,2.333658222E0
4.342837924E0,5.549441576E-1,-1.797782898E0,-3.297963142E0,3.796912858E0
4.352838706E0,4.876520634E-1,-1.861516476E0,-3.324530363E0,3.841295388E0
4.362838445E0,3.804451227E-1,-1.853941917E0,-3.281692028E0,3.788316472E0
4.372843393E0,2.501320839E-1,-1.817638874E0,-3.193856239E0,3.683353745E0
4.382838185E0,-1.147654653E0,-1.736860275E0,-3.060716152E0,3.701591304E0
4.392837664E0,-1.126732111E0,-1.626777649E0,-1.453419685E0,2.455271788E0
4.402839487E0,-1.107308626E0,-7.393426895E-1,-1.360329986E0,1.903485665E0
4.412837143E0,-1.087319136E0,-6.328001022E-1,-1.268650532E0,1.786665342E0
4.422836102E0,-2.229563236E0,5.369338989E-1,-1.377877116E0,2.675405686E0
4.432835060E0,-2.293776035E0,5.516433716E-1,-8.515322208E-2,2.360713871E0
4.442971258E0,-2.351540565E0,5.661039352E-1,-9.689807892E-3,2.418741530E0
4.452837924E0,-2.351675510E0,5.743827820E-1,-8.740901947E-3,2.420820045E0
4.462863810E0,-2.331377029E0,5.823888779E-1,-1.151206493E-1,2.405773976E0
4.472839539E0,-2.272583485E0,4.910717010E-1,-1.155769467E0,2.596457235E0
4.482839018E0,-2.180136442E0,4.991216660E-1,-2.319084644E0,3.221842785E0
4.492840529E0,-2.024374962E0,5.040197372E-1,-3.191109180E0,3.812519860E0
4.502848341E0,-1.846197844E0,5.105400085E-1,-3.934897661E0,4.376358895E0
4.512844174E0,-6.660655737E-1,5.185461044E-1,-4.048062325E0,4.135135064E0
4.522849383E0,-7.468324304E-1,4.278268814E-1,-4.927961349E0,5.002559103E0
4.532847820E0,-5.912753940E-1,4.582910538E-1,-4.852035046E0,4.909366697E0
4.542858497E0,-4.793021381E-1,4.661588669E-1,-4.644645214E0,4.692522114E0
4.552838706E0,-3.718020916E-1,4.736614227E-1,-3.711125374E0,3.759660022E0
4.562847299E0,-5.051608086E-1,3.841829300E-1,-3.475851059E0,3.533316367E0
4.572849383E0,-4.396526814E-1,3.973627090E-1,-3.263572693E0,3.316941110E0
4.582845997E0,-3.768944740E-1,4.131269455E-1,-3.075135708E0,3.125569218E0
4.592844174E0,-3.151509762E-1,-9.328546524E-1,-2.917961121E0,3.079616054E0
4.602846258E0,-1.337534428E0,-9.545650482E-1,-2.803396940E0,3.249496450E0
4.612887143E0,-1.426286697E0,-9.322376251E-1,-2.711890936E0,3.202766489E0
4.622969643E0,-2.052582979E0,-8.666000366E-1,-2.606761694E0,3.429183436E0
4.632841570E0,-2.083960295E0,-7.486639023E-1,-2.467429876E0,3.315357951E0
4.642853862E0,-2.109116793E0,4.618835449E-1,-2.278361559E0,3.138891755E0
4.652824695E0,-2.099660397E0,4.879150391E-1,-1.458502889E0,2.602665085E0
4.662828862E0,-2.033975601E0,1.699590683E0,-1.240062475E0,2.926332206E0
4.672838966E0,-1.849623680E0,1.868160248E0,-3.037081957E-1,2.646387942E0
4.682842612E0,-9.034467489E-2,2.971513748E0,-1.103309393E-1,2.974933450E0
4.692848602E0,-1.321271062E-3,3.068028450E0,1.163715005E0,3.281315731E0
4.702840268E0,8.533062786E-2,3.168870926E0,1.247965097E0,3.406822735E0
4.712865008E0,1.048588753E-2,3.238148689E0,1.160248876E0,3.439752076E0
4.722835320E0,9.308627248E-2,3.164418221E0,1.197075605E0,3.384552811E0
4.732841570E0,1.373412460E-1,3.029215813E0,1.225124717E0,3.270465048E0
4.742842872E0,1.797029972E-1,2.186098099E0,1.212607861E0,2.506339141E0
4.752852247E0,2.069818974E-2,2.080137253E0,1.002009153E0,2.308987170E0
4.762836102E0,6.167134643E-2,1.952608109E0,9.941671491E-1,2.191996830E0
4.772835841E0,1.025177762E-1,3.965301514E-1,9.887935519E-1,1.070261063E0
4.782835060E0,1.432327032E-1,4.111900330E-1,9.843391180E-1,1.076343974E0
4.792836362E0,1.839345545E-1,4.262208939E-1,9.820326567E-1,1.086224797E0
4.802974018E0,2.352651954E-2,3.416938782E-1,7.809510231E-1,8.527559463E-1
4.812880164E0,6.454864889E-2,3.578109741E-1,7.855183482E-1,8.655832119E-1
4.822854383E0,1.053657308E-1,3.741722107E-1,2.582987785E0,2.612074402E0
4.832836518E0,1.461308002E-1,2.015796661E0,2.599761009E0,3.292954250E0
4.842835112E0,1.853206754E-1,2.133293152E0,2.596339703E0,3.365451422E0
4.852842143E0,2.488237619E-2,3.024220467E0,2.564270973E0,3.965099518E0
4.862838706E0,6.578541547E-2,3.173106194E0,2.572153330E0,4.085205428E0
4.872837143E0,1.064324304E-1,4.147636414E0,2.465908289E0,4.826481055E0
4.882843133E0,1.469199806E-1,4.191952705E0,2.213166237E0,4.742589773E0
4.892839487E0,2.624312788E-2,4.163070679E0,2.916239500E-1,4.173354850E0
4.902846518E0,6.555449218E-2,4.090990067E0,-7.567248940E-1,4.160904911E0
4.912863966E0,1.062474847E-1,3.953794479E0,-1.463959932E0,4.217458713E0
4.922837143E0,1.468737721E-1,2.978494644E0,-1.488196254E0,3.332826179E0
4.932841049E0,1.875083447E-1,2.829674721E0,-1.464776754E0,3.191831660E0
4.942842352E0,2.701167017E-2,1.943370819E0,-5.170562118E-2,1.944246189E0
4.952842352E0,6.790926307E-2,1.852003098E0,-1.343049109E-2,1.853296393E0
4.962837404E0,1.671300054E0,1.747220993E0,1.400964975E0,2.794410122E0
4.972836362E0,1.712277651E0,2.573909760E-1,2.455218077E0,3.004370262E0
4.982944383E0,1.770580292E0,2.766981125E-1,3.175098658E0,3.645924835E0
4.992842560E0,1.820762753E0,1.962041855E-1,3.284628630E0,3.760645998E0
5.002861831E0,1.862603188E0,2.156467438E-1,3.364727020E0,3.851906291E0
5.012857664E0,1.893395662E0,2.350416183E-1,3.375110865E0,3.877056234E0
5.022835893E0,1.841080666E0,-1.209561348E0,3.282952070E0,3.953528926E0
5.032838445E0,1.779270768E0,-1.902175903E0,3.084475994E0,4.037086795E0
5.042842612E0,1.702833056E0,-2.056121826E0,2.262524843E0,3.499470824E0
5.052845737E0,1.622715831E0,-3.124633789E0,2.106989145E0,4.103162956E0
5.062840529E0,1.527740240E0,-3.251314163E0,1.939088941E0,4.082291017E0
5.072843914E0,1.333380699E0,-4.303492069E0,1.128311872E0,4.644462914E0
5.082840529E0,-3.839925528E-1,-5.142796516E0,9.995037913E-1,5.253076634E0
5.092838706E0,-3.929420412E-1,-5.278880596E0,8.782009482E-1,5.365838304E0
5.102845737E0,-4.011385143E-1,-6.405132294E0,8.034661412E-1,6.467780891E0
5.112863966E0,-4.103941023E-1,-7.094491959E0,7.843859792E-1,7.149510531E0
5.122835841E0,-4.179393053E-1,-7.221739292E0,8.310778737E-1,7.281406602E0
5.132838445E0,-6.247823238E-1,-8.137001038E0,1.705294609E0,8.337215875E0
5.142840008E0,-6.284325123E-1,-8.194655418E0,2.397976637E0,8.561401567E0
5.152842872E0,-5.774464607E-1,-8.239446640E0,3.048776627E0,8.804371884E0
5.162908393E0,-5.253785849E-1,-8.216471672E0,3.698440790E0,9.025790474E0
5.172832768E0,-4.763458967E-1,-8.065057755E0,4.342163563E0,9.172047013E0
5.182970112E0,-6.265607476E-1,-6.729650497E0,4.423921585E0,8.077862117E0
5.192835893E0,4.664730430E-1,-5.350383282E0,5.053816795E0,7.374636436E0
5.202847299E0,1.251302481E0,-3.802591324E0,4.884345531E0,6.315242667E0
5.212863706E0,1.327833414E0,-1.913905621E0,4.589950085E0,5.147214594E0
5.222838445E0,1.435104012E0,7.023591995E-1,3.541774273E0,3.885485423E0
5.232836102E0,2.293049812E0,2.580686569E0,3.267230749E0,4.753190232E0
5.242840789E0,2.355293751E0,4.218610764E0,2.979560852E0,5.676430947E0
5.252846779E0,2.425546169E0,5.030692101E0,2.039278269E0,5.945569198E0
5.262838706E0,2.382286072E0,4.921694756E0,1.857039928E0,5.774682977E0
5.272839747E0,2.324826956E0,3.685070992E0,1.775650024E0,4.705050648E0
5.282838445E0,2.234802723E0,2.530137062E0,1.809072733E0,3.829971399E0
5.292836362E0,2.084341049E0,8.861675262E-1,2.376914263E0,3.283213655E0
5.302844956E0,1.220644712E0,-1.222229004E-1,2.319085836E0,2.623560761E0
5.312858497E0,9.971624613E-1,-8.971433640E-1,2.279800177E0,2.645125334E0
5.322836622E0,1.083756685E-1,-9.101347923E-1,2.261717796E0,2.440380711E0
5.332835060E0,-1.924061775E-2,-7.967996597E-1,2.208405733E0,2.347832145E0
5.342878029E0,-1.628628969E-1,1.022868156E0,2.114670038E0,2.354700185E0
5.352845893E0,-1.237452984E0,1.064067841E0,1.968604565E0,2.557133979E0
5.362857247E0,-1.249922156E0,1.112499237E0,1.118003607E0,2.012434350E0
5.372844747E0,-1.428663135E0,1.056084633E0,9.131877422E-1,1.997574769E0
5.382835372E0,-1.400460601E0,1.097830772E0,-2.054612637E-1,1.791294680E0
5.392837143E0,-1.340103865E0,1.134265900E0,-9.895770550E-1,2.015366033E0
5.402843133E0,-1.278170109E0,1.169634819E0,-1.815710306E0,2.509694872E0
5.412859799E0,-1.214051008E0,1.203886032E0,-3.416701794E0,3.820616779E0
5.422841570E0,-1.315364003E0,1.122149467E0,-3.590347290E0,3.984971211E0
5.432839747E0,-1.179980159E0,1.158758163E0,-3.518347740E0,3.887652824E0
5.442838966E0,-1.087595701E0,1.161376953E0,-3.450380564E0,3.799577196E0
5.452849122E0,-9.988737702E-1,1.155459404E0,-3.359138727E0,3.690074285E0
5.462837664E0,-1.112910867E0,2.579230309E0,-3.443282366E0,4.443781389E0
5.472837924E0,-1.029310822E0,2.647355080E0,-4.251266003E0,5.112849725E0
5.482835841E0,-9.470418692E-1,3.252827644E0,-4.161558151E0,5.366222343E0
5.492838185E0,-8.662063479E-1,3.242743492E0,-4.045334339E0,5.256465420E0
5.502842872E0,-7.866686583E-1,3.191100121E0,-3.915785789E0,5.112274045E0
5.512860581E0,-9.095399976E-1,3.093839645E0,-3.770239353E0,4.961230849E0
5.522855789E0,-8.270782828E-1,2.912815094E0,-2.662022114E0,4.031738086E0
5.532852664E0,-7.461100221E-1,1.796528816E0,-2.498919010E0,3.166826830E0
5.542985164E0,-6.670469642E-1,7.211170197E-1,-2.342908144E0,2.540507819E0
5.552846049E0,-5.913688540E-1,7.098731995E-1,-2.192309618E0,2.379045721E0
5.562837195E0,-7.169469595E-1,6.013154984E-1,-2.244960546E0,2.432167989E0
5.572838706E0,-6.426826119E-1,-8.304862976E-1,-2.102655649E0,2.350299813E0
5.582842352E0,-5.701003671E-1,-9.413242340E-1,-1.965196133E0,2.252354675E0
5.592837924E0,-4.991137683E-1,-1.038167000E0,-1.833814621E0,2.165590298E0
5.602846779E0,1.021505833E0,-1.105907440E0,-1.717685461E0,2.284064092E0
5.612861883E0,1.228337288E0,-1.174317360E0,-1.764090061E0,2.449458613E0
5.622837664E0,1.872470140E0,-1.191154480E0,-1.653596163E0,2.767557351E0
5.632844174E0,1.924204707E0,-1.204222679E0,-1.555939674E0,2.752029122E0
5.642841570E0,1.983477592E0,-1.210860252E0,-1.460436106E0,2.744674758E0
5.652842091E0,1.985195637E0,-1.218683243E0,-1.567647219E0,2.807794217E0
5.662827299E0,1.949245214E0,-1.225246429E0,-1.475052834E0,2.734331103E0
5.672835581E0,1.855267525E0,-1.235235214E0,-1.384181142E0,2.623696068E0
5.682835841E0,1.670409799E0,-1.232002258E0,-1.294642091E0,2.446261761E0
5.692837143E0,7.571431398E-1,-1.233144760E0,-1.206480384E0,1.884013442E0
5.702885008E0,5.464246273E-1,-1.237871170E0,-1.320811629E0,1.890885577E0
5.712897664E0,-9.153383970E-1,-1.236312866E0,-1.234934330E0,1.972657265E0
5.722892768E0,-9.344128966E-1,-1.209491730E0,-1.150525451E0,1.913035943E0
5.732862560E0,-9.515331388E-1,-1.170402527E0,-1.067514062E0,1.847929561E0
5.742835633E0,-2.704583645E0,-1.105742455E0,-9.874742627E-1,3.084241315E0
5.752851727E0,-2.849395275E0,-9.847412109E-1,-1.108332872E0,3.212035249E0
5.762847820E0,-2.951210499E0,5.304040909E-1,-1.029290199E0,3.170238196E0
5.772848341E0,-3.015641212E0,5.469436646E-1,-9.516472220E-1,3.209185524E0
5.782849643E0,-2.969731569E0,5.573606491E-1,-8.757059574E-1,3.145920757E0
5.792847039E0,-2.120326042E0,2.436473846E0,-2.495893717E0,4.081871235E0
5.802847820E0,-9.657245278E-1,2.476333618E0,-2.478067875E0,3.633960986E0
5.812883237E0,-8.337137699E-1,2.474683762E0,-2.466228008E0,3.591854529E0
5.822844695E0,-7.057703137E-1,2.408880234E0,-2.471579552E0,3.522715032E0
5.832848862E0,-5.817688704E-1,2.262676239E0,-2.506750107E0,3.426653598E0
5.842847560E0,-6.581922770E-1,4.073953629E-1,-2.553524494E0,2.668271987E0
5.852847560E0,-5.391472578E-1,4.192762375E-1,-3.140880108E0,3.214280663E0
5.862847299E0,-4.659947753E-1,4.305200577E-1,-3.109419107E0,3.173481658E0
5.872847039E0,-3.961855173E-1,4.432821274E-1,-3.107256889E0,3.163622510E0
5.882857924E0,-3.279514313E-1,4.572925568E-1,-3.656023502E0,3.699077787E0
5.892859956E0,-4.623199105E-1,3.727312088E-1,-3.599764109E0,3.648420191E0
5.902862143E0,-3.979716301E-1,3.891534805E-1,-3.535203218E0,3.578754482E0
5.912879122E0,-3.367894590E-1,4.065713882E-1,-3.468399286E0,3.508350188E0
5.922838237E0,-2.766219974E-1,4.249801636E-1,-3.367304802E0,3.405270841E0
5.932852508E0,-2.187867016E-1,4.447069168E-1,-3.222424030E0,3.260314171E0
5.942834799E0,-3.612534404E-1,3.659114838E-1,-3.013995886E0,3.057542553E0
5.952837404E0,-3.029924631E-1,3.881063461E-1,-2.158037186E0,2.213493949E0
5.962836102E0,-2.455926985E-1,4.111785889E-1,-1.944343805E0,2.002462594E0
5.972837664E0,-1.491138339E-1,4.549407959E-1,-1.056948662E0,1.160321739E0
5.982842352E0,-2.944845557E-1,3.795900345E-1,-8.986861706E-1,1.019041992E0
5.992840268E0,-2.405823469E-1,4.047327042E-1,-7.580720186E-1,8.923909529E-1
6.002841570E0,-1.858507544E-1,4.298105240E-1,-6.575714350E-1,8.072656202E-1
6.012861102E0,-1.318646967E-1,4.547233582E-1,-6.022055745E-1,7.660373259E-1
6.022836362E0,-7.867984474E-2,4.769039154E-1,-6.105135679E-1,7.786877931E-1
6.032842612E0,-2.272291780E-1,3.990325928E-1,-6.466265321E-1,7.930863644E-1
6.042835581E0,-1.749375165E-1,4.210062027E-1,-6.857044697E-1,8.234318291E-1
6.052837924E0,-1.232644692E-1,4.429092407E-1,-7.171251774E-1,8.518399174E-1
6.062844435E0,-7.218830287E-2,4.647321701E-1,-7.223782539E-1,8.619846186E-1
6.072829643E0,-2.176342160E-2,4.864749908E-1,-6.950565577E-1,8.486667082E-1
6.082867456E0,-1.713683605E-1,4.083738327E-1,-6.198773384E-1,7.618295196E-1
6.092835060E0,-1.215609461E-1,4.301776886E-1,-5.078929663E-1,6.765982357E-1
6.102835112E0,-7.234225422E-2,4.516477585E-1,-3.706719875E-1,5.887417276E-1
6.112870841E0,-2.361160517E-2,4.729118347E-1,1.237932205E0,1.325397773E0
6.122838706E0,2.463134751E-2,4.940633774E-1,1.293593526E0,1.384951095E0
6.132855893E0,-1.270774603E-1,1.588993073E0,1.148748994E0,1.964859261E0
6.142842872E0,-3.935163096E-2,2.769083977E0,1.242937922E0,3.035501491E0
6.152837924E0,7.879942656E-3,2.903254509E0,1.295880675E0,3.179348292E0
6.162837143E0,5.464675277E-2,3.722438812E0,1.291972041E0,3.940650801E0
6.172838445E0,-9.850142151E-2,3.779404640E0,1.088579416E0,3.934286099E0
6.182843133E0,-5.134093016E-2,3.817378044E0,1.082438469E0,3.968209176E0
6.192835841E0,-4.536568187E-3,3.834383011E0,1.077803373E0,3.982985534E0
6.202838966E0,4.238316044E-2,3.813019753E0,2.078300714E0,4.342838913E0
6.212841049E0,8.887334168E-2,3.758759499E0,2.114175081E0,4.313456585E0
6.222839747E0,-6.569126248E-2,3.724390984E0,2.719330549E0,4.611958605E0
6.232841570E0,-1.914984547E-2,3.737196922E0,2.754923105E0,4.642909526E0
6.242846362E0,2.690609358E-2,3.800980568E0,2.816588879E0,4.730893164E0
6.252832612E0,7.250182331E-2,3.894440651E0,3.512684584E0,5.245081266E0
6.262858914E0,1.176719740E-1,4.530392647E0,3.463869095E0,5.704094436E0
6.272840320E0,1.722760081E0,4.555081367E0,3.378017426E0,5.926860070E0
6.282842612E0,1.800428748E0,4.574082375E0,3.264187336E0,5.900736582E0
6.292838706E0,1.887483597E0,4.579791069E0,3.144797087E0,5.867438051E0
6.302839227E0,1.961734295E0,4.549448967E0,2.980691195E0,5.781903436E0
6.312837404E0,2.021411180E0,4.472658157E0,2.762001276E0,5.632000107E0
6.322839487E0,2.003463984E0,4.375713348E0,1.812683225E0,5.142621483E0
6.332844435E0,1.970132828E0,4.213098526E0,1.605948329E0,4.920436219E0
6.342840268E0,1.959482670E0,4.143803596E0,1.546241283E0,4.837514102E0
6.352839747E0,1.987522483E0,4.048864365E0,1.507845879E0,4.755748885E0
6.362841570E0,2.005743742E0,3.200424194E0,1.502739191E0,4.064965936E0
6.372839487E0,2.001533747E0,3.039372444E0,2.100337982E0,4.201826012E0
6.382844435E0,1.973625541E0,1.646943092E0,2.126306772E0,3.335985584E0
6.392835581E0,1.905786157E0,1.780948639E-1,2.173337460E0,2.896054966E0
6.402837143E0,1.777574658E0,2.021970749E-1,2.735294104E0,3.268407740E0
6.412837143E0,1.037539721E0,-2.089999676E0,2.695261717E0,3.564971674E0
6.422838914E0,8.481325507E-1,-3.348149300E0,2.655661106E0,4.356830094E0
6.432852820E0,-5.971850753E-1,-4.477366447E0,2.619892597E0,5.221807880E0
6.442824122E0,-5.960265994E-1,-5.325330734E0,2.585795164E0,5.949851407E0
6.452835893E0,-5.962147713E-1,-5.452313423E0,2.534867287E0,6.042246758E0
6.462838185E0,-7.976444364E-1,-6.224406719E0,2.476367950E0,6.746248875E0
6.472837924E0,-7.976170778E-1,-6.262491226E0,2.441401005E0,6.768709495E0
6.482844695E0,-7.823327780E-1,-6.331485748E0,2.399926424E0,6.816113496E0
6.492843654E0,-7.655165792E-1,-6.963627815E0,2.328982353E0,7.382566409E0
6.502839227E0,-2.233448267E0,-7.654339314E0,2.268172741E0,8.289861825E0
6.512838966E0,-2.243462324E0,-7.715885162E0,2.215158701E0,8.335162572E0
6.522837664E0,-2.251804829E0,-8.338594437E0,2.185045004E0,8.909388522E0
6.532845477E0,-2.264938831E0,-9.278414726E0,2.172421455E0,9.794812031E0
6.542849643E0,-2.257641792E0,-9.199055672E0,2.151019573E0,9.713210433E0
6.552834070E0,-2.243880272E0,-9.317076683E0,2.108592272E0,9.812699830E0
6.562836883E0,-2.148208141E0,-9.236679077E0,2.068184614E0,9.706102523E0
6.572838445E0,-2.005278111E0,-9.152859688E0,2.542910337E0,9.708881179E0
6.582842091E0,-1.844635487E0,-9.065804482E0,2.437968731E0,9.567402077E0
6.592855112E0,-1.704524517E0,-8.973587990E0,2.342895746E0,9.429732007E0
6.602836674E0,-1.553191662E0,-9.073963165E0,2.216543436E0,9.469016668E0
6.612828549E0,-2.786680758E-1,-8.969167709E0,2.089540720E0,9.213566395E0
6.622844487E0,-1.621734351E-1,-8.858515739E0,1.989906788E0,9.080711996E0
6.632841622E0,-4.330541939E-2,-8.733892441E0,2.457329750E0,9.073104321E0
6.642830737E0,7.290033996E-2,-8.602105141E0,2.337629795E0,8.914372685E0
6.652839747E0,-1.242135465E-2,-8.662002563E0,2.202463388E0,8.937633226E0
6.662826518E0,9.920699149E-2,-8.513780594E0,2.043998003E0,8.756268033E0
6.672836622E0,1.469609141E-1,-8.356705666E0,1.866323948E0,8.563836300E0
6.682844956E0,2.322749346E-1,-8.137342453E0,1.766444206E0,8.330103179E0
6.692836883E0,7.548761368E-2,-8.147029877E0,1.599396229E0,8.302882782E0
6.702836622E0,1.182480827E-1,-7.946045399E0,1.936879158E0,8.179555059E0
6.712841831E0,1.603025645E-1,-7.734289169E0,1.702678204E0,7.921113491E0
6.722837924E0,2.020722628E-1,-7.513069630E0,1.498550415E0,7.663726366E0
6.732841570E0,2.435627729E-1,-7.282362461E0,1.297090530E0,7.400984373E0
6.742842352E0,8.262434602E-2,-7.242415905E0,1.085120678E0,7.323721855E0
6.752836362E0,1.240916476E-1,-6.992764950E0,8.639130592E-1,7.047021084E0
6.762838185E0,1.654341519E-1,-6.718492508E0,6.092982292E-1,6.748092647E0
6.772853029E0,2.065284550E-1,-6.439742565E0,3.683543205E-1,6.453574452E0
6.782852247E0,2.474848628E-1,-6.157150745E0,1.309385300E-1,6.163513524E0
6.792826258E0,8.610977232E-2,-6.073178291E0,-9.023571014E-2,6.074458983E0
6.802823289E0,1.273759604E-1,-5.787830830E0,-2.870364189E-1,5.796343697E0
6.812834591E0,1.684044302E-1,-5.504183292E0,-4.448080063E-1,5.524694374E0
6.822838445E0,2.091814876E-1,-5.223740578E0,-5.423340797E-1,5.255982189E0
6.832845737E0,2.470634431E-1,-4.948921204E0,-5.802369118E-1,4.988941401E0
6.842841049E0,8.534003794E-2,-4.878705025E0,4.465560913E-1,4.899842649E0
6.852837404E0,1.261360943E-1,-3.097067833E0,2.041496754E0,3.711529128E0
6.862836102E0,2.066383362E-1,3.231663704E-1,4.634884357E0,4.650729933E0
6.872842872E0,2.066972017E0,1.712153912E0,6.047708988E0,6.616542023E0
6.882847039E0,2.968938351E0,1.946561098E0,6.934091568E0,7.790078364E0
6.892836102E0,3.082927465E0,1.984878540E0,6.882547379E0,7.798310265E0
6.902838185E0,3.176933050E0,7.262172699E-1,6.896004677E0,7.627265279E0
6.912838185E0,3.991192579E0,6.959989071E-1,7.438528061E0,8.470285261E0
6.922836622E0,4.058398247E0,-1.637368202E-1,6.687803268E0,7.824584247E0
6.932848602E0,3.956282139E0,-9.702758789E-1,5.614283562E0,6.936409990E0
6.942848862E0,3.754930019E0,-1.955804110E0,4.588529587E0,6.243338284E0
6.952886622E0,3.478826523E0,-1.967942357E0,3.630375862E0,5.399505533E0
6.962832664E0,2.379041195E0,-1.761105895E0,3.494360924E0,4.579507533E0
6.972837456E0,2.190897942E0,4.363346100E-2,3.454387665E0,4.090810654E0
6.982824122E0,1.970754027E0,1.633059025E0,3.392133713E0,4.249391055E0
6.992849383E0,7.209936976E-1,2.563188076E0,3.254317284E0,4.204800353E0
7.002834904E0,-7.736315727E-1,2.668009996E0,2.565804482E0,3.781552034E0
7.012844695E0,-8.023798466E-1,2.702698469E0,2.487909317E0,3.760064521E0
7.022847299E0,-8.288432956E-1,2.667185307E0,1.128669739E0,3.012433244E0
7.032846258E0,-2.343732595E0,2.572755337E0,1.050913811E0,3.635460403E0
7.042847299E0,-3.130419493E0,2.366855860E0,-8.394417763E-1,4.013252466E0
7.052850424E0,-3.053804636E0,2.277689934E0,-1.929577827E0,4.270464235E0
7.062852508E0,-2.863996983E0,2.201708794E0,-2.997652054E0,4.694243087E0
7.072846518E0,-9.347122312E-1,2.160966396E0,-3.836678505E0,4.501506933E0
7.082847039E0,-8.462153077E-1,2.144284725E0,-3.980053425E0,4.599441552E0
7.092847039E0,-7.590457201E-1,2.159039736E0,-4.862443924E0,5.374101218E0
7.102843393E0,-6.743864417E-1,2.206756115E0,-4.898877621E0,5.415124335E0
7.112852247E0,-5.980073810E-1,2.757484198E0,-4.927870750E0,5.678489417E0
7.122847039E0,-7.259136438E-1,2.722345591E0,-4.933288097E0,5.681148439E0
7.132884539E0,-6.565382481E-1,2.687838554E0,-4.917051315E0,5.642066306E0
7.142834904E0,-5.903847814E-1,2.664726973E0,-4.891467094E0,5.601408248E0
7.152848393E0,-5.266941786E-1,3.230753899E0,-4.895000458E0,5.888650694E0
7.162833497E0,-4.659220576E-1,3.200581312E0,-4.937577724E0,5.902582306E0
7.172835372E0,-6.045257449E-1,3.839707136E0,-5.745092392E0,6.936489664E0
7.182837143E0,-5.436288118E-1,3.811847448E0,-5.815102100E0,6.974319013E0
7.192838966E0,-4.852055013E-1,4.504892349E0,-6.745225906E0,8.125733935E0
7.202839747E0,-4.270682931E-1,4.479376793E0,-6.794179916E0,8.149115566E0
7.212838966E0,-3.683665991E-1,5.404464722E0,-7.789445877E0,9.487855393E0
7.222837664E0,1.176153421E0,5.154516697E0,-7.788527012E0,9.413476099E0
7.232838706E0,1.331320286E0,4.971474171E0,-7.613358021E0,9.189732830E0
7.242835581E0,2.387390375E0,4.768549919E0,-7.417755604E0,9.135742955E0
7.252838966E0,2.536239386E0,4.551336765E0,-7.202442646E0,8.889451988E0
7.262838706E0,3.482524872E0,5.274233818E0,-7.160190582E0,9.550594276E0
7.272837404E0,3.600378990E0,5.051314831E0,-6.894629955E0,9.274396617E0
7.282837143E0,4.261766911E0,4.824086666E0,-6.622420788E0,9.235308682E0
7.292837143E0,4.256453037E0,4.578459263E0,-6.346174717E0,8.908064617E0
7.302836883E0,4.185287952E0,4.321867943E0,-6.066486835E0,8.543853948E0
7.312835164E0,4.078360558E0,3.026846409E0,-6.910611629E0,8.576209950E0
7.322854799E0,3.860791206E0,2.862971306E0,-5.701657295E0,7.457292360E0
7.332842404E0,3.576017857E0,2.715570450E0,-5.421652794E0,7.039641013E0
7.342823497E0,2.319317818E0,2.583527088E0,-5.145395756E0,6.207168826E0
7.352852247E0,1.502968192E0,2.466707706E0,-4.875243664E0,5.666706369E0
7.362839227E0,5.893595219E-1,2.263501167E0,-4.810436726E0,5.348932947E0
7.372838445E0,-3.292844296E-1,1.166526794E0,-4.550868988E0,4.709524556E0
7.382838185E0,-1.629821420E0,4.182281494E-1,-4.298428059E0,4.616028208E0
7.392838706E0,-1.682184577E0,2.416334152E-1,-4.053932190E0,4.395736327E0
7.402838445E0,-1.867719889E0,-5.531892776E-1,-3.980664492E0,4.431713636E0
7.412837924E0,-1.860519290E0,-7.344827652E-1,-3.757884026E0,4.257075206E0
7.422840268E0,-1.818210363E0,-1.545966148E0,-3.543845415E0,4.272556680E0
7.432841049E0,-1.750168443E0,-1.673738956E0,-3.354367733E0,4.137181959E0
7.442840008E0,-1.641705513E0,-1.786621094E0,-3.182888031E0,4.002247886E0
7.452837664E0,-1.735013366E0,-1.877213001E0,-3.217252254E0,4.109125467E0
7.462838445E0,-1.633463621E0,-1.921353340E0,-3.062461138E0,3.967174092E0
7.472838706E0,-1.533868909E0,-1.903240204E0,-2.911565542E0,3.801616894E0
7.482837924E0,-1.434855342E0,-1.825821877E0,-2.764843941E0,3.610650550E0
7.492836779E0,-1.342493176E0,-8.893837929E-1,-2.630089045E0,3.083935771E0
7.502856727E0,-1.452392220E0,-1.749992371E-1,-2.698179722E0,3.069241226E0
7.512843445E0,-1.361574769E0,1.358887672E0,-2.566598415E0,3.207473926E0
7.522824331E0,-1.271874547E0,1.343742371E0,-2.436892509E0,3.059698273E0
7.532841883E0,-1.183280230E0,1.330497742E0,-2.309144258E0,2.915908700E0
7.542841049E0,-1.097604871E0,2.318653107E0,-2.185047626E0,3.369765839E0
7.552837143E0,-1.206260562E0,3.203677177E0,-3.415916443E0,4.836020797E0
7.562835841E0,-1.110083222E0,3.206837654E0,-4.393540382E0,5.551512370E0
7.572839487E0,-1.006435633E0,3.143828392E0,-5.284487724E0,6.230760800E0
7.582838966E0,-8.662484288E-1,2.137154579E0,-6.679785728E0,7.066636641E0
7.592838706E0,-9.651826024E-1,1.055486679E0,-6.669799805E0,6.821426465E0
7.602837664E0,-8.675580025E-1,1.047869682E0,-6.629552841E0,6.767692268E0
7.612838185E0,-7.721021771E-1,1.035144806E0,-6.457870007E0,6.585723314E0
7.622838445E0,-6.801444292E-1,1.020576477E0,-6.122968674E0,6.244591113E0
7.632840008E0,-5.912261009E-1,1.007113457E0,-4.773128033E0,4.913916669E0
7.642837404E0,-7.060489655E-1,8.996152878E-1,-3.861882687E0,4.027648283E0
7.652837404E0,-6.214854121E-1,8.990888596E-1,-3.517622471E0,3.683513641E0
7.662824435E0,-5.426275730E-1,9.049234390E-1,-2.537961483E0,2.748559551E0
7.672839383E0,-4.656144679E-1,9.156351089E-1,-2.255485535E0,2.478386468E0
7.682855789E0,-3.903825283E-1,9.305410385E-1,-1.964822650E0,2.208808092E0
7.692844227E0,-5.180438757E-1,8.493623734E-1,-1.126706123E0,1.503081031E0
7.702838081E0,-4.459799528E-1,8.699722290E-1,-9.661779404E-1,1.374499767E0
7.712836414E0,-1.916638851E0,8.920650482E-1,-8.063781857E-1,2.262637911E0
7.722837977E0,-1.965775967E0,9.134721756E-1,-6.698309183E-1,2.268783821E0
7.732838706E0,-2.035343647E0,9.351940155E-1,-5.332784653E-1,2.302519822E0
7.742838445E0,-2.091897249E0,8.571882248E-1,-4.273759127E-1,2.300751165E0
7.752835581E0,-2.647546768E0,8.771314621E-1,-3.869078159E-1,2.815770081E0
7.762837143E0,-2.589221716E0,9.169149399E-1,-4.787355065E-1,2.788187545E0
7.772839487E0,-2.448863268E0,9.356222153E-1,-5.657585859E-1,2.681865584E0
7.782841831E0,-2.276744127E0,1.937968254E0,-1.312584639E0,3.265296802E0
7.792834018E0,-1.562801003E0,2.003780365E0,-1.332743883E0,2.869440535E0
7.802838706E0,-1.411807418E0,2.056716919E0,-1.343060970E0,2.833213271E0
7.812838706E0,-1.253896832E0,2.113063812E0,-1.310564041E0,2.784757449E0
7.822837924E0,-1.090267062E0,2.162552834E0,-1.231065512E0,2.716770016E0
7.832837924E0,2.710097432E-1,2.206016541E0,-1.110656261E0,2.484655427E0
7.842836362E0,3.743366897E-1,2.249217033E0,-4.014337063E-1,2.315222288E0
7.852838810E0,4.694179893E-1,2.301596642E0,-2.922782898E-1,2.367092509E0
7.862861987E0,5.584953427E-1,2.356945038E0,-1.515043974E-1,2.426944693E0
7.872839799E0,6.414365768E-1,2.429432869E0,1.138749599E0,2.758683671E0
7.882826414E0,5.188091397E-1,2.521633148E0,9.944010377E-1,2.759824284E0
7.892835112E0,5.456064939E-1,3.255391121E0,1.048793316E0,3.463412366E0
7.902836414E0,5.728457570E-1,3.335903168E0,1.102060199E0,3.559626229E0
7.912836622E0,5.989940166E-1,3.961097717E0,1.151074409E0,4.168220394E0
7.922835320E0,6.256387234E-1,4.041670799E0,1.194808483E0,4.260762135E0
7.932837664E0,4.531463981E-1,4.120401382E0,9.976776242E-1,4.263614646E0
7.942843914E0,5.203006864E-1,4.754659653E0,1.039994717E0,4.894802369E0
7.952837143E0,5.465106964E-1,4.753654480E0,1.042575359E0,4.897230670E0
7.962839487E0,5.728162527E-1,4.726443291E0,2.539604187E0,5.396014647E0
7.972838445E0,4.003422260E-1,4.681339264E0,3.237832308E0,5.706029202E0
7.982839487E0,4.283442199E-1,4.655056953E0,3.309273958E0,5.727506276E0
7.992840789E0,4.565293789E-1,4.649854660E0,3.311796904E0,5.726915938E0
8.002835320E0,4.853905141E-1,4.663355827E0,3.183526039E0,5.667215327E0
8.012838185E0,5.149115324E-1,4.678380013E0,2.365363598E0,5.267572342E0
8.022838706E0,2.047389030E0,4.671328545E0,2.158241749E0,5.538151285E0
8.032836414E0,2.123361588E0,4.639490128E0,5.593443513E-1,5.132874358E0
8.042859539E0,2.222520351E0,4.581105232E0,5.276219845E-1,5.119033778E0
8.052837977E0,2.902304649E0,4.484880447E0,5.003207922E-1,5.365430626E0
8.062826206E0,2.907614946E0,3.741798401E0,4.769325256E-1,4.762640505E0
8.072832195E0,2.910273790E0,3.617951393E0,2.579699159E-1,4.650356362E0
8.082838185E0,2.841970682E0,2.752486229E0,2.421639264E-1,3.963788739E0
8.092837404E0,2.749135017E0,2.604528427E0,2.076525688E0,4.318943228E0
8.102839487E0,2.585885525E0,6.102237701E-1,2.781144619E0,3.846289431E0
8.112836883E0,1.691113114E0,6.272201538E-1,2.832742929E0,3.358228877E0
8.122839487E0,-1.428817399E-2,-6.609630585E-1,2.964317083E0,3.037145385E0
8.132838445E0,-2.698604017E-2,-1.474427223E0,3.751679659E0,4.031099620E0
8.142844174E0,-3.783876449E-2,-2.347656250E0,3.766890287E0,4.438736766E0
8.152840789E0,-4.692789912E-2,-3.170783520E0,3.737137079E0,4.901251259E0
8.162838445E0,-2.560526133E-1,-3.908653736E0,3.674492598E0,5.370757192E0
8.172844956E0,-2.570422292E-1,-4.583254814E0,3.575261593E0,5.818486990E0
8.182849383E0,-2.523749769E-1,-4.732552052E0,3.482610226E0,5.881268233E0
8.192850424E0,-2.047657669E-1,-5.791863441E0,3.394480944E0,6.716406183E0
8.202848341E0,-1.572688222E-1,-5.898513794E0,3.312135935E0,6.766641923E0
8.212845945E0,-3.108989000E-1,-6.588575840E0,3.205712080E0,7.333660727E0
8.222849122E0,-2.656051219E-1,-6.619872093E0,3.102048397E0,7.315460127E0
8.232843393E0,-2.200122029E-1,-6.652372360E0,3.034901619E0,7.315264262E0
8.242848810E0,-1.753842831E-1,-6.705121994E0,2.988969803E0,7.343252759E0
8.252839018E0,-1.324003637E-1,-6.746053696E0,2.977659702E0,7.375176447E0
8.262838966E0,-1.260263205E0,-6.785423756E0,3.571596622E0,7.770877770E0
8.272842352E0,-1.333254337E0,-6.818741798E0,3.467612743E0,7.765123629E0
8.282848081E0,-1.419733405E0,-6.865309238E0,3.326106787E0,7.759581190E0
8.292849122E0,-1.498781562E0,-7.522201538E0,3.160796881E0,8.295812141E0
8.302846779E0,-1.420793295E0,-8.864113808E0,2.952437401E0,9.450293847E0
8.312849643E0,-1.269764543E0,-8.767463684E0,2.747814894E0,9.275300973E0
8.322848081E0,-1.183725148E-1,-8.668087959E0,2.542250633E0,9.033980253E0
8.332846518E0,-2.957390994E-2,-8.565013885E0,2.335940599E0,8.877891414E0
8.342851727E0,5.961823836E-2,-9.669136047E0,2.157835484E0,9.907169132E0
8.352847560E0,-5.055230856E-2,-9.665130615E0,2.035558462E0,9.877287259E0
8.362848341E0,3.990013897E-2,-9.651705742E0,1.958115339E0,9.848412635E0
8.372845997E0,1.309916675E-1,-9.593096733E0,2.437689781E0,9.898838074E0
8.382848602E0,1.754125357E-1,-9.533176422E0,2.280440569E0,9.803704985E0
8.392847612E0,2.180000395E-1,-9.436530113E0,2.134046793E0,9.677281659E0
8.402841987E0,5.907237530E-2,-9.296998978E0,2.002415895E0,9.510381115E0
8.412846570E0,9.991099685E-2,-9.103230476E0,2.407618999E0,9.416762531E0
8.422842039E0,1.405715048E-1,-8.847959518E0,2.226974010E0,9.124996506E0
8.432837143E0,1.808206141E-1,-7.473949909E0,1.984544754E0,7.735052761E0
8.442840789E0,2.184607387E-1,-7.253527164E0,1.714034081E0,7.456493428E0
8.452837664E0,5.626043677E-2,-7.219326019E0,1.425037861E0,7.358842729E0
8.462836622E0,9.631099552E-2,-6.971715450E0,1.140865326E0,7.065101968E0
8.472838445E0,1.359173954E-1,-5.234074593E0,8.456735611E-1,5.303694387E0
8.482840008E0,2.158304751E-1,-4.899267673E0,5.171337128E-1,4.931210177E0
8.492836102E0,5.353750288E-2,-4.618638992E0,1.961460114E-1,4.623112119E0
8.502840789E0,9.137190133E-2,-4.346405506E0,-9.200048447E-2,4.348339193E0
8.512838706E0,1.319184303E-1,-4.086823463E0,-3.016867638E-1,4.100066267E0
8.522837404E0,1.727026403E-1,-3.873532057E0,-3.112487793E-1,3.889852516E0
8.532838185E0,2.132581174E-1,-2.873048782E0,1.017399788E0,3.055321695E0
8.542842872E0,5.158029497E-2,-1.429749489E0,2.993274689E0,3.317610208E0
8.552834591E0,9.233870357E-2,4.137692451E-1,2.899919510E0,2.930744716E0
8.562836883E0,1.329278201E-1,1.844488144E0,2.815983295E0,3.368912026E0
8.572850008E0,1.333557367E0,2.052682400E0,3.784058094E0,4.506770012E0
8.582841935E0,1.445232511E0,2.061680317E0,4.459486485E0,5.121156358E0
8.592846049E0,1.540009499E0,1.077628136E0,4.403833389E0,4.788179213E0
8.602823029E0,1.612720132E0,2.375335693E-1,4.275587559E0,4.575799099E0
8.612841102E0,1.695233583E0,-8.205351830E-1,3.508549690E0,3.982086867E0
8.622838445E0,1.739978790E0,-2.185391665E0,2.340013504E0,3.644053528E0
8.632836622E0,1.667571783E0,-4.266779423E0,2.302870274E0,5.127320332E0
8.642840529E0,1.551451445E0,-4.336243153E0,2.172012329E0,5.091919463E0
8.652841570E0,1.442715526E0,-4.212106705E0,2.146438122E0,4.942718644E0
8.662827820E0,1.518586159E0,-2.790425777E0,4.926647186E0,5.862118426E0
8.672837143E0,2.559927464E0,-1.731769323E0,5.585183144E0,6.383300428E0
8.682838445E0,3.193964243E0,-1.464487314E0,5.580912590E0,6.594900759E0
8.692843133E0,3.232311010E0,-1.253170252E0,5.612559319E0,6.596900200E0
8.702838966E0,3.250827789E0,-1.075058460E0,6.325289726E0,7.192560193E0
8.712838185E0,3.219828129E0,-8.923506737E-1,6.258039474E0,7.094127217E0
8.722836622E0,3.101809263E0,-6.996884346E-1,6.107143402E0,6.885345681E0
8.732837924E0,2.886568069E0,-4.876797199E-1,5.263075829E0,6.022464106E0
8.742840789E0,1.878663659E0,-2.643978596E-1,4.454118729E0,4.841328022E0
8.752869695E0,1.635413885E0,5.548832417E-1,3.641328812E0,4.030105396E0
8.762833654E0,4.751604199E-1,7.309522629E-1,3.470771790E0,3.578592663E0
8.772825997E0,2.857650518E-1,9.362928867E-1,1.504564285E0,1.794998530E0
8.782825372E0,-1.139948726E0,1.809047937E0,1.403253555E0,2.557588332E0
8.792835633E0,-1.163285017E0,1.934313774E0,1.405228615E0,2.658847357E0
8.802848133E0,-1.181045651E0,2.058152676E0,-2.343664169E-1,2.384489229E0
8.812838185E0,-1.164027810E0,2.136006594E0,-1.368514061E0,2.791113693E0
8.822842091E0,-1.143811822E0,2.203613520E0,-2.283569336E0,3.373263544E0
8.832838185E0,-1.283268809E0,2.254455328E0,-2.987778664E0,3.956787713E0
8.842841049E0,-1.147735596E0,2.955319881E0,-4.037962914E0,5.133844280E0
8.852841049E0,-1.053216457E0,2.935639858E0,-4.104750633E0,5.155213288E0
8.862840268E0,-9.680454135E-1,2.884997129E0,-4.163397789E0,5.156956613E0
8.872839747E0,-1.088621855E0,2.810093403E0,-4.196126461E0,5.166159091E0
8.882839747E0,-1.012458324E0,2.713828564E0,-4.206013203E0,5.106905559E0
8.892837404E0,-9.398654103E-1,2.618578672E0,-4.234570503E0,5.066743392E0
8.902835841E0,-8.675158620E-1,2.541127682E0,-4.864023209E0,5.555954953E0
8.912837664E0,-7.992522717E-1,2.511679173E0,-4.918614388E0,5.580331886E0
8.922839747E0,-9.326483011E-1,3.338732958E0,-5.791982651E0,6.750113602E0
8.932857977E0,-8.651673198E-1,3.947145462E0,-6.397974014E0,7.567201813E0
8.942840060E0,-7.982890606E-1,4.675162792E0,-6.487550735E0,8.036337916E0
8.952834852E0,-7.319732308E-1,6.067705154E0,-7.789695740E0,9.901120662E0
8.962844956E0,8.903173804E-1,5.953697205E0,-7.674619675E0,9.753920370E0
8.972845008E0,1.596826315E0,6.906191349E0,-7.750443459E0,1.050308084E1
8.982839227E0,1.773788929E0,6.859622002E0,-7.607488155E0,1.039589425E1
8.992838706E0,2.821803331E0,7.257912636E0,-7.439422131E0,1.076962727E1
9.002838966E0,2.942025661E0,6.987686634E0,-7.243763447E0,1.048596149E1
9.012838706E0,3.531995058E0,6.606720448E0,-7.006681919E0,1.025755018E1
9.022839227E0,3.504435301E0,4.548520088E0,-6.901736259E0,8.977976674E0
9.032840008E0,3.393454552E0,4.298723221E0,-8.159470558E0,9.827080691E0
9.042839227E0,3.197356224E0,4.067545414E0,-7.977883339E0,9.508661057E0
9.052842612E0,2.957939386E0,3.853060246E0,-7.803152084E0,9.191553793E0
9.062840529E0,1.847988486E0,3.557473660E0,-7.609447479E0,8.600835496E0
9.072838185E0,1.584456801E0,3.379329681E0,-7.383650303E0,8.273370791E0
9.082836362E0,4.673972130E-1,4.225283623E0,-7.130567551E0,8.301594753E0
9.092836883E0,2.123317719E-1,4.183149815E0,-6.841562271E0,8.021895129E0
9.102837924E0,-1.664314985E0,4.672200203E0,-6.480690956E0,8.160805988E0
9.112845997E0,-1.919665694E0,4.527269363E0,-6.086840153E0,7.825018039E0
9.122838081E0,-1.967696309E0,4.362007141E0,-4.306715488E0,6.437913743E0
9.132833029E0,-1.969790459E0,4.122923374E0,-4.001054287E0,6.073467462E0
9.142851674E0,-1.961827993E0,2.298892975E0,-3.703277826E0,4.779952368E0
9.152836414E0,-1.910366654E0,2.198199272E0,-3.417557955E0,4.490131754E0
9.162837924E0,-2.051066637E0,2.008664131E0,-3.339809418E0,4.404081390E0
9.172837664E0,-1.919904947E0,2.805795670E-1,-3.078417063E0,3.638875034E0
9.182840529E0,-1.786927104E0,-5.640921593E-1,-2.879537106E0,3.435555615E0
9.192839487E0,-1.655593991E0,-1.309226990E0,-2.688933611E0,3.418395931E0
9.202837924E0,-1.687723279E0,-2.209176064E0,-2.664355278E0,3.850669785E0
9.212836883E0,-1.563653350E0,-2.322801590E0,-2.486451387E0,3.744710874E0
9.222841570E0,-1.442080736E0,-2.417750359E0,-2.315593719E0,3.645145802E0
9.232837143E0,-1.335543513E0,-2.464324474E0,-2.171285152E0,3.545567769E0
9.242841049E0,7.294762135E-2,-2.453877926E0,-3.349271297E0,4.152644513E0
9.252834799E0,2.404381037E-1,-2.408649445E0,-3.423648357E0,4.192942965E0
9.262836102E0,1.061153769E0,-2.335413933E0,-4.433062553E0,5.121742786E0
9.272835320E0,1.151461482E0,-1.661778450E0,-4.451321125E0,4.888929425E0
9.282838966E0,1.209943771E0,-1.551394463E0,-4.438941956E0,4.855408777E0
9.292847299E0,1.224639416E0,-4.249424934E-1,-4.380593777E0,4.568360719E0
9.302836310E0,1.120918989E0,4.551811218E-1,-4.264599800E0,4.432884015E0
9.312825477E0,4.327431917E-1,1.440897942E0,-4.026878357E0,4.298744334E0
9.322823237E0,2.823932171E-1,1.439674377E0,-2.982610226E0,3.323909144E0
9.332854643E0,-1.163807988E0,1.438500404E0,-2.712614536E0,3.283597123E0
9.342837404E0,-1.136885881E0,3.303122520E0,-1.041754723E0,3.645323140E0
9.352839227E0,-1.300105572E0,3.347622871E0,-1.068963766E0,3.746937005E0
9.362838966E0,-1.255991340E0,3.340396881E0,-8.959242702E-1,3.679462714E0
9.372836883E0,-1.204070568E0,3.253932953E0,-7.236729264E-1,3.544230255E0
9.382836883E0,-1.110525727E0,1.352097511E0,-5.197750330E-1,1.825267420E0
9.392849383E0,-1.197159052E0,1.255747795E0,-2.147924900E0,2.761100088E0
9.402847560E0,4.038084745E-1,1.261065483E0,-2.175737619E0,2.546994626E0
9.412848081E0,4.990438223E-1,1.267810822E0,-2.205753326E0,2.592631241E0
9.422845997E0,5.522198081E-1,1.275789261E0,-2.213441372E0,2.613791817E0
9.432847560E0,5.348044038E-1,1.284800529E0,-2.211888790E0,2.613270015E0
9.442854852E0,-9.011229873E-1,1.195028305E0,-2.241200924E0,2.695013334E0
9.452848602E0,-8.078729510E-1,1.206080437E0,-2.273416996E0,2.697353066E0
9.462850424E0,-7.150686979E-1,2.613169670E0,-2.215162039E0,3.499560233E0
9.472861102E0,-6.249587536E-1,2.620606422E0,-2.113969326E0,3.424473358E0
9.482836779E0,-2.029773474E0,2.646815300E0,-2.000051260E0,3.889192285E0
9.492837977E0,-2.063613653E0,2.704187393E0,-1.881014109E0,3.887074072E0
9.502847091E0,-2.069664240E0,2.798567772E0,-1.787558913E0,3.912909213E0
9.512842664E0,-2.025540590E0,3.523639679E0,-1.710578442E0,4.409640561E0
9.522841102E0,-1.924785614E0,3.562894821E0,-1.618478775E0,4.361019687E0
9.532849122E0,-1.792606354E0,3.606895447E0,-1.507832050E0,4.300777813E0
9.542850164E0,-1.633230686E0,3.694139481E0,-1.371415615E0,4.265546831E0
9.552842612E0,-3.276576102E-1,4.444226265E0,-1.227859259E0,4.622352752E0
9.562852508E0,-2.074230015E-1,5.230306625E0,-2.774199247E-1,5.241764351E0
9.572848602E0,-1.309024990E-1,5.300392151E0,8.782833815E-1,5.374260332E0
9.582848341E0,-2.563138008E-1,5.365553856E0,7.731318474E-1,5.427024765E0
9.592847039E0,-1.823993325E-1,5.426096916E0,8.617687821E-1,5.497130405E0
9.602847820E0,-1.095041782E-1,5.452971458E0,-7.209843397E-2,5.454547376E0
9.612850164E0,-4.022127390E-2,5.425837517E0,-8.537572622E-2,5.426658228E0
9.622837404E0,-1.330799937E0,5.324413300E0,-1.215292215E-1,5.489551421E0
9.632836362E0,-1.352187753E0,4.561118126E0,-1.577365398E-1,4.759946543E0
9.642836362E0,-1.373869300E0,3.833145142E0,-1.742931604E-1,4.075646775E0
9.652845737E0,-1.366478920E0,3.015403748E0,-1.492567062E-1,3.313940549E0
9.663306570E0,-1.314324617E0,2.193077087E0,-7.316207886E-2,2.557809415E0
9.672827247E0,-1.232897520E0,1.078274727E0,1.095252037E0,1.970352686E0
9.682841831E0,-1.119790673E0,9.963092804E-1,9.357125163E-1,1.766952531E0
9.692855685E0,-9.670569301E-1,1.014914513E0,9.766219258E-1,1.708520108E0
9.702837143E0,2.049546242E-1,1.033841133E0,1.018605232E0,1.465738894E0
9.712841362E0,2.890377939E-1,1.053028107E0,1.061647415E0,1.522992539E0
9.722837404E0,3.703211546E-1,1.072477341E0,1.106015325E0,1.584492127E0
9.732840268E0,2.495456785E-1,9.889945984E-1,9.228571057E-1,1.375517575E0
9.742843914E0,3.669560254E-1,2.383522034E0,9.803259373E-1,2.603242776E0
9.752839227E0,4.103320539E-1,3.400520325E0,9.964685440E-1,3.567192234E0
9.762844435E0,-9.336883426E-1,3.515584946E0,1.013484001E0,3.776011289E0
9.772842352E0,-9.416504502E-1,4.289518356E0,8.304554224E-1,4.469488730E0
9.782835581E0,-8.992027044E-1,4.332736969E0,2.119874954E0,4.906632752E0
9.792837664E0,-8.127897978E-1,4.344520569E0,2.205311775E0,4.939522877E0
9.802837664E0,4.309038818E-1,4.299380302E0,2.886725664E0,5.196492490E0
9.812843133E0,4.705103636E-1,4.189832687E0,2.940188885E0,5.140115624E0
9.822837404E0,3.101743460E-1,3.414195061E0,3.002765179E0,4.557360503E0
9.832845997E0,3.501287699E-1,3.311909676E0,3.041073799E0,4.509929679E0
9.842835789E0,1.853345275E0,3.194138527E0,3.001456261E0,4.758797046E0
9.852825737E0,1.871568918E0,2.509177208E0,2.875404119E0,4.250492833E0
9.862843445E0,1.846289277E0,2.452180862E0,1.993431211E0,3.660019545E0
9.872834852E0,1.777792215E0,2.377210617E0,4.327530861E-1,2.999825114E0
9.882837924E0,1.648803353E0,2.291489601E0,4.221225679E-1,2.854411420E0
9.892837664E0,3.585912883E-1,2.225781441E0,4.137931168E-1,2.292142115E0
9.902843914E0,3.948072493E-1,2.172676086E0,4.079101980E-1,2.245614586E0
9.912844174E0,4.293316603E-1,2.115859032E0,4.044963121E-1,2.196543280E0
9.922836102E0,1.577737808E0,1.994657516E0,2.431737781E-1,2.554808933E0
9.932835581E0,1.698365450E0,1.931156158E0,2.860931456E-1,2.587597070E0
9.942844435E0,2.535791397E0,1.883710861E0,3.300099969E-1,3.176084258E0
9.952840268E0,2.583186865E0,1.836871147E0,3.747724891E-1,3.191771359E0
9.962844956E0,2.592830896E0,7.780618668E-1,2.197809368E-1,2.715963178E0
9.972836102E0,2.541972637E0,7.955274582E-1,2.662604451E-1,2.676823388E0
9.982838185E0,2.412696362E0,8.132266998E-1,3.138290048E-1,2.565332345E0
9.992837924E0,1.710015893E0,8.311414719E-1,3.617614806E-1,1.935412584E0
1.000283818E1,1.524055481E0,8.492507935E-1,1.530548453E0,2.320894351E0
1.001285199E1,-1.466053724E-1,-1.340488434E0,1.633735657E0,2.118370735E0
1.002283636E1,-1.582969427E-1,-2.052396297E0,1.740178823E0,2.695479702E0
1.003282704E1,-1.712582856E-1,-2.776040077E0,2.385761976E0,3.664367356E0
1.004283173E1,-1.837356687E-1,-3.484921932E0,2.422202826E0,4.248000259E0
1.005283485E1,-1.978944987E-1,-4.244076252E0,2.483480692E0,4.921282537E0
1.006284678E1,-4.101324677E-1,-5.028623581E0,2.544610023E0,5.650690571E0
1.007284496E1,-4.181668758E-1,-5.726263046E0,3.196851254E0,6.571515042E0
1.008283792E1,-3.857410550E-1,-5.874851227E0,3.225511074E0,6.713165780E0
1.009284105E1,-1.396319628E0,-6.907351971E0,3.247589827E0,7.759385248E0
1.010283975E1,-1.469384193E0,-8.948512077E0,3.353469610E0,9.668542637E0
1.011284287E1,-1.491951466E0,-8.886139870E0,3.949040174E0,9.837902178E0
1.012284105E1,-1.439360142E0,-8.823186874E0,3.900608778E0,9.753724062E0
1.013283740E1,-3.911973238E-1,-8.759200096E0,3.840153694E0,9.572011391E0
1.014284157E1,-3.628796339E-1,-8.693972588E0,3.748528004E0,9.474613616E0
1.015283714E1,-5.350956321E-1,-8.826584816E0,3.611222029E0,9.551745986E0
1.016284105E1,-5.036331415E-1,-8.757538795E0,3.454570770E0,9.427735216E0
1.017283818E1,-4.722121656E-1,-8.683869362E0,3.273553371E0,9.292401363E0
1.018283740E1,9.358714819E-1,-8.606578827E0,3.121164799E0,9.202756339E0
1.019286657E1,9.702845812E-1,-8.525472641E0,2.994865179E0,9.088143560E0
1.020283636E1,9.769045115E-1,-8.639660835E0,2.871025085E0,9.156465847E0
1.021285438E1,9.426804185E-1,-8.549158096E0,2.739219189E0,9.026631281E0
1.022282871E1,8.874392509E-1,-8.453558922E0,2.609725237E0,8.891618114E0
1.023283902E1,8.426957130E-1,-8.352563858E0,2.487315893E0,8.755695256E0
1.024283714E1,7.549091578E-1,-8.242129326E0,2.372593641E0,8.609981664E0
1.025283949E1,6.838229895E-1,-8.324599266E0,2.781369925E0,8.803555275E0
1.026284417E1,6.263415813E-1,-8.199176788E0,2.587525606E0,8.620562194E0
1.027283897E1,5.665721297E-1,-8.064532280E0,2.378551722E0,8.427051273E0
1.028283897E1,5.610053539E-1,-6.720669746E0,2.191215277E0,7.091089707E0
1.029283532E1,5.432519913E-1,-6.534177780E0,1.987093210E0,6.851214594E0
1.030284079E1,5.246132612E-1,-6.340847015E0,1.759729862E0,6.601379336E0
1.031284574E1,4.901823997E-1,-6.135588169E0,1.599344730E0,6.359530213E0
1.032283871E1,4.276313782E-1,-5.238491535E0,2.650235653E0,5.886290103E0
1.033283584E1,3.950881958E-1,-3.978168964E0,3.866378307E0,5.561546926E0
1.034283949E1,4.495819807E-1,-2.248097420E0,5.381931305E0,5.849893207E0
1.035283740E1,1.382123113E0,-5.305943489E-1,6.618896484E0,6.782446854E0
1.036284183E1,1.446005225E0,6.316156387E-1,7.520359039E0,7.684118004E0
1.037287256E1,2.180300236E0,8.352041245E-1,7.456272125E0,7.813275181E0
1.038283803E1,2.164632082E0,9.488687515E-1,7.296000957E0,7.669264237E0
1.039285126E1,2.111784935E0,3.881373405E-1,7.009864330E0,7.331335768E0
1.040282647E1,2.058483124E0,-5.485424995E-1,5.736983299E0,6.119740928E0
1.041283959E1,1.934493899E0,-1.990127087E0,3.980822563E0,4.852815754E0
1.042284027E1,1.784291506E0,-3.633465290E0,2.156535149E0,4.586546635E0
1.043284131E1,1.031151056E0,-5.645591259E0,5.595836639E-1,5.766203867E0
1.044284235E1,9.159840345E-1,-5.659905910E0,-2.838335037E-1,5.740568188E0
1.045283949E1,7.999269962E-1,-5.485345840E0,-3.523254395E-1,5.554550873E0
1.046284417E1,7.170840502E-1,-5.280955315E0,1.411918640E0,5.513276051E0
1.047283897E1,7.071802616E-1,-3.473751307E0,3.357043743E0,4.882294005E0
1.048283975E1,6.516442299E-1,-3.128345013E0,3.144510269E0,4.483205054E0
1.049283740E1,5.493497849E-1,-2.181598186E0,4.782363415E0,5.285088047E0
1.050283688E1,4.276328087E-1,-2.000914335E0,5.761750698E0,6.114270120E0
1.051284339E1,3.138854504E-1,-1.893980026E0,6.355636120E0,6.639261623E0
1.052286579E1,2.243959904E-1,-1.832272768E0,6.358989716E0,6.621504909E0
1.053283819E1,2.291536331E-1,-1.781468630E0,6.352550030E0,6.601593273E0
1.054284886E1,3.762011528E-1,-1.724731922E0,6.326741219E0,6.568400259E0
1.055285751E1,1.751658201E0,-1.639949560E0,6.262695312E0,6.706645480E0
1.056284735E1,2.958388329E0,-1.504177570E0,6.108420849E0,6.951792354E0
1.057285204E1,4.018765926E0,-1.327046394E0,5.886095047E0,7.249665275E0
1.058285662E1,4.746489048E0,-1.106431007E0,4.925804615E0,6.929422701E0
1.059283621E1,4.786603928E0,-2.681314945E-1,4.758555412E0,6.754799869E0
1.060283589E1,4.708884239E0,-2.355003357E-2,4.582504749E0,6.570654089E0
1.061284782E1,3.504468203E0,9.451451302E-1,3.767425060E0,5.231451833E0
1.062288376E1,2.065897465E0,1.126231194E0,3.636593819E0,4.331413584E0
1.063284782E1,4.470555782E-1,1.303439856E0,1.871469975E0,2.324051207E0
1.064284912E1,-2.264585733E0,1.515793562E0,1.895976067E0,3.319744555E0
1.065284704E1,-3.593826771E0,1.641975880E0,2.584075928E-1,3.959602269E0
1.066283355E1,-3.711191654E0,1.740564108E0,-8.205966949E-1,4.180416946E0
1.067284704E1,-3.751666069E0,2.405422688E0,-1.977294445E0,4.875525605E0
1.068284704E1,-3.705320358E0,2.451474428E0,-2.977250099E0,5.348190720E0
1.069284730E1,-3.555150032E0,2.500506878E0,-3.783886433E0,5.762761745E0
1.070284912E1,-2.257230282E0,2.567986012E0,-3.942746878E0,5.218706127E0
1.071284600E1,-2.125078678E0,3.208766460E0,-4.870122910E0,6.207273052E0
1.072288220E1,-2.207423687E0,3.194074154E0,-4.948936462E0,6.290214714E0
1.073288350E1,-2.096668243E0,3.153484821E0,-5.026530266E0,6.293368792E0
1.074283464E1,-1.994162202E0,3.109324694E0,-5.768375397E0,6.849725371E0
1.075283511E1,-1.899288774E0,3.070418358E0,-5.819764137E0,6.848680263E0
1.076282412E1,-1.810074806E0,3.597196579E0,-6.558257103E0,7.695903473E0
1.077284006E1,-1.918124437E0,3.561401844E0,-7.700977802E0,8.698726548E0
1.078283636E1,-1.833413124E0,4.307617188E0,-7.581862450E0,8.910757977E0
1.079285069E1,-1.748780012E0,4.865143776E0,-7.458830833E0,9.075351943E0
1.080284782E1,-1.665744901E0,5.850107193E0,-8.376649857E0,1.035213616E1
1.081284886E1,-1.647472382E-4,5.674973965E0,-8.334569931E0,1.008317338E1
1.082289027E1,8.683437109E-1,6.832746029E0,-8.321220398E0,1.080199741E1
1.083284860E1,9.957669973E-1,7.400969982E0,-8.223091125E0,1.110788622E1
1.084283897E1,1.144973516E0,7.152456284E0,-8.099372864E0,1.086593006E1
1.085283792E1,1.815677285E0,6.825059414E0,-7.945924282E0,1.063089049E1
1.086284079E1,1.784098387E0,6.465004921E0,-7.774556637E0,1.026757160E1
1.087283636E1,1.714495540E0,6.065227509E0,-7.577168465E0,9.855960716E0
1.088283662E1,1.577303886E0,5.683971882E0,-7.876856327E0,9.840746389E0
1.089284365E1,8.566758633E-1,4.823627472E0,-7.577026844E0,9.022893733E0
1.090283818E1,7.206017971E-1,4.560412407E0,-7.279668808E0,8.620336781E0
1.091285068E1,-1.663463116E-1,4.337156296E0,-6.952812195E0,8.196352435E0
1.092291714E1,-3.165574074E-1,4.155588627E0,-6.592881203E0,7.799692813E0
1.093284683E1,-1.776428223E0,4.011203766E0,-6.210607052E0,7.603755180E0
1.094285553E1,-1.745590448E0,3.832316399E0,-5.810938358E0,7.176401577E0
1.095283506E1,-1.710592031E0,3.591180801E0,-4.766543865E0,6.208272309E0
1.096284605E1,-1.873980284E0,2.136543751E0,-4.430297375E0,5.263473770E0
1.097283766E1,-1.830989122E0,2.051832676E0,-4.085497856E0,4.924817888E0
1.098283662E1,-1.754003882E0,8.896846771E-1,-2.805649042E0,3.426329668E0
1.099284574E1,-1.672655344E0,-5.214357376E-2,-2.541382790E0,3.042880434E0
1.100283844E1,-1.700094461E0,-1.683265209E0,-2.463375807E0,3.433936998E0
1.101283610E1,-1.570542932E0,-1.846084595E0,-3.233325481E0,4.040919091E0
1.102283714E1,-1.452252626E0,-1.932939529E0,-3.158919334E0,3.977947244E0
1.103284131E1,-1.336177826E0,-1.960122108E0,-3.089911938E0,3.895510961E0
1.104284626E1,-1.229444742E0,-1.921880722E0,-3.036624432E0,3.798190072E0
1.105283610E1,4.460051060E-1,-1.294076443E0,-2.975883007E0,3.275581485E0
1.106283766E1,5.923068523E-1,-1.185380459E0,-2.893737793E0,3.182714667E0
1.107283714E1,7.549902201E-1,-3.064713478E-1,-2.785616398E0,2.902342784E0
1.108283792E1,1.541628122E0,-1.929502487E-1,-2.674786806E0,3.093271977E0
1.109285933E1,1.617356181E0,1.540325165E0,-2.578393459E0,3.411239578E0
1.110284600E1,1.682888865E0,1.436806679E0,-2.523540020E0,3.356304902E0
1.111284475E1,1.679706454E0,1.442751884E0,-2.519343853E0,3.354107962E0
1.112282261E1,1.681337833E0,1.450481415E0,-3.170609474E0,3.870860070E0
1.113284188E1,1.701856256E0,1.459001541E0,-3.111126423E0,3.834593568E0
1.114284417E1,1.708512187E0,1.473091125E0,-3.052907944E0,3.795952880E0
1.115283949E1,1.735275030E0,1.387044907E0,-2.959019184E0,3.700117233E0
1.116283688E1,1.761154532E0,-2.263107300E-1,-2.834393978E0,3.344648122E0
1.117284027E1,1.785025120E0,-3.149175644E-1,-2.676583529E0,3.232582116E0
1.118284027E1,1.795305371E0,-1.174313545E0,-2.352972269E0,3.184118744E0
1.119284131E1,1.738349795E0,-1.231680870E0,-1.350445747E0,2.522419769E0
1.120283766E1,1.669146657E0,-1.278974056E0,-1.168547630E0,2.405686755E0
1.121283766E1,1.584359169E0,-1.293025017E0,-1.050393820E0,2.299007361E0
1.122283610E1,1.471173763E0,-1.266678810E0,-1.005011916E0,2.186064135E0
1.123284001E1,7.839636803E-1,-1.196856499E0,-1.015354872E0,1.754425845E0
1.124284157E1,6.408913136E-1,-1.074654579E0,-1.676191568E0,2.091707990E0
1.125283610E1,-1.271225214E-1,-2.148637772E-1,-1.624419689E0,1.643491985E0
1.126283584E1,-2.558250427E-1,-6.481456757E-2,-1.556540132E0,1.578754117E0
1.127284594E1,-3.866744041E-1,1.560527802E0,-1.499243975E0,2.198294023E0
1.128284990E1,-1.603774190E0,1.591890335E0,-1.446587920E0,2.683062262E0
1.129284579E1,-1.795065641E0,1.523241043E0,-1.403110743E0,2.740664826E0
1.130283579E1,-1.760836005E0,1.549725533E0,-1.362354279E0,2.712600568E0
1.131283641E1,-1.714559436E0,3.369148254E0,-1.326611042E0,4.006341333E0
1.132283876E1,-1.639753938E0,3.528002739E0,-1.272810459E0,4.093365702E0
1.133284574E1,-1.548806667E0,4.792478561E0,-1.248125553E0,5.188879479E0
1.134284860E1,-1.656107306E0,5.737136841E0,-1.260330677E0,6.102938961E0
1.135284079E1,-2.638448954E0,6.702566147E0,-1.293449402E0,7.318388975E0
1.136283949E1,-3.368031263E0,8.268918991E0,-1.929132819E0,9.134561254E0
1.137283766E1,-3.356631041E0,8.404994011E0,-1.857677341E0,9.239148303E0
1.138284001E1,-3.358603954E0,9.314640999E0,-1.767154098E0,1.005811071E1
1.139284365E1,-3.875492096E0,9.344678879E0,-1.722241879E0,1.026199685E1
1.140283662E1,-3.789262772E0,9.343402863E0,-1.736295104E0,1.023095353E1
1.141283636E1,-3.686117649E0,9.272778511E0,-1.780478239E0,1.013617223E1
1.142283819E1,-3.591786385E0,9.178488731E0,-1.780240178E0,1.001572962E1
1.143283688E1,-3.498089552E0,9.079067230E0,-1.748668194E0,9.885541601E0
1.144284183E1,-3.418190718E0,8.986104012E0,-1.682678699E0,9.760404740E0
1.145283319E1,-3.362753868E0,8.904090881E0,-1.579958797E0,9.648171734E0
1.146285990E1,-3.303241014E0,8.831540108E0,-1.469001770E0,9.542822857E0
1.147284501E1,-3.213472128E0,8.752820969E0,-7.354440689E-1,9.353029242E0
1.148282844E1,-3.058558702E0,8.634375572E0,-5.793471336E-1,9.178391251E0
1.149284709E1,-2.802519083E0,7.664669037E0,4.795430899E-1,8.175036772E0
1.150283615E1,-1.525833130E0,7.486903191E0,6.172997952E-1,7.665699261E0
1.151284027E1,5.588462353E-1,6.136236191E0,1.890408039E0,6.445102502E0
1.152283923E1,6.866095662E-1,5.140971184E0,1.937735677E0,5.536771348E0
1.153284001E1,2.000942945E0,4.050387383E0,1.761301994E0,4.848875677E0
1.154285303E1,4.250407219E0,1.135111809E0,1.798001289E0,4.752604442E0
1.155283876E1,4.448493481E0,1.148910522E0,1.796364665E0,4.933154736E0
1.156284287E1,5.077274799E0,1.152461052E0,1.767161131E0,5.498158267E0
1.157284157E1,5.009714603E0,1.058088303E0,1.545065641E0,5.348272534E0
1.158283792E1,4.210522175E0,5.232906342E-2,1.528113723E0,4.479549851E0
1.159284157E1,3.262382984E0,1.068466187E0,1.515398622E0,3.752491933E0
1.160283636E1,2.104987144E0,1.073447227E0,1.506542325E0,2.802307907E0
1.161283636E1,5.638516545E-1,1.080245018E0,1.502870202E0,1.934806665E0
1.162283818E1,3.380362391E-1,2.352392197E0,1.299564004E0,2.708668334E0
1.163283579E1,-1.846346617E0,3.036774635E0,1.297579050E0,3.783478215E0
1.164286433E1,-2.859920502E0,3.137932777E0,1.296450019E0,4.439206015E0
1.165285329E1,-3.646542788E0,3.210296631E0,1.296172857E0,5.028254452E0
1.166282667E1,-3.789438248E0,3.213374138E0,1.295794964E0,5.134656772E0
1.167284209E1,-3.898087025E0,3.112743378E0,1.097373366E0,5.107688527E0
1.168283714E1,-3.940447569E0,2.321634293E0,1.098248720E0,4.703537295E0
1.169284287E1,-3.945811987E0,9.325199127E-1,1.100608587E0,4.201233734E0
1.170283949E1,-3.851235390E0,9.487066269E-1,1.104942322E0,4.117396729E0
1.171283818E1,-3.671344757E0,9.681844711E-1,1.109740496E0,3.955714533E0
1.172284027E1,-3.330919266E0,-6.103219986E-1,9.556334615E-1,3.518629195E0
1.173283662E1,-2.339808702E0,-1.386279583E0,9.638211727E-1,2.885381621E0
1.174285042E1,-2.111835718E0,-1.454099178E0,9.730296135E-1,2.742451668E0
1.175283871E1,-1.236249328E0,-1.549279690E0,9.855265617E-1,2.213558800E0
1.176283819E1,-1.002526760E0,-2.232458115E0,7.981324792E-1,2.574091023E0
1.177283740E1,-6.172454357E-2,-2.266577721E0,8.124043345E-1,2.408564985E0
1.178283688E1,1.626235247E-1,-2.282957077E0,8.298629522E-1,2.434545532E0
1.179284131E1,1.419247270E0,-2.273516178E0,8.473560810E-1,2.810898602E0
1.180283506E1,1.531229019E0,-2.223730087E0,8.662454486E-1,2.835492724E0
1.181295355E1,1.419116974E0,-2.147675514E0,6.840176582E-1,2.663509575E0
1.182283902E1,1.502509832E0,-2.060455322E0,7.035229206E-1,2.645365085E0
1.183284964E1,1.560258269E0,-1.991984844E0,7.239744663E-1,2.631833679E0
1.184286636E1,1.613879919E0,-1.946638584E0,7.441932559E-1,2.635874385E0
1.185283996E1,1.632337451E0,-1.951765537E0,7.628540397E-1,2.656286986E0
1.186285042E1,1.451497197E0,-2.014788628E0,5.821728706E-1,2.550518100E0
1.187284886E1,1.469611764E0,-2.133278847E0,-4.291715622E-1,2.625799993E0
1.188284730E1,1.486392617E0,-3.131167412E0,-1.046631336E0,3.620636619E0
1.189284834E1,1.503283501E0,-3.283282280E0,-1.080837607E0,3.769351900E0
1.190284678E1,1.359277248E0,-4.529209137E0,-1.038542986E0,4.841481341E0
1.191284782E1,1.375205874E0,-5.433379173E0,-9.549214840E-1,5.685479353E0
1.192284938E1,1.392786145E0,-5.519561768E0,5.849657655E-1,5.722551904E0
1.193285251E1,1.410385847E0,-5.627652168E0,6.135367751E-1,5.834045298E0
1.194284860E1,1.430866718E0,-6.338420868E0,6.445822120E-1,6.529812010E0
1.195284860E1,1.250607371E0,-6.343732834E0,4.773001671E-1,6.483423518E0
1.196284444E1,1.274814010E0,-6.321388245E0,5.127912760E-1,6.469007265E0
1.197285199E1,1.299230337E0,-6.246242046E0,5.488475561E-1,6.403496920E0
1.198285251E1,1.325874567E0,-6.124602795E0,1.582292795E0,6.463153507E0
1.199291917E1,1.352456927E0,-5.253271103E0,1.672964811E0,5.676689905E0
1.200284011E1,1.177652955E0,-5.098540306E0,2.302669525E0,5.717015539E0
1.201288490E1,1.204475999E0,-3.919757843E0,2.352192879E0,4.727375098E0
1.202283246E1,1.230951905E0,-3.014565468E0,2.412921190E0,4.052781295E0
1.203283746E1,1.257129908E0,-1.933891296E0,2.483079910E0,3.389099732E0
1.204284886E1,2.394434452E0,-7.892646790E-1,2.493828773E0,3.546186266E0
1.205284782E1,2.456223726E0,1.191821098E0,2.505874395E0,3.705789931E0
1.206285251E1,2.528275728E0,1.202943802E0,2.494146824E0,3.749669362E0
1.207283688E1,2.595523357E0,1.214686394E0,3.033167839E0,4.172806211E0
1.208283949E1,2.698120594E0,1.246846199E0,3.098711729E0,4.293773930E0
1.209283662E1,2.636658907E0,1.153527260E0,3.857341766E0,4.812658396E0
1.210284105E1,2.543862820E0,1.161652565E0,3.884122372E0,4.786134278E0
1.211283845E1,2.447669029E0,1.171704292E0,4.626667976E0,5.363770240E0
1.212284522E1,2.373171806E0,-5.011768341E-1,4.607814312E0,5.207213782E0
1.213283714E1,2.347632170E0,-6.434040070E-1,4.591253281E0,5.196628927E0
1.214283949E1,2.898135185E0,-1.427183151E0,4.559244633E0,5.587732180E0
1.215284053E1,2.953180075E0,-1.414726734E0,4.422076702E0,5.502498219E0
1.216283636E1,3.848528385E0,-1.355869293E0,4.199327946E0,5.855246149E0
1.217290345E1,3.923599720E0,-1.233311653E0,3.259271622E0,5.247717971E0
1.218283808E1,4.832936287E0,-3.579187393E-1,2.343711138E0,5.383155290E0
1.219285631E1,4.865398407E0,-2.103710175E-1,1.515918493E0,5.100428070E0
1.220284058E1,4.855584145E0,1.245634079E0,1.208553791E0,5.156442951E0
1.221283459E1,4.779615402E0,1.285915375E0,1.028697491E-1,4.950644799E0
1.222284548E1,4.585935116E0,1.328366280E0,-1.236326694E-1,4.776048879E0
1.223283792E1,3.759735823E0,2.810384750E0,-3.348391056E-1,4.705952946E0
1.224284209E1,2.619851828E0,3.744470596E0,-4.903571606E-1,4.596208632E0
1.225284027E1,1.178109407E0,4.926564217E0,-5.368287563E-1,5.093835674E0
1.226283610E1,-1.879119158E0,7.482901573E0,-4.087861776E-1,7.726060503E0
1.227284287E1,-2.919093370E0,7.624846458E0,3.218376637E-1,8.170860977E0
1.228284157E1,-3.127149343E0,7.665286064E0,4.323554039E-1,8.289909810E0
1.229283818E1,-3.857029200E0,7.539972305E0,5.149853230E-1,8.484872804E0
1.230283636E1,-3.908062696E0,6.384606361E0,5.554600954E-1,7.506309902E0
1.231283714E1,-3.821540833E0,4.876991272E0,5.394376516E-1,6.219341700E0
1.232284235E1,-3.070824623E0,2.972756386E0,4.627588987E-1,4.298998743E0
1.233283714E1,-2.202721596E0,1.131775856E0,-1.703308940E0,3.005688001E0
1.234284131E1,-1.916095018E0,-1.271738529E0,-1.627718568E0,2.817482341E0
1.235286256E1,-3.522155881E-1,-2.717442513E0,-3.084572315E0,4.125910323E0
1.236285006E1,-2.042365670E-1,-3.418562889E0,-4.439317703E0,5.606766133E0
1.237285907E1,-6.444276869E-2,-3.425646782E0,-5.587626457E0,6.554447206E0
1.238284136E1,-1.345942020E-1,-3.286649704E0,-6.405607224E0,7.200832298E0
1.239283714E1,-1.653001189E0,-1.911355019E0,-6.488947392E0,6.963629024E0
1.240283485E1,-1.607499480E0,-6.819972992E-1,-6.467523098E0,6.699106651E0
1.241283584E1,-1.525520563E0,1.170763016E0,-6.377095699E0,6.660724329E0
1.242284261E1,-1.398523450E0,1.174983025E0,-6.164948940E0,6.429856016E0
1.243283636E1,-1.209108472E0,3.087924004E0,-5.175704479E0,6.146961429E0
1.244283897E1,3.973783851E-1,4.003423691E0,-3.394446850E0,5.263799032E0
1.245283636E1,4.942681491E-1,4.007513046E0,-2.509285688E0,4.754048431E0
1.246283688E1,5.425281525E-1,3.902412415E0,-2.216663599E0,4.520703149E0
1.247284313E1,3.894930482E-1,3.022747993E0,-1.949635744E0,3.617981454E0
1.248283766E1,4.381825924E-1,2.185141563E0,-1.712759495E0,2.810763726E0
1.249283792E1,4.861822724E-1,1.017974854E0,-1.520812154E0,1.893545778E0
1.250283714E1,5.321490765E-1,1.036959648E0,-1.365708113E0,1.795446073E0
1.251283766E1,5.776725411E-1,-1.362524033E-1,-1.261156917E0,1.393838961E0
1.252284209E1,4.217995405E-1,-2.366695404E-1,-1.197583914E0,1.291562834E0
1.253285923E1,-9.601507187E-1,-3.384819031E-1,-1.174746990E0,1.554506318E0
1.254285042E1,-9.901762605E-1,-3.974790573E-1,-1.191829205E0,1.599654800E0
1.255288246E1,-1.001182199E0,-3.896560669E-1,-1.226753473E0,1.630681370E0
1.256283980E1,-9.467843771E-1,-3.185901642E-1,-1.257031441E0,1.605623988E0
1.257284235E1,-8.190742731E-1,-1.873722076E-1,-1.273952723E0,1.526088644E0
1.258283844E1,5.002469420E-1,1.019474030E0,-1.260234237E0,1.696397545E0
1.259284079E1,5.439101458E-1,1.040062904E0,-1.214961529E0,1.689289972E0
1.260283897E1,5.872336626E-1,1.060688019E0,-1.141941786E0,1.665512981E0
1.261283897E1,6.290877461E-1,1.081355095E0,-1.038844824E0,1.626123858E0
1.262284860E1,5.124817491E-1,1.022357941E0,-8.801074028E-1,1.443066992E0
1.263283636E1,5.556457639E-1,1.043349266E0,-8.121485114E-1,1.434191448E0
1.264283740E1,5.987605453E-1,1.064285278E0,-7.937992811E-1,1.456480224E0
1.265283923E1,6.416419744E-1,1.085175514E0,-8.087661862E-1,1.497802745E0
1.266282470E1,4.836713076E-1,1.006134033E0,-8.485348821E-1,1.402232175E0
1.267284235E1,5.256710052E-1,1.027235985E0,-8.930557370E-1,1.459140954E0
1.268283584E1,5.676487088E-1,1.048243523E0,-9.291777015E-1,1.511426723E0
1.269283584E1,6.095568538E-1,1.069145203E0,-9.482601881E-1,1.553650027E0
1.270283688E1,6.514185667E-1,1.089928627E0,-9.379736185E-1,1.578633925E0
1.271284131E1,4.921754003E-1,1.010769844E0,-9.165680408E-1,1.450513452E0
1.272284850E1,2.177879810E0,1.031605721E0,-8.903763294E-1,2.569073926E0
1.273283584E1,2.263761282E0,1.052337646E0,-8.894699812E-1,2.650129527E0
1.274283641E1,2.371521711E0,1.073158264E0,-9.087151289E-1,2.757090327E0
1.275284131E1,2.970796347E0,1.094230652E0,-9.642683268E-1,3.309499216E0
1.276283845E1,2.965944767E0,1.015635490E0,-1.625775099E0,3.531499467E0
1.277284287E1,2.926644325E0,1.037026405E0,-1.674742699E0,3.527808651E0
1.278283871E1,2.815427303E0,1.055185318E0,-1.732707024E0,3.470204689E0
1.279283714E1,2.597526073E0,1.093680382E0,-1.852823496E0,3.372867235E0
1.280283688E1,1.879626513E0,1.012617111E0,-1.844691396E0,2.821573247E0
1.281283688E1,1.739171982E0,1.032530785E0,-1.778003812E0,2.692979123E0
1.282284391E1,1.561265707E0,1.056876183E0,-1.653206348E0,2.507514527E0
1.283283688E1,1.811909080E-1,1.082126617E0,-1.487698317E0,1.848533051E0
1.284283766E1,1.619772017E-1,2.519591331E0,-6.554394960E-1,2.608481939E0
1.285283688E1,-5.428088456E-2,2.671494484E0,-5.217274427E-1,2.722504126E0
1.286283662E1,-1.158304334E0,3.869991302E0,-3.611773252E-1,4.055730596E0
1.287284339E1,-1.970579624E0,4.635283470E0,4.497128725E-1,5.056805174E0
1.288285746E1,-2.716826677E0,5.348428726E0,5.721030235E-1,6.026121381E0
1.289283600E1,-2.889539719E0,5.501869202E0,7.113976479E-1,6.255085220E0
1.290282615E1,-3.767120123E0,6.357077599E0,1.714918256E0,7.585814013E0
1.291285016E1,-3.782745600E0,6.380626678E0,1.750752211E0,7.621462746E0
1.292284084E1,-3.756823778E0,6.362854958E0,1.775596738E0,7.599499450E0
1.293283641E1,-3.673525333E0,6.251496315E0,1.769791007E0,7.463789571E0
1.294283766E1,-3.532917023E0,5.354372025E0,1.758896708E0,6.651655440E0
1.295284027E1,-3.364043236E0,4.643120766E0,1.546496630E0,5.938603301E0
1.296283845E1,-3.193650961E0,4.472213745E0,1.503614068E0,5.697451843E0
1.297284261E1,-3.037452221E0,3.457017899E0,1.502838016E0,4.841034068E0
1.298283662E1,-2.976395130E0,3.351181030E0,1.465555787E0,4.715633153E0
1.299283740E1,-2.967434883E0,2.683197021E0,1.230823517E0,4.185706938E0
1.300283871E1,-3.604737759E0,2.618968010E0,1.199407697E0,4.614293724E0
1.301283949E1,-3.535725117E0,2.539856911E0,1.173366785E0,4.508770879E0
1.302284496E1,-3.426368713E0,2.428150177E0,1.151257634E0,4.354458633E0
1.303283662E1,-3.252487898E0,9.289522171E-1,1.134907842E0,3.567862884E0
1.304283766E1,-2.456529617E0,8.547468185E-1,9.188522696E-1,2.758517605E0
1.305283610E1,-1.570616126E0,8.814201355E-1,9.054608941E-1,2.015836278E0
1.306285329E1,-5.383158922E-1,9.089889526E-1,8.962323070E-1,1.385379827E0
1.307284152E1,6.031955481E-1,9.370841980E-1,8.889173269E-1,1.425533471E0
1.308283016E1,1.819106221E0,9.655771255E-1,8.832150102E-1,2.240882724E0
1.309282522E1,2.816252708E0,8.947076797E-1,6.804026961E-1,3.032281151E0
1.310283303E1,3.733366489E0,9.255380630E-1,-2.896715999E-1,3.857273089E0
1.311284860E1,3.934153080E0,9.524850845E-1,-3.661509156E-1,4.064339403E0
1.312284183E1,4.840306759E0,9.729776382E-1,-4.609180093E-1,4.958598634E0
1.313285251E1,4.853075504E0,9.863281250E-1,-5.654806495E-1,4.984471224E0
1.314284756E1,4.763294220E0,-4.866781235E-1,-6.516118050E-1,4.832227785E0
1.315284548E1,4.490558147E0,-7.149400711E-1,-6.484345794E-1,4.593116500E0
1.316284730E1,3.558920145E0,-1.528960228E0,-5.508252382E-1,3.912421299E0
1.317284860E1,3.365747929E0,-1.623277664E0,-4.289367199E-1,3.761286509E0
1.318284678E1,3.152329922E0,-2.276941776E0,5.276660919E-1,3.924293477E0
1.319284938E1,2.397433758E0,-2.393163681E0,5.738209486E-1,3.435722851E0
1.320284860E1,2.285464287E0,-3.097595215E0,6.232316494E-1,3.899597519E0
1.321284782E1,2.187939882E0,-3.185911655E0,6.731317639E-1,3.923037137E0
1.322284808E1,2.103297234E0,-3.271950245E0,7.231875658E-1,3.956326315E0
1.323284626E1,2.052644730E0,-3.345733166E0,5.747897625E-1,3.967072481E0
1.324287600E1,2.031708956E0,-3.411276817E0,5.934656262E-1,4.014579960E0
1.325284032E1,2.043354988E0,-3.457400322E0,2.262535095E0,4.609553303E0
1.326284881E1,2.682600975E0,-3.461186886E0,2.306284666E0,4.949253642E0
1.327282141E1,2.727442265E0,-3.429263592E0,2.392761230E0,4.992403869E0
1.328283766E1,3.466242313E0,-3.346803665E0,3.079388857E0,5.718266020E0
1.329284886E1,3.564544201E0,-3.215326786E0,3.098825932E0,5.713757420E0
1.330284548E1,4.673244476E0,-2.321096897E0,3.126105785E0,6.082700233E0
1.331284001E1,5.317223549E0,-2.218871117E0,3.110636234E0,6.547695250E0
1.332284209E1,5.372782707E0,-1.548862457E0,3.114453316E0,6.400436578E0
1.333284287E1,6.157321930E0,-8.199186325E-1,3.764582396E0,7.263398690E0
1.334283923E1,6.053089619E0,-7.210760117E-1,3.723115206E0,7.142928768E0
1.335283923E1,5.843617916E0,8.838615417E-1,3.680159807E0,6.962230805E0
1.336283975E1,5.526489258E0,9.064226151E-1,3.641449928E0,6.680108012E0
1.337283766E1,4.369278908E0,8.347339630E-1,3.601107597E0,5.723229411E0
1.338283688E1,4.028303623E0,8.693065643E-1,3.514752626E0,5.416309630E0
1.339283714E1,2.877220631E0,9.086637497E-1,3.399454594E0,4.545366861E0
1.340283610E1,2.636379957E0,9.523181915E-1,3.263533592E0,4.302099572E0
1.341283584E1,2.448599100E0,9.979581833E-1,3.124472141E0,4.093150895E0
1.342284246E1,2.314581871E0,9.463300705E-1,2.965795755E0,3.879274971E0
1.343285970E1,2.247581005E0,9.967308044E-1,2.790401936E0,3.719063811E0
1.344284475E1,2.232352257E0,-7.612342834E-1,2.564054012E0,3.483855222E0
1.345282272E1,2.208098412E0,-1.671522617E0,1.530636430E0,3.164258892E0
1.346283641E1,2.144531012E0,-1.802657604E0,6.748696566E-1,2.881672561E0
1.347283740E1,1.953599691E0,-1.830371380E0,-3.839355707E-1,2.704481034E0
1.348283506E1,5.902554989E-1,-1.626476765E0,-1.707869768E0,2.431182298E0
1.349283688E1,-1.783842206E0,1.202833176E0,-2.958203554E0,3.657850316E0
1.350283949E1,-2.897084236E0,4.023922920E0,-3.183305979E0,5.892239786E0
1.351283871E1,-5.775108337E0,9.843839645E0,-3.350781918E0,1.189456997E1
1.352283766E1,-5.879990578E0,1.128644276E1,-3.382807255E0,1.316819897E1
1.353283662E1,-5.910329819E0,1.139268970E1,-3.340056419E0,1.326202677E1
1.354285121E1,-5.827782631E0,1.127819824E1,-3.196536541E0,1.309116694E1
1.355283558E1,-5.572693825E0,9.585736275E0,-1.519482136E0,1.119151832E1
1.356283610E1,-4.267825127E0,6.626424789E0,-1.541276217E0,8.031149929E0
1.357283662E1,-2.983649015E0,2.590326309E0,-1.375220776E0,4.183680678E0
1.358283819E1,-1.091135859E0,-1.360801697E0,-1.217950702E0,2.127383988E0
1.359283714E1,-8.577647209E-1,-4.223622322E0,-3.084568739E0,5.299934919E0
1.360283678E1,-6.389367580E-1,-5.832899094E0,-3.748612881E0,6.962977132E0
1.361285662E1,-6.330310106E-1,-6.518717766E0,-3.801192045E0,7.572547163E0
1.362283928E1,-1.425729036E0,-6.496151924E0,-4.835489273E0,8.222812756E0
1.363282600E1,-1.379021645E0,-5.378371239E0,-5.436922073E0,7.771016633E0
1.364283407E1,-1.383288503E0,-3.440744400E0,-5.462623596E0,6.602459062E0
1.365282433E1,-2.008590460E0,-9.252271652E-1,-5.415028095E0,5.849188851E0
1.366282808E1,-1.952388883E0,7.793292999E-1,-5.232818127E0,5.639287371E0
1.367283610E1,-1.852292418E0,3.455286980E0,-4.252806664E0,5.784147287E0
1.368284001E1,-1.694371819E0,4.951739311E0,-3.368029118E0,6.223683652E0
1.369284444E1,1.742911488E-1,5.940514565E0,-2.377015829E0,6.400804242E0
1.370283610E1,6.403173506E-2,5.837352753E0,-1.280132055E0,5.976414084E0
1.371283897E1,1.551019549E-1,4.437712669E0,-1.127629519E0,4.581364282E0
1.372283740E1,2.476494461E-1,2.698937416E0,-1.087174535E0,2.920195523E0
1.373283766E1,3.370831013E-1,7.684221268E-1,-1.687927008E0,1.884992086E0
1.374284027E1,4.235106707E-1,7.903537750E-1,-2.299348354E0,2.467999845E0
1.375283740E1,2.762406468E-1,-1.032000542E0,-2.387866735E0,2.615959013E0
1.376283610E1,3.281128109E-1,-1.152932167E0,-3.328557491E0,3.537824977E0
1.377283714E1,3.778634965E-1,-1.247795582E0,-3.390118599E0,3.632172731E0
1.378283470E1,-7.980008721E-1,-1.280747890E0,-4.058622360E0,4.330073442E0
1.379285412E1,-8.100532293E-1,-1.239920139E0,-4.055872917E0,4.317834331E0
1.380283876E1,-7.717458010E-1,-1.124687672E0,-4.029090881E0,4.253714526E0
1.381284605E1,-6.345350146E-1,-2.645330429E-1,-3.968583107E0,4.027687214E0
1.382283459E1,4.262740314E-1,7.983999252E-1,-3.860598087E0,3.965270430E0
1.383283688E1,4.709868431E-1,8.257169724E-1,-3.676460981E0,3.797367835E0
1.384284001E1,5.155875087E-1,8.536872864E-1,-2.829777241E0,3.000375259E0
1.385283871E1,2.283231258E0,7.824745178E-1,-2.605584621E0,3.551687285E0
1.386283714E1,2.380280495E0,8.117361069E-1,-1.506359816E0,2.931513369E0
1.387284235E1,2.481765985E0,8.612899780E-1,-5.202310085E-1,2.677988636E0
1.388284001E1,2.419517756E0,8.909111023E-1,-3.846819401E-1,2.606869570E0
1.389283714E1,2.265536547E0,8.207798004E-1,-2.892832756E-1,2.426936369E0
1.390283897E1,3.294929266E-1,8.474168777E-1,-2.423132658E-1,9.409551914E-1
1.391284053E1,3.129566014E-1,8.684520721E-1,-2.734893560E-1,9.627810051E-1
1.392283428E1,2.983507812E-1,8.886804581E-1,-3.430345058E-1,9.982178206E-1
1.393283714E1,2.853871882E-1,9.050254822E-1,-1.033205032E0,1.402864787E0
1.394284079E1,7.474270463E-2,8.218126297E-1,-1.110312700E0,1.383385977E0
1.395283480E1,6.579065323E-2,8.387470245E-1,-1.217161417E0,1.479630662E0
1.396283412E1,5.848104879E-2,8.557186127E-1,-1.993102074E0,2.169822632E0
1.397285282E1,1.132359281E-1,8.730993271E-1,-2.067070007E0,2.246753931E0
1.398283334E1,1.686766297E-1,8.905105591E-1,-2.121350527E0,2.306856935E0
1.399282725E1,2.384218574E-2,8.080873489E-1,-2.149169445E0,2.296193136E0
1.400284319E1,8.009890467E-2,8.300762177E-1,-2.099774361E0,2.259312888E0
1.401283845E1,1.356625408E-1,8.524541855E-1,-2.002469540E0,2.180588618E0
1.402283740E1,1.905585825E-1,8.754501343E-1,-1.881564856E0,2.083989399E0
1.403283819E1,2.448207885E-1,8.993186951E-1,-1.235433698E0,1.547581260E0
1.404283766E1,9.908811748E-2,8.233261108E-1,-1.137061357E0,1.407335380E0
1.405283897E1,1.923710108E-1,8.671169281E-1,-9.191050529E-1,1.278144151E0
1.406283714E1,2.449699938E-1,8.907012939E-1,-8.211708069E-1,1.235993765E0
1.407283636E1,2.968875766E-1,9.140396118E-1,-7.676612139E-1,1.230005847E0
1.408283923E1,1.486634761E-1,8.374309540E-1,-7.528052330E-1,1.135828839E0
1.409283845E1,1.997149289E-1,8.599901199E-1,-7.502852678E-1,1.158618592E0
1.410283584E1,2.500895560E-1,8.816404343E-1,-7.347854376E-1,1.174625166E0
1.411283949E1,2.997595966E-1,9.022912979E-1,-6.989945173E-1,1.180075734E0
1.412283714E1,3.487980962E-1,9.223117828E-1,-6.736484766E-1,1.194203252E0
1.413283688E1,1.963665038E-1,8.423194885E-1,-6.803117990E-1,1.100402685E0
1.414283360E1,2.447936237E-1,8.621597290E-1,-7.002824545E-1,1.137382448E0
1.415285501E1,2.926660776E-1,8.818368912E-1,-7.268341780E-1,1.179651498E0
1.416283631E1,3.400790095E-1,2.136762619E0,-7.782945633E-1,2.299380493E0
1.417284881E1,3.870397806E-1,2.866913795E0,-8.662394285E-1,3.019828679E0
1.418283589E1,2.340346128E-1,3.561065674E0,-1.563698530E0,3.896294910E0
1.419283975E1,-9.794424176E-1,3.719452858E0,-1.614233017E0,4.171257034E0
1.420284027E1,-1.090212345E0,4.990712166E0,-1.627737045E0,5.361464237E0
1.421283714E1,-1.921762347E0,5.820904732E0,-1.574713469E0,6.328967129E0
1.422283662E1,-2.031651020E0,6.479509354E0,-1.488847971E0,6.951856990E0
1.423283792E1,-2.923500538E0,6.604393005E0,-7.192811966E-1,7.258252393E0
1.424283506E1,-3.555184126E0,6.593658447E0,3.426074982E-2,7.491117386E0
1.425283949E1,-3.579463005E0,6.508481979E0,9.244477749E-2,7.428421038E0
1.426283792E1,-3.616431713E0,6.343233109E0,1.214174032E-1,7.302734200E0
1.427283897E1,-3.616348982E0,5.056838036E0,1.111934185E-1,6.217873821E0
1.428283845E1,-3.582172871E0,4.050907135E0,8.178043365E-2,5.408188156E0
1.429283558E1,-3.481470346E0,2.998225212E0,5.566227436E-2,4.594898093E0
1.430283897E1,-3.325617313E0,1.938192368E0,6.278395653E-3,3.849202461E0
1.431284678E1,-3.089240551E0,7.458438873E-1,-3.294265270E-2,3.178171724E0
1.432283516E1,-1.989786029E0,6.668386459E-1,-6.242299080E-2,2.099480614E0
1.433285334E1,-1.217150092E0,-6.458644867E-1,-7.217013836E-2,1.379783973E0
1.434283954E1,-9.636614323E-1,-7.740898132E-1,-6.108140945E-2,1.237573971E0
1.435283339E1,1.704127789E-1,-1.621306896E0,-5.290758610E-2,1.631096496E0
1.436283511E1,3.644610643E-1,-1.706726551E0,-7.111978531E-2,1.746655493E0
1.437284834E1,5.490695238E-1,-2.386352062E0,-1.224731207E-1,2.451765318E0
1.438285225E1,1.602089286E0,-2.449509621E0,-1.765594482E-1,2.932227941E0
1.439284756E1,1.677334309E0,-2.530713081E0,-2.336664200E-1,3.045087696E0
1.440284652E1,1.719575047E0,-2.604467392E0,-2.652748823E-1,3.132181269E0
1.441285042E1,1.602437735E0,-2.667489529E0,-2.034797668E-1,3.118446904E0
1.442284756E1,3.579199314E-1,-2.603395939E0,-7.378518581E-2,2.628920186E0
1.443284834E1,3.384338617E-1,-2.466919422E0,1.599736810E0,2.959626121E0
1.444284834E1,3.273195028E-1,-1.442447662E0,1.649131656E0,2.215271661E0
1.445285199E1,3.086588383E-1,-7.564725876E-1,1.697016120E0,1.883450229E0
1.446284782E1,2.940140963E-1,8.066854477E-1,1.546810627E0,1.769126569E0
1.447284886E1,2.967971563E-1,8.286190033E-1,1.596426368E0,1.822985231E0
1.448284652E1,3.196270466E-1,8.504781723E-1,1.645771623E0,1.879903935E0
1.449284782E1,3.754143715E-1,8.639373779E-1,1.637864828E0,1.889424499E0
1.450284292E1,4.377460480E-1,2.439885139E0,1.623310685E0,2.963072506E0
1.451285475E1,5.150842667E-1,2.488323212E0,1.404473305E0,2.903378975E0
1.452284110E1,6.251976490E-1,2.536181450E0,1.376657605E0,2.952672452E0
1.453284579E1,1.770157099E0,2.566950798E0,1.351059556E0,3.398242851E0
1.454283714E1,1.809648156E0,2.573225975E0,2.319172859E0,3.908309240E0
1.455283694E1,1.848708749E0,2.533295631E0,2.316365957E0,3.898828291E0
1.456284235E1,1.679445267E0,2.445689201E0,2.274961710E0,3.738633822E0
1.457283897E1,3.014372826E0,2.303954124E0,2.216918230E0,4.394243345E0
1.458284131E1,3.015294552E0,7.107009888E-1,2.156635761E0,3.774675474E0
1.459284417E1,3.036930561E0,7.299289703E-1,2.109103680E0,3.768827651E0
1.460283792E1,2.991075754E0,6.310205460E-1,2.025830746E0,3.667248465E0
1.461283636E1,2.929876089E0,-8.429841995E-1,1.948786259E0,3.618364843E0
1.462283975E1,2.819806099E0,-9.995460510E-1,1.863945007E0,3.524867336E0
1.463286371E1,2.723414421E0,-1.999654770E0,1.772412777E0,3.815370540E0
1.464284261E1,2.638950348E0,-2.120413303E0,1.694228172E0,3.785580618E0
1.465283662E1,2.585794926E0,-2.759012222E0,1.607762456E0,4.108939517E0
1.466282574E1,2.560764790E0,-2.825936794E0,1.505201817E0,4.099886289E0
1.467283662E1,2.580217361E0,-2.898053646E0,1.389316559E0,4.121460550E0
1.468284970E1,3.229568005E0,-2.964539528E0,1.279627562E0,4.566842542E0
1.469284490E1,3.229129076E0,-3.021549225E0,1.162564516E0,4.572591231E0
1.470284865E1,3.241658688E0,-3.055406570E0,1.065193295E0,4.580228937E0
1.471283261E1,3.254222155E0,-3.074050426E0,-3.217799589E-2,4.476693342E0
1.472283563E1,3.255738020E0,-3.079450130E0,-4.714870080E-2,4.481636549E0
1.473286162E1,3.230438709E0,-3.078248501E0,9.095401168E-1,4.553966547E0
1.474284652E1,3.157050848E0,-3.067527771E0,9.208422899E-1,4.497182141E0
1.475284053E1,3.054204941E0,-3.041837692E0,9.689093828E-1,4.418113824E0
1.476283949E1,2.926643610E0,-3.007892609E0,1.610917568E0,4.495299342E0
1.477283792E1,2.748283148E0,-2.950135708E0,1.704183817E0,4.377282654E0
1.478283688E1,2.608053446E0,-2.913626671E0,1.752430201E0,4.285110823E0
1.479284860E1,2.488868475E0,-2.874455929E0,2.405546665E0,4.499290825E0
1.480283792E1,2.388616085E0,-2.832801819E0,2.396093845E0,4.412654378E0
1.481283897E1,2.313811064E0,-2.772472382E0,2.371395826E0,4.320167000E0
1.482283662E1,2.257572174E0,-2.711460114E0,2.357978344E0,4.243667039E0
1.483286162E1,2.207449436E0,-2.630034447E0,2.348817348E0,4.160151096E0
1.484284183E1,2.167809725E0,-2.535396576E0,2.337291241E0,4.073151746E0
1.485283688E1,2.128057718E0,-2.416543484E0,2.267400026E0,3.938199454E0
1.486284032E1,2.093931675E0,-1.718176842E0,2.187896013E0,3.481891797E0
1.487284449E1,2.045842648E0,-1.659224510E0,2.099908829E0,3.368696365E0
1.488284084E1,2.005767584E0,-1.588091850E0,1.989702940E0,3.240996315E0
1.489282365E1,1.951720119E0,-1.525539398E0,1.869700432E0,3.103588501E0
1.490283694E1,1.899444818E0,-1.465291023E0,1.731563091E0,2.958594116E0
1.491284001E1,1.844660163E0,-1.421951294E0,1.599169612E0,2.825253979E0
1.492284001E1,1.782821059E0,-1.380478382E0,1.478305936E0,2.696212145E0
1.493286318E1,1.716070294E0,-1.310285091E0,1.359671831E0,2.551558693E0
1.494285251E1,1.600045323E0,-1.170965672E0,1.238913417E0,2.337993177E0
1.495283923E1,6.295162439E-1,1.035181999E0,1.019333124E0,1.583329559E0
1.496283792E1,-2.095490694E-1,2.933667183E0,8.398838043E-1,3.058711944E0
1.497284209E1,-1.511349559E0,5.338360786E0,7.058598995E-1,5.592898316E0
1.498283662E1,-1.723523617E0,7.876296043E0,6.611964703E-1,8.089731380E0
1.499284391E1,-1.731917858E0,9.850211143E0,6.866133213E-1,1.002485097E1
1.500283662E1,-3.343246937E0,1.085010815E1,7.340407372E-1,1.137721243E1
1.501283714E1,-3.343378544E0,1.085600567E1,7.441442013E-1,1.138353152E1
1.502283688E1,-3.276872158E0,1.011430931E1,7.222704887E-1,1.065639801E1
1.503286188E1,-3.133051872E0,8.534647942E0,6.977932453E-1,9.118286294E0
1.504286506E1,-2.859233856E0,6.107659340E0,6.377625465E-1,6.773880861E0
1.505284157E1,-1.320856094E0,2.999321938E0,-2.481920719E-1,3.286668862E0
1.506284891E1,-1.155633926E0,-2.084531784E-1,-2.306909800E0,2.588585583E0
1.507284709E1,-1.002490640E0,-2.794723988E0,-2.241416216E0,3.720136597E0
1.508283402E1,-1.058245182E0,-4.420869827E0,-3.848946571E0,5.956371597E0
1.509284444E1,-9.234650135E-1,-5.193017006E0,-4.632286072E0,7.019849536E0
1.510284131E1,-1.833790779E0,-5.175429344E0,-4.730946541E0,7.247738454E0
1.511284287E1,-1.818176508E0,-4.423983574E0,-5.384616852E0,7.202186829E0
1.512283714E1,-1.817001939E0,-3.132745266E0,-5.402803898E0,6.504296957E0
1.513286371E1,-1.779629230E0,8.476810455E-1,-5.353690147E0,5.705054035E0
1.514284496E1,-1.608871579E0,8.383445740E-1,-5.195490360E0,5.503127244E0
1.515284496E1,-3.555419445E-1,2.745154381E0,-4.972624779E0,5.691158040E0
1.516283975E1,-2.557774782E-1,3.609792709E0,-4.174042702E0,5.524369466E0
1.517284183E1,-3.911743760E-1,3.688405037E0,-3.955487013E0,5.422474216E0
1.518283610E1,9.648402929E-1,3.696441650E0,-3.743860245E0,5.348933277E0
1.519284183E1,1.031482697E0,3.607099533E0,-3.498730898E0,5.129935817E0
1.520283688E1,1.053068042E0,2.870789528E0,-2.663601398E0,4.055262904E0
1.521283610E1,1.005754709E0,2.037863731E0,-2.459226370E0,3.348466136E0
1.522285246E1,-2.577691674E-1,5.617790222E-1,-2.251998186E0,2.335280806E0
1.523286360E1,-1.912405491E-1,5.691280365E-1,-2.058959723E0,2.144713223E0
1.524284855E1,-1.261459738E-1,5.787467957E-1,-1.888670683E0,1.979378086E0
1.525284459E1,-1.161058426E0,5.903177261E-1,-1.769194365E0,2.196947971E0
1.526283563E1,-1.214090943E0,6.046333313E-1,-1.701817751E0,2.176185181E0
1.527283923E1,-1.233853579E0,5.200443268E-1,-1.683604956E0,2.151131424E0
1.528283949E1,-1.203168511E0,5.361757278E-1,-1.709446907E0,2.158079611E0
1.529284261E1,-1.101731062E0,5.528135300E-1,-2.269883394E0,2.582979821E0
1.530284496E1,5.584968254E-2,5.698585510E-1,-2.284474373E0,2.355139299E0
1.531283636E1,-4.667267203E-2,5.074615479E-1,-2.927569866E0,2.971592314E0
1.532283740E1,1.142853871E-2,5.253982544E-1,-2.911523581E0,2.958571192E0
1.533286136E1,6.871977448E-2,5.436286926E-1,-2.892281294E0,2.943729887E0
1.534284808E1,1.162961721E0,5.621166229E-1,-2.851512671E0,3.130428018E0
1.535284001E1,1.255226970E0,5.808887482E-1,-2.768760204E0,3.095005582E0
1.536283845E1,1.307280064E0,5.003881454E-1,-2.667961597E0,3.012870483E0
1.537283688E1,1.312707901E0,5.203361511E-1,-2.531902790E0,2.899048720E0
1.538283766E1,1.248248458E0,5.412960052E-1,-2.355456352E0,2.720165474E0
1.539284157E1,1.684896350E-1,5.628852844E-1,-1.627524495E0,1.730336552E0
1.540286996E1,2.159828991E-1,5.850210190E-1,-1.477211952E0,1.603450454E0
1.541283511E1,6.353610754E-2,5.078554153E-1,-1.319526196E0,1.415310334E0
1.542283381E1,-1.001832366E0,5.310602188E-1,-1.175301552E0,1.633103421E0
1.543285121E1,-1.097901464E0,-5.052843094E-1,-1.052630544E0,1.602726090E0
1.544283720E1,-1.195505500E0,-5.841264725E-1,-9.572439790E-1,1.639131835E0
1.545284079E1,-1.820545316E0,-6.343593597E-1,-8.821055293E-1,2.120119621E0
1.546283766E1,-1.804870605E0,-5.946216583E-1,-8.010677099E-1,2.062242055E0
1.547284079E1,-1.749534130E0,-4.813022614E-1,-7.203050852E-1,1.952270718E0
1.548283818E1,-1.632349372E0,5.777759552E-1,-6.377781034E-1,1.845304971E0
1.549284626E1,3.464748859E-1,6.193656921E-1,-4.493117929E-1,8.399641626E-1
1.550283610E1,2.303469628E-1,1.639423370E0,8.303523660E-1,1.852094426E0
1.551283949E1,3.121145666E-1,1.733797073E0,8.830309510E-1,1.970586576E0
1.552284235E1,3.919145167E-1,1.801187515E0,9.329249263E-1,2.065967660E0
1.553286058E1,4.699021578E-1,1.771565437E0,9.801130295E-1,2.078430583E0
1.554286162E1,5.461362600E-1,1.657188416E0,1.024145484E0,2.023218286E0
1.555283923E1,3.852913976E-1,5.310125351E-1,-6.296365261E-1,9.093216859E-1
1.556284756E1,4.244574010E-1,5.499505997E-1,-7.368866801E-1,1.012724902E0
1.557284600E1,4.620217383E-1,5.687541962E-1,-1.486875296E0,1.657631915E0
1.558288845E1,4.994083643E-1,5.874614716E-1,-1.567451000E0,1.746832085E0
1.559283444E1,5.352839231E-1,6.060476303E-1,-1.637060165E0,1.825866532E0
1.560283772E1,3.717455268E-1,5.248565674E-1,-1.667571545E0,1.787306356E0
1.561283600E1,4.082424045E-1,5.436229706E-1,-1.634697676E0,1.770430537E0
1.562282444E1,4.444513619E-1,5.631561279E-1,-1.533954144E0,1.693427634E0
1.563286475E1,4.807462990E-1,5.830955505E-1,-1.401199102E0,1.592003879E0
1.564284444E1,5.155958533E-1,6.028985977E-1,-6.546145678E-1,1.028516424E0
1.565284548E1,3.509458899E-1,5.228548050E-1,-5.916110277E-1,8.640276459E-1
1.566283772E1,3.876685500E-1,5.427551270E-1,-5.405504704E-1,8.585248066E-1
1.567284678E1,-6.597344875E-1,5.825271606E-1,-5.179612637E-1,1.021210731E0
1.568285433E1,-7.597090006E-1,6.022157669E-1,-5.375126600E-1,1.108486110E0
1.569285199E1,-8.664987087E-1,5.220451355E-1,-5.879374743E-1,1.170051969E0
1.570285199E1,-9.498811364E-1,5.417671204E-1,-6.604238749E-1,1.277476215E0
1.571284964E1,-9.867795706E-1,5.614957809E-1,-1.299878716E0,1.725889947E0
1.572284756E1,-9.552966356E-1,5.810709000E-1,-1.358204961E0,1.759248637E0
1.573288141E1,-8.333896995E-1,6.005373001E-1,-1.452701569E0,1.779192313E0
1.574285042E1,3.907768726E-1,5.219621658E-1,-2.179049015E0,2.274512184E0
1.575285121E1,4.658496082E-1,5.432767868E-1,-2.221633434E0,2.334056692E0
1.576290407E1,2.078454971E0,5.645408630E-1,-2.277357340E0,3.134491651E0
1.577284855E1,2.980824232E0,5.861577988E-1,-2.311905384E0,3.817564744E0
1.578285152E1,3.697107792E0,6.108961105E-1,-2.301720381E0,4.397694486E0
1.579283527E1,3.834505558E0,5.361213684E-1,-2.257476091E0,4.481858688E0
1.580283131E1,3.879054070E0,5.592060089E-1,-2.157951832E0,4.473983454E0
1.581284058E1,3.841256142E0,5.861635208E-1,-2.000965118E0,4.370663316E0
1.582283844E1,3.634820700E0,6.097517014E-1,-1.838595390E0,4.118756082E0
1.583286006E1,2.400055647E0,1.683185577E0,-1.726541638E0,3.402106234E0
1.584283897E1,2.439593226E-1,2.523539543E0,-1.638816595E0,3.018855381E0
1.585283694E1,-1.192666292E0,3.373278618E0,-1.570567250E0,3.907447121E0
1.586284391E1,-2.460995913E0,3.457760811E0,-1.517500401E0,4.507262825E0
1.587283714E1,-3.593671560E0,3.560729027E0,-1.478484988E0,5.270596204E0
1.588283871E1,-4.674411774E0,4.242594719E0,-1.430709839E0,6.472763399E0
1.589283818E1,-5.647355080E0,4.251853943E0,-1.354500413E0,7.197607430E0
1.590283662E1,-6.371755123E0,4.234814644E0,-1.236870050E0,7.750017157E0
1.591284417E1,-6.461645603E0,4.208107948E0,-5.021616220E-1,7.727431831E0
1.592283584E1,-7.057391167E0,4.169487953E0,-3.894623518E-1,8.206283007E0
1.593286006E1,-6.953764439E0,4.121619225E0,2.724719048E-1,8.088066879E0
1.594286423E1,-6.776741982E0,4.041917801E0,3.570052385E-1,7.898657110E0
1.595283449E1,-6.531659603E0,3.941165924E0,4.678740501E-1,7.642923010E0
1.596283954E1,-5.686696053E0,3.203898430E0,1.888429046E0,6.794824604E0
1.597284964E1,-5.327769756E0,3.151426315E0,1.897509456E0,6.474346340E0
1.598283824E1,-4.100602150E0,3.089502335E0,1.704777122E0,5.409826957E0
1.599284157E1,-3.783609152E0,2.995945930E0,1.691430211E0,5.113934531E0
1.600284261E1,-2.695290565E0,2.226599693E0,1.676987886E0,3.877450941E0
1.601284652E1,-2.430438042E0,2.150538445E0,1.661811948E0,3.646020245E0
1.602283818E1,-2.172782421E0,6.515989304E-1,1.607652187E0,2.780307568E0
1.603286970E1,-1.455426455E0,6.001491547E-1,1.402930021E0,2.108709989E0
1.604283636E1,-1.385027409E0,6.287698746E-1,1.360461354E0,2.040712516E0
1.605283558E1,-1.329093456E0,6.519098282E-1,1.323037863E0,1.985423135E0
1.606284600E1,-1.239427090E0,6.763849258E-1,1.291549206E0,1.913576607E0
1.607283688E1,-1.134358883E0,-7.280902863E-1,1.063080907E0,1.716690582E0
1.608283740E1,-1.001543045E0,-8.065853119E-1,1.044738770E0,1.656848645E0
1.609283532E1,-2.688841820E-1,-8.935270309E-1,1.027965903E0,1.388309460E0
1.610283818E1,-1.014454365E-1,-1.539719582E0,-5.092374682E-1,1.624915495E0
1.611284261E1,9.693233967E-1,-1.580258846E0,-6.591641307E-1,1.967562761E0
1.612285459E1,2.446653605E0,-1.619157791E0,-7.898902297E-1,3.038373313E0
1.613285964E1,2.516728163E0,-1.637279987E0,-8.883098364E-1,3.131086196E0
1.614283303E1,2.592256546E0,-1.619964123E0,-9.390344024E-1,3.197790388E0
1.615283339E1,2.645588636E0,-1.589561462E0,-9.713040590E-1,3.235626130E0
1.616284923E1,2.695079803E0,-1.528624058E0,-9.717848301E-1,3.247231500E0
1.617283714E1,2.515041113E0,-1.435134888E0,-8.562902808E-1,3.019648488E0
1.618283975E1,2.488073826E0,-7.637929916E-1,7.107700706E-1,2.697977982E0
1.619283558E1,2.462208986E0,-6.835622787E-1,7.655341029E-1,2.667540617E0
1.620283975E1,2.435684919E0,-5.806903839E-1,8.196669221E-1,2.634694709E0
1.621284261E1,2.251556158E0,6.269216537E-1,2.154427528E0,3.178693736E0
1.622283558E1,2.228518486E0,6.323757172E-1,2.255503178E0,3.233185469E0
1.623286397E1,2.202333212E0,6.326255798E-1,2.298828363E0,3.245781654E0
1.624284183E1,2.175480604E0,6.333055496E-1,2.315577507E0,3.239705383E0
1.625284339E1,2.149537802E0,6.347999573E-1,2.274855137E0,3.193501157E0
1.626284287E1,1.915623784E0,5.349454880E-1,2.173713207E0,2.946321480E0
1.627283714E1,1.885541439E0,5.339879990E-1,1.968909264E0,2.777951294E0
1.628283714E1,1.858209968E0,5.351114273E-1,4.231623113E-1,1.979483484E0
1.629283766E1,1.832916379E0,5.381488800E-1,3.728604615E-1,1.946332858E0
1.630286214E1,1.808477879E0,5.427064896E-1,3.249565661E-1,1.915912143E0
1.631284048E1,2.820256710E0,4.489316940E-1,8.093641698E-2,2.856910618E0
1.632283694E1,2.847318172E0,4.568500519E-1,4.072991759E-2,2.884023521E0
1.633286511E1,2.888890266E0,4.660663605E-1,1.784014225E0,3.427187123E0
1.634283589E1,3.472624063E0,1.456114769E0,1.840867996E0,4.191441648E0
1.635284022E1,3.455246449E0,1.479566574E0,2.691970110E0,4.623261656E0
1.636284834E1,3.434501886E0,1.455924034E0,2.689905643E0,4.599033635E0
1.637283819E1,3.360414982E0,4.021825790E-1,2.675707817E0,4.314342592E0
1.638284365E1,3.269625902E0,4.119977951E-1,2.649547815E0,4.228510299E0
1.639283819E1,3.142387390E0,4.411859512E-1,2.600564003E0,4.102703583E0
1.640283766E1,3.057207346E0,3.551225662E-1,2.474348545E0,3.949054256E0
1.641284860E1,2.995988369E0,3.720045090E-1,2.331828117E0,3.814676399E0
1.642283584E1,2.970422506E0,3.915786743E-1,2.170588732E0,3.699756636E0
1.643286162E1,3.470667124E0,4.134635925E-1,2.029475689E0,4.041689498E0
1.644283871E1,3.433514833E0,4.374084473E-1,1.897461891E0,3.947241048E0
1.645283766E1,3.421589851E0,3.633613586E-1,1.759034157E0,3.864389959E0
1.646284053E1,3.415953636E0,3.907890320E-1,1.610385180E0,3.796682201E0
1.647283610E1,3.376141310E0,4.194927216E-1,1.453199744E0,3.699472095E0
1.648286397E1,3.286019564E0,4.492969513E-1,1.284157276E0,3.556522492E0
1.649283407E1,3.136681795E0,4.801673889E-1,1.134442687E0,3.369910031E0
1.650283980E1,2.939918756E0,-1.022000313E0,1.027692318E0,3.277767294E0
1.651284438E1,2.718655825E0,-1.121628761E0,9.389989376E-1,3.087209027E0
1.652283662E1,1.815748334E0,-1.940714836E0,8.820015192E-1,2.800221914E0
1.653286350E1,1.638080120E0,-2.050039291E0,8.289417028E-1,2.751928764E0
1.654283662E1,1.465560913E0,-2.892085075E0,8.046891689E-1,3.340591195E0
1.655283381E1,1.293441057E0,-2.958394051E0,8.066126108E-1,3.328018785E0
1.656284339E1,1.138117552E0,-3.023167133E0,8.535596132E-1,3.341169719E0
1.657284235E1,9.901080132E-1,-3.155283928E0,1.442317486E0,3.607826253E0
1.658283818E1,9.412814379E-1,-3.197406769E0,1.385643005E0,3.609629805E0
1.659284001E1,9.210790396E-1,-3.240820408E0,1.309996128E0,3.614884973E0
1.660283949E1,9.138861895E-1,-3.303603649E0,1.227916241E0,3.640983841E0
1.661284417E1,8.772928119E-1,-3.922855377E0,1.155902624E0,4.182648427E0
