"Time (s)","Linear Acceleration x (m/s^2)","Linear Acceleration y (m/s^2)","Linear Acceleration z (m/s^2)","Absolute acceleration (m/s^2)"
6.037148000E-3,1.227126122E-1,-3.914117813E-2,-6.009745598E-1,6.146225171E-1
1.106277300E-2,9.494686127E-2,-2.026002407E-1,-4.411740303E-1,4.946678573E-1
1.608850200E-2,7.913827896E-2,-3.275032043E-1,-3.024463654E-1,4.527637574E-1
2.111433500E-2,9.375429153E-2,-3.565921783E-1,-2.272653580E-1,4.331251456E-1
2.614027300E-2,9.500837326E-2,-3.616573811E-1,-1.432991028E-1,4.004463574E-1
3.116626200E-2,8.220338821E-2,-3.475275040E-1,-1.175498962E-2,3.573107091E-1
3.619230400E-2,1.174354553E-2,-3.430294991E-1,1.629881859E-1,3.799635467E-1
4.121839800E-2,-8.755874634E-2,-3.077182770E-1,3.026227951E-1,4.403835012E-1
4.624449200E-2,-1.497306824E-1,-2.681496143E-1,3.760013580E-1,4.854899733E-1
5.127058500E-2,-2.138133049E-1,-2.006537914E-1,4.031949043E-1,4.985420787E-1
5.629667900E-2,-3.134913445E-1,-1.482398510E-1,3.896574974E-1,5.216175244E-1
6.132225200E-2,-4.203062057E-1,-1.392619610E-1,2.931952477E-1,5.310505189E-1
6.634782500E-2,-5.199518204E-1,-1.446120739E-1,2.188487053E-1,5.823721347E-1
7.137339800E-2,-5.883102417E-1,-1.116931438E-1,1.755137444E-1,6.240107157E-1
7.639897100E-2,-5.535507202E-1,-5.027174950E-2,1.338000298E-1,5.717063028E-1
8.142454400E-2,-4.299597740E-1,5.836105347E-2,7.413482666E-2,4.401901775E-1
8.645011700E-2,-2.745594978E-1,1.899764538E-1,-2.278900146E-2,3.346540145E-1
9.147568900E-2,-1.677813530E-1,2.826347351E-1,-7.632637024E-2,3.374295344E-1
9.650126200E-2,-1.608686447E-1,3.129303455E-1,-7.301044464E-2,3.593530952E-1
1.015268350E-1,-1.908588409E-1,3.242104053E-1,5.364418030E-3,3.762555795E-1
1.065524080E-1,-1.861634254E-1,3.308150768E-1,5.844354630E-2,3.840717174E-1
1.115779810E-1,-9.487771988E-2,3.658599854E-1,1.435098648E-1,4.042899849E-1
1.166035540E-1,6.303453445E-2,4.240527153E-1,2.558388710E-1,4.992470188E-1
1.216291270E-1,2.061290741E-1,4.524521828E-1,3.385281563E-1,6.015010270E-1
1.266547000E-1,2.392945290E-1,4.035835266E-1,3.208680153E-1,5.684169401E-1
1.316802730E-1,1.679577827E-1,3.112387657E-1,2.561273575E-1,4.366699089E-1
1.367058460E-1,2.138042450E-2,2.140452862E-1,1.921553612E-1,2.884374974E-1
1.417314190E-1,-1.284642220E-1,1.407837868E-1,6.229305267E-2,2.005082426E-1
1.467569920E-1,-3.193521500E-1,2.529931068E-2,-2.044553757E-1,3.800366449E-1
1.517825640E-1,-5.604090691E-1,-1.216871738E-1,-4.933209419E-1,7.564599426E-1
1.568081370E-1,-7.703304291E-1,-2.327132225E-1,-6.572866440E-1,1.039033275E0
1.618337100E-1,-8.538107872E-1,-2.410750389E-1,-6.220097542E-1,1.083515652E0
1.668592830E-1,-7.636809349E-1,-1.950705051E-1,-4.988703728E-1,9.328090486E-1
1.718848560E-1,-5.721354485E-1,-9.072303772E-2,-3.362736702E-1,6.698131248E-1
1.769104290E-1,-3.464345932E-1,-2.872943878E-4,-1.723566055E-1,3.869416098E-1
1.819360020E-1,-9.207820892E-2,1.089284420E-1,-8.727216721E-2,1.672131371E-1
1.869615750E-1,1.611895561E-1,1.935737133E-1,-7.000446320E-2,2.614449853E-1
1.919871480E-1,3.981556892E-1,2.439415455E-1,-3.371334076E-2,4.681581141E-1
1.970127210E-1,6.279172897E-1,2.645285130E-1,5.996608734E-2,6.839966290E-1
2.020382940E-1,8.602423668E-1,2.315528393E-1,2.389969826E-1,9.223628379E-1
2.070638670E-1,1.129106045E0,1.448843479E-1,3.646554947E-1,1.195343283E0
2.120894390E-1,1.439709663E0,1.233541965E-1,4.987306595E-1,1.528630905E0
2.171150120E-1,1.645053864E0,9.002971649E-2,5.554642677E-1,1.738633980E0
2.221405850E-1,1.736289978E0,3.556823730E-2,4.691581726E-1,1.798910053E0
2.271661580E-1,1.694785595E0,-6.322312355E-2,3.552255630E-1,1.732766740E0
2.321917310E-1,1.578203201E0,-1.865637302E-1,1.190614700E-1,1.593645821E0
2.372173040E-1,1.296120167E0,-3.096835613E-1,-1.336026192E-1,1.339283784E0
2.422428770E-1,9.065690041E-1,-3.888599873E-1,-3.505268097E-1,1.046875586E0
2.472684500E-1,5.431756973E-1,-4.045047760E-1,-6.081724167E-1,9.102404300E-1
2.522940230E-1,2.008433342E-1,-4.132416248E-1,-8.636913300E-1,9.782992379E-1
2.573195960E-1,-1.254353523E-1,-3.859987259E-1,-1.098277092E0,1.170872160E0
2.623451690E-1,-4.401106834E-1,-3.607583046E-1,-1.184271336E0,1.313903560E0
2.673707420E-1,-6.806244850E-1,-2.994437218E-1,-1.076014042E0,1.307945890E0
2.723963140E-1,-7.800164223E-1,-2.452721596E-1,-9.086766243E-1,1.222406339E0
2.774218870E-1,-7.526965141E-1,-2.172863483E-1,-7.117824554E-1,1.058489331E0
2.824474600E-1,-6.223711967E-1,-1.966950893E-1,-4.480533600E-1,7.916986031E-1
2.874730330E-1,-3.089790344E-1,-1.268408298E-1,-3.126449585E-1,4.574970053E-1
2.924986060E-1,9.027910233E-2,-2.279186249E-2,-1.519079208E-1,1.781735158E-1
2.975241790E-1,5.550947189E-1,1.049845219E-1,2.245197296E-1,6.079152949E-1
3.025497520E-1,1.013339043E0,2.791266441E-1,8.961019516E-1,1.381219174E0
3.075753250E-1,1.412876129E0,4.741096497E-1,1.737373352E0,2.288987785E0
3.126008980E-1,1.790865421E0,6.696500778E-1,2.484633446E0,3.135128952E0
3.176264710E-1,1.846044064E0,9.136037827E-1,3.613571167E0,4.159380619E0
3.226520440E-1,1.605900764E0,1.046554089E0,5.328128815E0,5.662433169E0
3.276776170E-1,9.500298500E-1,1.027919769E0,6.973569870E0,7.112654392E0
3.327031890E-1,6.015524864E-1,9.911100864E-1,6.273966789E0,6.380189956E0
3.377287620E-1,8.734941483E-2,6.591615677E-1,5.166838646E0,5.209447714E0
3.427543350E-1,-2.186059952E-1,-7.687395811E-1,2.858190536E0,2.967827870E0
3.477799080E-1,2.869296074E-1,-1.624971867E0,2.134842873E0,2.698224649E0
3.528054810E-1,1.003007889E-1,-2.257325172E0,8.103179932E-1,2.400456713E0
3.578310540E-1,-4.318177700E-1,-2.146938801E0,-6.929588318E-2,2.191030516E0
3.628566270E-1,-6.205954552E-1,-1.279338598E0,-1.133805275E0,1.818614959E0
3.678822000E-1,1.415529251E-1,1.222537279E0,-2.830851078E0,3.086802951E0
3.729077730E-1,-3.832626343E-1,2.390028954E0,-4.311206818E0,4.944252509E0
3.779333460E-1,-6.300263405E-1,2.808427334E0,-4.815706730E0,5.610278833E0
3.829589190E-1,-1.633356094E0,2.385039568E0,-5.578515053E0,6.283000562E0
3.879844920E-1,-1.906018019E0,1.430632114E0,-6.170420170E0,6.614657815E0
3.930100640E-1,-2.770361423E0,2.479696274E-1,-6.982279778E0,7.515891314E0
3.980356370E-1,-3.086411953E0,-6.412653923E-1,-7.074831963E0,7.745347464E0
4.030612100E-1,-2.846970081E0,-9.051482677E-1,-7.200969696E0,7.796056477E0
4.080867830E-1,-1.431683183E0,-1.613641500E0,-7.580015182E0,7.881001573E0
4.131123560E-1,1.022451401E0,-1.680927157E0,-8.672964096E0,8.893324979E0
4.181379290E-1,1.570281267E0,-7.057564259E-1,-8.478395462E0,8.651419826E0
4.231635020E-1,1.226666451E0,-2.603185177E-1,-7.906418800E0,8.005244191E0
4.281890750E-1,-4.427270293E-1,-6.798576117E-1,-9.904530525E0,9.937702879E0
4.332146480E-1,-2.683668733E-1,-8.982241154E-1,-7.893662453E0,7.949134183E0
4.382402210E-1,-4.236915112E-1,-1.016266942E0,-6.956321716E0,7.042920191E0
4.432657940E-1,-1.978839636E-1,-1.490063190E0,-6.267595291E0,6.445323662E0
4.482913670E-1,1.202336550E-1,-2.290711880E0,-4.284840107E0,4.860213142E0
4.533169390E-1,1.104586005E0,-2.141698360E0,8.770236015E0,9.095274700E0
4.583425120E-1,1.326720715E0,-1.027907372E0,1.386659813E1,1.396779600E1
4.633680850E-1,-1.007865667E-1,3.096368313E-1,1.017139721E1,1.017660818E1
4.683936580E-1,5.325423479E-1,1.575599551E0,6.242782593E0,6.460530148E0
4.734192310E-1,5.281953812E-1,2.129878998E0,2.165032387E0,3.082651479E0
4.784448040E-1,-9.305202961E-1,1.889026880E0,-1.693466187E0,2.702243198E0
4.834703770E-1,-2.904386282E0,1.470809340E0,-3.595363140E0,4.850296475E0
4.884959500E-1,-4.472650528E0,1.059652090E0,-4.178131580E0,6.211622075E0
4.935215230E-1,-5.505681038E0,7.532836199E-1,-4.605961323E0,7.217675499E0
4.985470960E-1,-6.354513645E0,6.448024511E-1,-4.956488609E0,8.084701182E0
5.035726690E-1,-6.896549225E0,8.071583509E-1,-4.943604469E0,8.523680013E0
5.085982420E-1,-6.984262943E0,1.130257130E0,-4.525549412E0,8.398690822E0
5.136238140E-1,-6.736097336E0,1.564787745E0,-3.914368629E0,7.946436294E0
5.186493870E-1,-6.370564461E0,2.027599335E0,-3.494101048E0,7.543473520E0
5.236749600E-1,-6.546971321E0,2.296978474E0,-3.294200420E0,7.680540345E0
5.287005330E-1,-7.844020844E0,2.166313410E0,-3.047197342E0,8.689475728E0
5.337261060E-1,-6.783550739E0,2.356436729E0,-3.288244724E0,7.898221829E0
5.387516790E-1,-5.324707031E0,2.721697330E0,-4.010293961E0,7.200180482E0
5.437772520E-1,-4.267752171E0,3.001153946E0,-4.330973148E0,6.780705126E0
5.488028250E-1,-4.362692356E0,2.732963562E0,-4.134649277E0,6.602840227E0
5.538283980E-1,-5.202162266E0,2.044490337E0,-3.861457825E0,6.793621237E0
5.588539710E-1,-6.158295155E0,1.110859871E0,-3.783780098E0,7.312701327E0
5.638795440E-1,-7.367202282E0,1.842931509E-1,-3.919812202E0,8.347128915E0
5.689051170E-1,-8.741767883E0,-5.248919725E-1,-4.110738754E0,9.674305681E0
5.739306890E-1,-9.854317665E0,-9.693198204E-1,-3.911290169E0,1.064637724E1
5.789562620E-1,-1.059283352E1,-1.173761845E0,-3.532097340E0,1.122771350E1
5.839818350E-1,-1.083017921E1,-1.196419001E0,-3.370204449E0,1.140537059E1
5.890074080E-1,-1.045425797E1,-1.199358225E0,-3.563989162E0,1.110999498E1
5.940329810E-1,-9.008365631E0,-1.124493122E0,-3.218741417E0,9.632000438E0
5.990585540E-1,-7.489821911E0,-9.815351963E-1,-3.219939232E0,8.211507307E0
6.040841270E-1,-6.188739300E0,-9.359732866E-1,-4.987708092E0,8.003360052E0
6.091097000E-1,-5.033678055E0,-1.412985086E0,-4.617577076E0,6.975418243E0
6.141352730E-1,-4.365682602E0,-2.193327427E0,-5.148812294E0,7.097896718E0
6.191608460E-1,-3.758114100E0,-2.862396717E0,-5.279264927E0,7.084304816E0
6.241864190E-1,-2.815937996E0,-3.422226906E0,-5.463281155E0,7.034812348E0
6.292119920E-1,-2.217355013E0,-3.526089668E0,-5.757364273E0,7.106139245E0
6.342375640E-1,-6.533823609E-1,-3.674279213E0,-6.236852646E0,7.268119920E0
6.392631370E-1,5.849695206E-1,-4.050649166E0,-6.484297276E0,7.667858838E0
6.442887100E-1,1.115055561E0,-4.583946228E0,-6.722504616E0,8.212671930E0
6.493143350E-1,1.718906164E0,-4.938372612E0,-7.303697586E0,8.982547572E0
6.543399600E-1,2.274973392E0,-5.280003548E0,-7.288377285E0,9.283015935E0
6.593655850E-1,2.572161436E0,-5.535615921E0,-7.440498352E0,9.623932346E0
6.643912100E-1,2.991872787E0,-5.732323647E0,-7.198382854E0,9.676133158E0
6.694168350E-1,3.493462324E0,-5.983624935E0,-6.890663147E0,9.771861899E0
6.744424600E-1,3.892660856E0,-6.336598396E0,-6.544218063E0,9.906163629E0
6.794680850E-1,4.225175381E0,-6.766779423E0,-6.205096245E0,1.010666266E1
6.844937100E-1,4.535486221E0,-7.254798889E0,-5.814410210E0,1.034456902E1
6.895193350E-1,4.843806744E0,-7.796064854E0,-5.280157566E0,1.058872773E1
6.945449600E-1,5.098233700E0,-8.252279282E0,-4.448762894E0,1.067162553E1
6.995705850E-1,5.213630676E0,-8.553006172E0,-3.458725929E0,1.059710548E1
7.045962100E-1,5.143291950E0,-8.713801384E0,-2.525357246E0,1.042886455E1
7.096218350E-1,5.022712231E0,-8.711334229E0,-1.711048126E0,1.020013078E1
7.146474600E-1,5.054304600E0,-8.616996765E0,-9.975237846E-1,1.003960567E1
7.196730850E-1,5.154328346E0,-8.553459167E0,-3.761491776E-1,9.993510526E0
7.246987100E-1,5.062553406E0,-8.599282265E0,9.437417984E-2,9.979278979E0
7.297243350E-1,4.652695179E0,-8.646469116E0,3.116440773E-1,9.823752981E0
7.347499600E-1,4.090473175E0,-8.616196632E0,4.026122093E-1,9.546355943E0
7.397755850E-1,3.608524323E0,-8.549688339E0,4.507212639E-1,9.290950874E0
7.448012100E-1,3.171783924E0,-8.412254333E0,6.446871758E-1,9.013426529E0
7.498268350E-1,2.558911324E0,-8.237032890E0,1.005648375E0,8.683781817E0
7.548524600E-1,1.663790226E0,-8.062808037E0,1.640877485E0,8.394614361E0
7.598780850E-1,6.150074005E-1,-7.910121918E0,2.586026430E0,8.344806502E0
7.649037100E-1,-4.682149887E-1,-7.776131630E0,3.905880213E0,8.714548103E0
7.699293350E-1,-1.610150337E0,-7.720131874E0,5.415896416E0,9.566867525E0
7.749549600E-1,-2.863718033E0,-7.667478561E0,6.949135780E0,1.073692677E1
7.799805850E-1,-4.329030991E0,-7.572263718E0,8.447845459E0,1.214272540E1
7.850062100E-1,-5.985715866E0,-7.350019932E0,9.714838028E0,1.357312290E1
7.900318350E-1,-7.473014832E0,-6.949338913E0,1.048472881E1,1.463109019E1
7.950574600E-1,-8.764393806E0,-6.399706364E0,1.066419220E1,1.521498720E1
8.000830850E-1,-1.023905277E1,-5.807087898E0,1.035713482E1,1.567898955E1
8.051087100E-1,-1.188319111E1,-5.153839111E0,9.611557007E0,1.612929994E1
8.101342830E-1,-1.320000935E1,-4.398922443E0,8.343553543E0,1.622361400E1
8.151598560E-1,-1.393764305E1,-3.596630812E0,6.787353039E0,1.591420147E1
8.201854290E-1,-1.438562393E1,-2.824591637E0,5.302786827E0,1.558986985E1
8.252110020E-1,-1.470966721E1,-2.122020245E0,3.935754299E0,1.537424603E1
8.302365750E-1,-1.494213676E1,-1.389481544E0,2.651682854E0,1.523907911E1
8.352621480E-1,-1.475730038E1,-7.857022882E-1,1.440462589E0,1.484823811E1
8.402877210E-1,-1.468631935E1,-3.637528419E-1,1.914746761E-1,1.469207115E1
8.453132940E-1,-1.466694164E1,6.177520752E-2,-7.271076441E-1,1.468508355E1
8.503388670E-1,-1.435497093E1,4.849308729E-1,-1.363693714E0,1.442775135E1
8.553644390E-1,-1.393277836E1,8.091193438E-1,-1.785824180E0,1.407004459E1
8.603900120E-1,-1.355861568E1,1.105465531E0,-1.989272952E0,1.374828426E1
8.654155850E-1,-1.313219166E1,1.397435188E0,-2.066073895E0,1.336697214E1
8.704411580E-1,-1.271581936E1,1.593942761E0,-1.979844689E0,1.296736290E1
8.754667310E-1,-1.236210251E1,1.671272635E0,-1.671045661E0,1.258598920E1
8.804923040E-1,-1.211403561E1,1.701850653E0,-1.248179793E0,1.229650792E1
8.855178770E-1,-1.201919556E1,1.666927457E0,-8.252305984E-1,1.216226601E1
8.905434500E-1,-1.216329861E1,1.547749281E0,-4.544326067E-1,1.226979502E1
8.955690230E-1,-1.240714931E1,1.440282822E0,-2.074607611E-1,1.249218991E1
9.005945960E-1,-1.269774151E1,1.473833084E0,-9.933990240E-2,1.278337560E1
9.056201690E-1,-1.287197971E1,1.676743865E0,-1.557120085E-1,1.298166314E1
9.106457420E-1,-1.285302925E1,1.971846104E0,-4.979071021E-1,1.301293393E1
9.156713140E-1,-1.272680378E1,2.214918852E0,-1.155580997E0,1.296968648E1
9.206968870E-1,-1.257912827E1,2.376371384E0,-2.056844473E0,1.296580958E1
9.257224600E-1,-1.251012039E1,2.536570549E0,-3.348940372E0,1.319669292E1
9.307480330E-1,-1.236152172E1,2.819013596E0,-6.031432629E0,1.404037879E1
9.357736060E-1,-1.174588966E1,3.285891771E0,-1.006956768E1,1.581642191E1
9.407991790E-1,-1.076949024E1,3.823186398E0,-1.272272587E1,1.710164986E1
9.458247520E-1,-9.252120018E0,4.208006382E0,-1.276677990E1,1.631869209E1
9.508503250E-1,-8.099136353E0,3.801417112E0,-1.214046192E1,1.508103436E1
9.558758980E-1,-7.343729973E0,3.317515612E0,-1.066151237E1,1.336428546E1
9.609014710E-1,-6.779740334E0,2.914221764E0,-8.871012688E0,1.153916954E1
9.659270440E-1,-6.144062996E0,2.730667114E0,-7.673846245E0,1.020264520E1
9.709526170E-1,-5.762223244E0,2.628556013E0,-6.634874344E0,9.172463191E0
9.759781890E-1,-5.371129036E0,2.441131830E0,-5.495774746E0,8.062982810E0
9.810037620E-1,-4.994876862E0,2.121162415E0,-4.256642342E0,6.896892697E0
9.860293350E-1,-4.824711800E0,1.730792880E0,-3.027568102E0,5.953121581E0
9.910549080E-1,-4.664271355E0,1.403820038E0,-1.880338907E0,5.221284552E0
9.960804810E-1,-4.446676254E0,1.240678430E0,-8.629444838E-1,4.696475898E0
1.001106054E0,-3.909246445E0,1.236908436E0,-1.483051181E-1,4.102943413E0
1.006131627E0,-3.640952110E0,1.192394495E0,6.656440496E-1,3.888626866E0
1.011157200E0,-3.761167526E0,9.018833637E-1,1.497477651E0,4.147555193E0
1.016182773E0,-3.752837181E0,5.035562515E-1,2.035548210E0,4.298931533E0
1.021208346E0,-2.989534378E0,5.373890400E-1,2.519586086E0,3.946443567E0
1.026233919E0,-2.036169052E0,9.410994053E-1,3.173564911E0,3.886279293E0
1.031259492E0,-1.671939850E0,1.222729325E0,3.801707268E0,4.329368085E0
1.036285064E0,-1.541892052E0,1.158314586E0,3.779285431E0,4.242890777E0
1.041310637E0,-1.602709770E0,9.256700277E-1,3.555740833E0,4.008595325E0
1.046336210E0,-1.394982338E0,7.358458042E-1,3.035415888E0,3.420700861E0
1.051361783E0,-1.014670372E0,5.467852354E-1,2.391234875E0,2.654530897E0
1.056387356E0,-1.988315582E-1,7.468404770E-1,1.877623081E0,2.030461308E0
1.061412929E0,-2.437715530E-1,8.815448284E-1,1.887488842E0,2.097417456E0
1.066438502E0,-4.117183685E-1,8.876640797E-1,2.218455553E0,2.424665869E0
1.071464075E0,-1.909303665E-1,9.700123072E-1,2.648093224E0,2.826619182E0
1.076489648E0,-1.060000420E0,4.146419764E-1,2.895845890E0,3.111503218E0
1.081515221E0,-1.014275551E0,4.263523817E-1,3.469949484E0,3.640203383E0
1.086540794E0,-1.517747879E0,2.452462912E-1,4.450729370E0,4.708789260E0
1.091566367E0,-3.288201332E0,-9.723393917E-1,6.012805939E0,6.921816752E0
1.096591939E0,2.064409256E-1,-7.096278667E-2,-8.683114648E-1,8.953314318E-1
1.101617512E0,2.001216412E0,1.214081526E0,-5.798609734E0,6.253218045E0
1.106643085E0,4.584566593E0,2.333878040E0,-1.153928280E1,1.263409217E1
1.111668658E0,5.536766529E0,2.199579477E0,-1.451685047E1,1.569180936E1
1.116694231E0,3.153528214E0,9.290446043E-1,-1.246527290E1,1.289150467E1
1.121719804E0,5.666761398E-1,6.903421879E-2,-9.242891312E0,9.260503624E0
1.126745377E0,-1.138185501E0,7.407069206E-2,-6.347259998E0,6.448927212E0
1.131770950E0,-2.143662453E0,3.345652819E-1,-4.355743408E0,4.866181591E0
1.136796523E0,-2.813571930E0,3.680608273E-1,-3.142905235E0,4.234325105E0
1.141822096E0,-2.459260941E0,1.347893476E-1,-2.514844418E0,3.520024856E0
1.146847669E0,-1.875725746E0,-3.021819592E-1,-2.420457363E0,3.077056200E0
1.151873242E0,-9.053249359E-1,-3.769773245E-1,-1.999977946E0,2.227473216E0
1.156898814E0,3.463563919E-1,-2.940785885E-2,-1.622492552E0,1.659309993E0
1.161924387E0,1.190311432E0,5.200205445E-1,-1.503877401E0,1.987186431E0
1.166949960E0,1.920318604E-1,6.524361372E-1,-1.280106664E0,1.449559319E0
1.171975533E0,-1.503776550E0,-6.263029575E-2,-1.175453424E0,1.909700820E0
1.177001106E0,-2.786354065E0,-7.174519897E-1,9.928382635E-1,3.043720445E0
1.182026679E0,-2.787907600E0,-9.037889838E-1,2.571706772E0,3.899094643E0
1.187052252E0,2.106852055E0,1.181138754E0,-1.025757790E0,2.624136692E0
1.192077825E0,2.674048424E0,1.552062869E0,-4.039288163E-1,3.118107216E0
1.197103398E0,2.846925259E0,1.632298529E-1,1.894111633E-1,2.857884533E0
1.202128971E0,3.082148075E0,-9.021612406E-1,6.567318439E-1,3.277930502E0
1.207154544E0,1.815931320E0,-1.297247767E0,1.424121618E0,2.647372417E0
1.212180117E0,1.048491478E0,-1.038746595E0,1.156037092E0,1.874766819E0
1.217205689E0,3.433780670E-1,-7.598420978E-1,8.577629328E-1,1.196254889E0
1.222231262E0,5.706386566E-1,-7.151363492E-1,4.550817013E-1,1.021835520E0
1.227256835E0,1.322882652E0,-8.797816038E-1,-5.957937241E-2,1.589837691E0
1.232282408E0,1.992354870E0,-1.022487402E0,-5.984148979E-1,2.317985937E0
1.237307981E0,2.607793808E0,-1.050904512E0,-1.076723337E0,3.010701245E0
1.242333554E0,3.116622448E0,-1.073405623E0,-1.367149353E0,3.568561681E0
1.247359127E0,3.409067154E0,-1.108021021E0,-1.561455727E0,3.909935221E0
1.252384700E0,3.667289257E0,-1.192662239E0,-1.683440208E0,4.207781440E0
1.257410273E0,3.728814602E0,-1.413523793E0,-1.599298954E0,4.296494501E0
1.262435846E0,3.636904716E0,-1.603687763E0,-1.424711227E0,4.222403633E0
1.267461419E0,2.913273335E0,-1.655071139E0,-8.554533720E-1,3.458066290E0
1.272486992E0,2.596286774E0,-1.440437794E0,-1.944699883E-1,2.975463766E0
1.277512564E0,2.728479862E0,-1.395895123E0,1.282086372E-1,3.067501102E0
1.282538137E0,3.658648014E0,-1.357171535E0,2.342950106E-1,3.909285615E0
1.287563710E0,4.070903301E0,-1.523280740E0,5.370969772E-1,4.379624534E0
1.292589283E0,3.779446125E0,-1.567697287E0,8.836799860E-1,4.186021752E0
1.297614856E0,3.846684933E0,-1.534148932E0,1.364137173E0,4.360214231E0
1.302640429E0,3.660039425E0,-1.502494335E0,1.610135078E0,4.271523474E0
1.307666002E0,2.961321354E0,-1.522844076E0,2.578185081E0,4.211355667E0
1.312691575E0,3.827028751E0,-1.058624506E0,2.017374516E0,4.453833724E0
1.317717148E0,5.079463005E0,-3.808909357E-1,7.044175863E-1,5.142200547E0
1.322742721E0,5.809911251E0,1.025502086E-1,-5.589786172E-1,5.837640138E0
1.327768294E0,3.871461391E0,-5.701771379E-1,-4.537514448E-1,3.939442302E0
1.332793867E0,2.131490707E-1,-1.254163146E0,2.180287361E0,2.524284196E0
1.337819439E0,-9.217586517E-1,-5.809590220E-2,2.979215384E0,3.119092568E0
1.342845012E0,-5.256280899E-1,1.455288172E0,1.418852091E0,2.099354617E0
1.347870585E0,-2.042819023E0,7.931802273E-1,9.643591642E-1,2.394208227E0
1.352896158E0,-1.439379692E0,1.551807404E0,-1.128821373E-1,2.119590171E0
1.357921731E0,-2.500643730E0,1.189950466E0,-4.917843342E-1,2.812659419E0
1.362947356E0,-2.355037689E0,1.460552335E0,-1.082257986E0,2.975012267E0
1.367972981E0,-2.630071640E0,1.643466592E0,-9.612410665E-1,3.246882144E0
1.372998606E0,-5.568744659E0,-1.113136768E0,3.870209455E0,6.872300326E0
1.378024231E0,-5.492459297E0,-5.351213217E-1,1.274449348E1,1.388796523E1
1.383049856E0,1.479891777E0,4.671176434E0,3.967532635E0,6.304861946E0
1.388075481E0,5.032903671E0,4.750794888E0,-5.088312626E0,8.590174434E0
1.393101106E0,5.382225037E0,2.905631304E0,-9.001730919E0,1.088311532E1
1.398126731E0,3.275837898E0,1.796050429E0,-8.746168137E0,9.510644991E0
1.403152356E0,1.200606346E0,1.874325275E0,-5.886182785E0,6.292988051E0
1.408177981E0,-1.366270065E0,1.812078953E0,-2.694034815E0,3.522520065E0
1.413203606E0,-2.344705582E0,1.658243418E0,-1.211141348E0,3.116773791E0
1.418229231E0,-4.777908325E-2,1.752657413E0,-1.560859442E0,2.347418379E0
1.423254856E0,5.863132477E-1,1.486198902E0,-2.289982319E0,2.792233769E0
1.428280481E0,8.175430298E-1,1.271005630E0,-2.861785650E0,3.236301751E0
1.433306106E0,-1.281509399E0,9.138228893E-1,-2.858374596E0,3.263072776E0
1.438331731E0,-1.515378952E-1,1.194118619E0,-3.067658186E0,3.295361855E0
1.443357356E0,2.894881725E0,1.552195549E0,-2.988046169E0,4.440503478E0
1.448382981E0,2.730575085E0,1.346181393E0,-2.629866600E0,4.022989308E0
1.453408606E0,2.343837738E0,1.149225473E0,-2.251301289E0,3.447122281E0
1.458434231E0,1.705654621E0,1.074232459E0,-1.830945611E0,2.723158992E0
1.463459856E0,-1.227111816E0,1.277080059E0,-1.550702929E0,2.354021339E0
1.468485481E0,2.720946789E0,1.431806564E0,-1.496367455E0,3.419464435E0
1.473511106E0,4.428273201E0,1.338326216E0,-1.246624112E0,4.791115974E0
1.478536731E0,3.884161472E0,1.443745375E0,-1.041108131E0,4.272589050E0
1.483562356E0,1.558625221E0,1.081544399E0,-9.816440940E-1,2.136042133E0
1.488587981E0,2.165555954E-1,7.716140151E-1,-3.890165091E-1,8.908526020E-1
1.493613606E0,-5.342969894E-1,4.278355837E-1,3.332703114E-1,7.613052345E-1
1.498639231E0,-2.787199020E-1,1.356414795E0,-9.073987007E-1,1.655571890E0
1.503664856E0,2.281149864E0,1.890400171E0,-4.693276286E-1,2.999587627E0
1.508690481E0,2.118082047E-1,2.357956886E0,-3.938309550E-1,2.399984628E0
1.513716106E0,-1.389690399E0,2.793762207E0,-1.115239859E0,3.313624393E0
1.518741731E0,-7.697677612E-1,2.193156242E0,-1.613909960E0,2.829696462E0
1.523767304E0,-2.086794853E0,1.194221139E0,-1.130347490E0,2.656795502E0
1.528792877E0,-1.908479691E0,1.166402578E0,2.007207870E-1,2.245679972E0
1.533818450E0,-1.545850754E0,1.581489921E0,1.040998459E0,2.444267316E0
1.538844023E0,-1.898145676E-1,1.404534936E0,1.803976297E0,2.294140021E0
1.543869596E0,1.905777454E0,9.957112074E-1,1.417319417E0,2.575310242E0
1.548895169E0,2.320150375E0,8.460608721E-1,3.232930899E-1,2.490669626E0
1.553920742E0,1.839766026E0,3.088635206E-1,-7.342755795E-2,1.866956697E0
1.558946314E0,1.542296410E0,-3.059132099E-1,6.566131115E-2,1.573712971E0
1.563971887E0,2.016264915E0,1.538426876E-1,1.076424122E0,2.290781673E0
1.568997460E0,1.476465225E0,9.289259911E-1,1.239878178E0,2.140128724E0
1.574023033E0,6.549043655E-1,8.820178509E-1,6.370973587E-2,1.100415443E0
1.579048606E0,1.297330856E-1,5.945694447E-2,-9.077103138E-1,9.188600631E-1
1.584074179E0,2.878599167E-1,-7.298018932E-1,-1.106668830E0,1.356536042E0
1.589099752E0,1.018883705E0,5.117487907E-2,-5.517948866E-1,1.159836398E0
1.594125325E0,1.490862846E0,3.428211212E-1,3.184217215E-2,1.530102046E0
1.599150898E0,1.699731350E0,-3.883700371E-1,-9.111768007E-2,1.745915341E0
1.604176471E0,2.129344940E0,-1.388337493E0,2.673593163E-1,2.555987455E0
1.609202044E0,1.809263706E0,-2.513049126E0,5.361871719E-1,3.142665708E0
1.614227617E0,2.931045532E0,-1.606366873E0,1.767883778E0,3.781118286E0
1.619253189E0,2.579761982E0,-1.772116661E0,4.581372738E-1,3.163140703E0
1.624278762E0,1.516456604E0,-1.740801930E0,-5.915047526E-1,2.383256148E0
1.629304335E0,5.686550140E-1,-1.563550711E0,-6.165918708E-1,1.774329418E0
1.634329908E0,3.255462646E-2,-1.466960788E0,-3.716901541E-1,1.513666848E0
1.639355481E0,-5.274353027E-1,-1.403808117E0,-3.754275441E-1,1.545901377E0
1.644381054E0,-8.671703339E-1,-1.115573406E0,3.592991829E-1,1.457938378E0
1.649406627E0,-1.154000282E0,-9.179062843E-1,1.002047062E0,1.782797496E0
1.654432200E0,-1.206744194E0,-1.250520110E0,-8.292296529E-1,1.925526918E0
1.659457773E0,-9.831953049E-1,-1.174224734E0,-7.638271451E-1,1.711405458E0
1.664483346E0,-5.071125031E-1,-1.070166826E0,-1.185231924E0,1.675468544E0
1.669508919E0,-8.786087036E-1,-1.166430593E0,-1.382252932E0,2.010755268E0
1.674534492E0,-6.948442459E-1,-1.389089942E0,-1.598474026E0,2.228788596E0
1.679560064E0,-4.297227859E-1,-1.382878065E0,-1.681357026E0,2.219003124E0
1.684585637E0,-1.310701370E-1,-1.243257403E0,-1.152949095E0,1.700635166E0
1.689611210E0,-3.313350677E-2,-1.300060153E0,-1.079757690E0,1.690304973E0
1.694636783E0,2.802886963E-1,-1.099277496E0,-6.094490290E-1,1.287789147E0
1.699662356E0,7.849836349E-1,-1.147548676E0,-7.528833151E-1,1.581107383E0
1.704687929E0,1.442794323E0,-1.715371728E0,-1.323219299E0,2.602895491E0
1.709713502E0,1.834562302E0,-2.326552629E0,-1.490695477E0,3.316721119E0
1.714739075E0,8.663650513E0,-8.804917336E-1,5.349363804E0,1.022006844E1
1.719764648E0,9.136269569E0,2.257451773E0,6.637638092E0,1.151632535E1
1.724790221E0,-4.347963333E-1,3.067264557E0,-2.270482540E0,3.840865876E0
1.729815794E0,-2.143335342E0,2.878889799E0,-4.227278233E0,5.545428218E0
1.734841367E0,2.594476223E0,1.952491045E0,-2.486718893E0,4.089902078E0
1.739866939E0,6.823506355E0,5.660080910E-1,-6.709082723E-1,6.879732702E0
1.744892512E0,4.616308689E0,-1.079889417E0,1.429790378E0,4.951844867E0
1.749918085E0,1.041380882E0,-2.054250479E0,2.729910135E0,3.571670270E0
1.754943658E0,-1.217279434E-1,-1.946381211E0,4.109072685E0,4.548372879E0
1.759969231E0,2.397384644E-1,-1.547847271E0,5.705393791E0,5.916487473E0
1.764994804E0,2.344287395E0,-1.268560171E0,5.760049820E0,6.346897055E0
1.770020377E0,3.730690479E0,-1.312233448E0,4.354885101E0,5.882604212E0
1.775045950E0,3.556931019E0,-1.629532814E0,2.445663929E0,4.613936228E0
1.780071523E0,1.785391331E0,-1.794254065E0,4.600901604E-1,2.572674252E0
1.785097096E0,-5.117168427E-1,-1.664122939E0,-1.598716736E0,2.363695091E0
1.790122669E0,-1.488725662E0,-1.214803100E0,-2.762855053E0,3.365325944E0
1.795148242E0,-1.123064041E0,-7.035988569E-1,-4.672190666E0,4.856510045E0
1.800173814E0,1.526927948E0,-4.872322083E-1,-5.873485565E0,6.088245796E0
1.805199387E0,5.082143784E0,-1.147317886E-2,-5.773397446E0,7.691582096E0
1.810224960E0,8.117693901E0,2.665807009E-1,-4.990209103E0,9.532586555E0
1.815250533E0,1.086931610E1,8.368725777E-1,-4.709875584E0,1.187540804E1
1.820276106E0,1.170099640E1,1.783064008E-1,-4.468425274E0,1.252644939E1
1.825301679E0,1.077610016E1,-2.599668741E0,-1.801742315E0,1.123071180E1
1.830327252E0,1.052411938E1,-4.304816723E0,-1.568814516E0,1.147822785E1
1.835352825E0,1.104745293E1,-4.513150215E0,4.104510546E-1,1.194082121E1
1.840378398E0,1.017674541E1,-5.121298313E0,2.478391886E0,1.165917107E1
1.845403971E0,8.542644501E0,-5.353724003E0,3.224120617E0,1.058461570E1
1.850429544E0,6.607592106E0,-5.133877754E0,3.262618303E0,8.981183242E0
1.855455117E0,5.508019924E0,-4.916509628E0,2.157336950E0,7.691843285E0
1.860480689E0,5.040780067E0,-4.638046265E0,1.434269786E0,6.998433158E0
1.865506262E0,1.637329578E0,-4.561122894E0,2.051319122E0,5.262375922E0
1.870531835E0,-2.459019661E0,-4.229121685E0,2.754813194E0,5.614378296E0
1.875557408E0,-4.973287582E0,-4.246396542E0,2.396335602E0,6.964761107E0
1.880582981E0,-9.456815720E0,-5.635506630E0,3.024717808E0,1.141662018E1
1.885608554E0,-1.203785324E1,-5.870044708E0,2.683098555E0,1.365892944E1
1.890634127E0,-1.251786518E1,-4.702557087E0,6.277505159E-1,1.338674951E1
1.895659700E0,-1.299516964E1,-2.679445267E0,-1.041590571E0,1.330934904E1
1.900685273E0,-1.450499153E1,-5.557379723E-1,-2.991675854E0,1.482072024E1
1.905710846E0,-1.579161549E1,1.239161015E0,-6.057362556E0,1.695884079E1
1.910736419E0,-1.607588577E1,2.324911356E0,-6.970865250E0,1.767575397E1
1.915761992E0,-1.630624771E1,2.153086185E0,-6.982524395E0,1.786855175E1
1.920787564E0,-1.512993240E1,2.578011513E0,-6.260476589E0,1.657572216E1
1.925813137E0,-1.322425556E1,3.363568306E0,-5.236454010E0,1.461557312E1
1.930838710E0,-1.096974564E1,4.265398979E0,-4.559720993E0,1.262220279E1
1.935864283E0,-8.818312645E0,4.895977020E0,-4.335365295E0,1.097855278E1
1.940889856E0,-6.996465683E0,5.097446442E0,-4.258253574E0,9.647135107E0
1.945915429E0,-6.447376251E0,4.491065025E0,-3.936957836E0,8.788513105E0
1.950941002E0,-6.471788406E0,3.260912895E0,-3.438546658E0,8.021296728E0
1.955966575E0,-6.156040192E0,2.298457146E0,-3.088086367E0,7.260579419E0
1.960992148E0,-5.931292534E0,6.189200878E-1,-2.572741747E0,6.494789704E0
1.966017721E0,-5.223745346E0,-1.121047497E0,-2.257321596E0,5.799979631E0
1.971043294E0,-4.206274986E0,-2.543248653E0,-2.453753710E0,5.493793793E0
1.976068867E0,-3.285729408E0,-4.159833431E0,-2.603734493E0,5.905900882E0
1.981094439E0,-2.725049019E0,-5.693121433E0,-2.988152504E0,6.983307182E0
1.986120012E0,-2.709867477E0,-7.014971256E0,-3.430017948E0,8.265484051E0
1.991145585E0,-2.192037582E0,-5.816072464E0,-2.053964615E0,6.546029202E0
1.996171158E0,-1.254287720E0,-4.852859020E0,-1.699992299E0,5.292773580E0
2.001196731E0,-1.889457703E-1,-4.120375156E0,-1.789827228E0,4.496295524E0
2.006222304E0,7.835540771E-1,-3.359792709E0,-1.948782921E0,3.962312319E0
2.011247877E0,1.208430290E0,-2.465030670E0,-2.041548252E0,3.421198509E0
2.016273450E0,1.368513107E0,-1.723349571E0,-2.075645447E0,3.025072874E0
2.021299023E0,1.622591019E0,-1.287389278E0,-2.094688416E0,2.945826255E0
2.026324596E0,2.089656353E0,-1.136991501E0,-2.319009304E0,3.322230802E0
2.031350169E0,2.543972015E0,-1.361689568E0,-2.326737881E0,3.706710301E0
2.036375742E0,3.056596279E0,-1.539383411E0,-2.011606216E0,3.969765947E0
2.041401314E0,3.684534550E0,-1.492634296E0,-1.362321377E0,4.202341196E0
2.046426939E0,4.093126297E0,-1.570834160E0,-9.242639542E-1,4.480565444E0
2.051452564E0,4.231178284E0,-1.932325840E0,-9.678071737E-1,4.751147603E0
2.056478189E0,3.102949142E0,-2.953101635E0,-7.160021067E-1,4.343012971E0
2.061503814E0,1.854075909E0,-3.395063877E0,4.351341724E-2,3.868584964E0
2.066529439E0,1.592418194E0,-2.999625683E0,1.186551452E0,3.597423285E0
2.071555064E0,1.707520008E0,-2.327521324E0,2.446268082E0,3.783808613E0
2.076580689E0,3.160786629E0,-1.997570992E0,3.401683807E0,5.054929743E0
2.081606314E0,4.665173054E0,-1.965899467E0,4.123130322E0,6.529073746E0
2.086631939E0,5.525194168E0,-1.966319084E0,4.725901127E0,7.531820683E0
2.091657564E0,5.979902267E0,-2.049831390E0,4.905384064E0,8.001489403E0
2.096683189E0,6.014730453E0,-2.105077744E0,4.629984856E0,7.876870857E0
2.101708814E0,5.735536098E0,-2.146887779E0,4.064592838E0,7.350266418E0
2.106734439E0,5.587934971E0,-2.061797142E0,3.604227304E0,6.961787066E0
2.111760064E0,5.500229359E0,-1.707209587E0,3.709211349E0,6.850207034E0
2.116785689E0,5.271556854E0,-1.059863567E0,4.727680683E0,7.159859432E0
2.121811314E0,4.639196873E0,-2.975115776E-1,6.021630287E0,7.607278888E0
2.126836939E0,3.412984371E0,4.255180359E-1,6.488761425E0,7.343946674E0
2.131862564E0,1.495131016E0,7.814989090E-1,5.550334930E0,5.801066724E0
2.136888189E0,-4.030103683E-1,9.635455608E-1,4.076235294E0,4.207912972E0
2.141913814E0,-1.624633789E0,1.284961224E0,3.505241394E0,4.071520297E0
2.146939439E0,-2.050765038E0,1.989097834E0,3.802750826E0,4.756370599E0
2.151965064E0,-1.840206146E0,2.478745699E0,4.217808247E0,5.226896336E0
2.156990689E0,-1.303865433E0,2.028370142E0,2.250309944E0,3.298218511E0
2.162016314E0,-5.716695786E-1,1.836808443E0,3.097440004E-1,1.948489854E0
2.167041939E0,-6.255693436E-1,1.622519016E0,-1.062810063E0,2.038006426E0
2.172067564E0,-5.909366608E-1,1.812356234E0,-4.946910143E-1,1.969406117E0
2.177093189E0,-1.104690552E0,1.943504095E0,1.035277247E0,2.463604750E0
2.182118814E0,-1.204214096E0,7.065079212E-1,-2.115208626E0,2.534441272E0
2.187144439E0,-2.047868729E0,3.599500656E-2,-3.886015177E0,4.392741277E0
2.192170064E0,-2.407009125E0,-2.058143616E-1,-3.267226219E0,4.063350790E0
2.197195689E0,-1.810527802E0,5.955131054E-1,-1.059435129E0,2.180607615E0
2.202221314E0,-1.352329254E0,5.573923588E-1,3.108705282E-1,1.495366557E0
2.207246939E0,-1.044731140E0,-4.167022705E-1,-5.254946947E-1,1.241470343E0
2.212272512E0,-7.939395905E-1,-8.696484566E-1,-1.835805178E-1,1.191776119E0
2.217298085E0,-5.000753403E-1,-8.872785568E-1,2.822867036E-1,1.056893735E0
2.222323658E0,-7.792854309E-1,-4.516282082E-1,6.434451342E-1,1.106921615E0
2.227349231E0,-1.365780830E0,-5.942344666E-3,5.296062231E-1,1.464880657E0
2.232374804E0,-1.501594543E0,2.652068138E-1,3.320564628E-1,1.560571152E0
2.237400377E0,-9.570827484E-1,1.838588715E-1,4.510570168E-1,1.073901254E0
2.242425950E0,6.094455719E-2,-2.591810226E-1,5.293930769E-1,5.925757938E-1
2.247451523E0,9.442553520E-1,-5.950078964E-1,7.890514731E-1,1.366841174E0
2.252477096E0,1.693176746E0,-8.678507805E-1,9.590701461E-1,2.130687217E0
2.257502669E0,2.160096169E0,-8.825669289E-1,1.118983388E0,2.587868556E0
2.262528242E0,2.556348324E0,-7.260346413E-1,1.388935089E0,2.998530262E0
2.267553814E0,2.839063644E0,-4.607815742E-1,1.676507473E0,3.329155951E0
2.272579387E0,3.218327045E0,-8.676385880E-2,2.040898800E0,3.811879438E0
2.277604960E0,3.745148659E0,2.678179741E-1,2.295993328E0,4.401073767E0
2.282630533E0,4.226622105E0,3.886518478E-1,2.413017273E0,4.882421227E0
2.287656106E0,4.819721222E0,3.624911308E-1,2.484426498E0,5.434472146E0
2.292681679E0,5.432898521E0,2.852864265E-1,2.494800568E0,5.985131959E0
2.297707252E0,5.922228336E0,1.858530045E-1,2.551993847E0,6.451356633E0
2.302732825E0,6.421354294E0,9.280920029E-2,2.611135483E0,6.932563236E0
2.307758398E0,6.910813808E0,-8.002996445E-2,2.664917469E0,7.407262477E0
2.312783971E0,7.366711617E0,-2.897105217E-1,2.661680222E0,7.838170311E0
2.317809544E0,7.584123135E0,-4.315128326E-1,2.380950928E0,7.960782271E0
2.322835117E0,7.206885815E0,-3.635492325E-1,-2.412469864E0,7.608638645E0
2.327860689E0,5.709691525E0,8.730454445E-1,-8.168397903E0,1.000427458E1
2.332886262E0,3.458819628E0,2.931039095E0,-4.174732208E0,6.163019747E0
2.337911835E0,1.118494034E0,4.484035492E0,-4.166234016E0,6.222146661E0
2.342937408E0,-1.416702747E0,5.999024391E0,-5.001058578E0,7.937627305E0
2.347962981E0,-2.936398983E0,7.067341805E0,-4.929925919E0,9.103511890E0
2.352988554E0,-2.910704613E0,7.110900879E0,-4.727012634E0,9.021184019E0
2.358014127E0,-2.082364559E0,6.620831013E0,-3.784542322E0,7.905340350E0
2.363039700E0,-1.461055279E0,5.983590603E0,-2.137369633E0,6.519692322E0
2.368065273E0,-1.255421162E0,5.608111382E0,-1.707056761E-1,5.749446581E0
2.373090846E0,-6.847424507E-1,5.806752205E0,1.738518834E0,6.099974683E0
2.378116419E0,7.534003258E-1,6.051147461E0,2.720060349E0,6.677029725E0
2.383141992E0,2.868879557E0,5.765688896E0,2.186191082E0,6.800960947E0
2.388167564E0,5.330750465E0,5.174508095E0,2.200098753E0,7.748088091E0
2.393193137E0,7.081635475E0,4.118324280E0,2.375283480E0,8.529485769E0
2.398218710E0,7.601064205E0,2.568534374E0,2.691577911E0,8.462749998E0
2.403244283E0,7.415406227E0,1.747285843E0,3.174842358E0,8.253537504E0
2.408269856E0,7.425496101E0,1.190914631E0,4.119032860E0,8.574537988E0
2.413295429E0,9.196037292E0,-5.000877380E-1,5.631261826E0,1.079482744E1
2.418321002E0,1.188721561E1,-2.887964249E0,1.781987190E0,1.236210787E1
2.423346575E0,1.068655014E1,-3.240139961E0,-6.161531448E0,1.275403194E1
2.428372148E0,8.904672623E0,-2.999011040E0,-4.681248188E0,1.049768290E1
2.433397721E0,6.917027950E0,-2.157465935E0,-1.771129966E0,7.459010409E0
2.438423294E0,5.024355888E0,-9.373502731E-1,1.015951157E0,5.211039664E0
2.443448867E0,3.589424133E0,3.987712860E-1,2.174551487E0,4.215644472E0
2.448474439E0,2.564703465E0,1.801917076E0,1.336099982E0,3.407311576E0
2.453500012E0,2.065977812E0,3.005159378E0,6.925350428E-2,3.647470802E0
2.458525585E0,1.885797143E0,3.924310684E0,-7.310050130E-1,4.414840149E0
2.463551158E0,1.848882198E0,4.503936291E0,-1.140517235E0,5.000458685E0
2.468576731E0,1.256176591E0,4.558754444E0,-1.119264364E0,4.859318309E0
2.473602304E0,2.040204406E-1,4.419509888E0,-8.509232998E-1,4.505303813E0
2.478627877E0,-3.512675166E-1,4.641841412E0,-9.662176967E-1,4.754330363E0
2.483653450E0,-1.096853733E0,3.963846684E0,-1.349511147E0,4.328550448E0
2.488679023E0,-2.692605495E0,1.431390762E0,-1.387461662E0,3.350231892E0
2.493704596E0,-4.851873398E0,-2.128916740E0,-1.996583223E0,5.662093829E0
2.498730169E0,-6.342750072E0,-6.062707901E0,-3.108401537E0,9.308547990E0
2.503755742E0,-6.224452972E0,-8.950541496E0,-4.341358185E0,1.173470915E1
2.508781314E0,-6.832363129E0,-1.164178848E1,-4.572340012E0,1.425197243E1
2.513806887E0,-6.197444916E0,-1.346007442E1,-4.847399712E0,1.559099775E1
2.518832460E0,-4.469092846E0,-1.489359188E1,-4.840378761E0,1.628561133E1
2.523858033E0,-3.362196445E0,-1.745000458E1,-4.686469555E0,1.837852066E1
2.528883606E0,-1.619306207E0,-1.895860481E1,-3.873133898E0,1.941782725E1
2.533909179E0,1.458539724E0,-1.925143433E1,-2.472753525E0,1.946431534E1
2.538934752E0,4.619916439E0,-1.976734161E1,-7.003325224E-1,2.031211186E1
2.543960325E0,6.379283428E0,-2.022052383E1,1.585873604E0,2.126216913E1
2.548985898E0,7.327984333E0,-1.988903236E1,4.037544727E0,2.157718077E1
2.554011471E0,7.256923676E0,-1.862922859E1,6.811540127E0,2.112127312E1
2.559037044E0,7.698468208E0,-1.573689842E1,1.007162094E1,2.020776913E1
2.564062617E0,8.365491867E0,-1.095189476E1,1.441642094E1,1.994388743E1
2.569088189E0,6.987205982E0,-6.162528038E0,1.303465462E1,1.602186070E1
2.574113762E0,4.820886612E0,-3.215577126E0,8.841624260E0,1.057143337E1
2.579139335E0,2.770979404E0,-1.422718048E0,4.797591686E0,5.720082123E0
2.584164908E0,1.116839767E0,-1.966648102E-1,1.886479497E0,2.201093593E0
2.589190481E0,-1.183749735E-1,7.391185760E-1,-1.763492674E-1,7.690305377E-1
2.594216054E0,-8.609306812E-1,1.446413040E0,-1.721718311E0,2.407826045E0
2.599241627E0,-1.301578164E0,2.135792255E0,-2.833940983E0,3.779806314E0
2.604267200E0,-1.584139228E0,2.759735107E0,-3.623215675E0,4.822170340E0
2.609292773E0,-1.794896364E0,3.141900539E0,-4.119333744E0,5.482891797E0
2.614318346E0,-1.928615928E0,3.288051605E0,-4.386013985E0,5.811020687E0
2.619343919E0,-2.113154411E0,3.261234283E0,-4.513346672E0,5.955784482E0
2.624369492E0,-2.413902283E0,3.162572384E0,-4.683207035E0,6.145015577E0
2.629395064E0,-2.690692186E0,3.073853970E0,-4.757100105E0,6.270438906E0
2.634420637E0,-2.908651590E0,2.885310650E0,-4.697856903E0,6.233388413E0
2.639446210E0,-3.167855740E0,2.721572399E0,-4.851119041E0,6.401220373E0
2.644471783E0,-3.296949625E0,2.286223412E0,-4.911619663E0,6.341979347E0
2.649497356E0,-3.568622589E0,1.871295452E0,-4.718395710E0,6.204842619E0
2.654522981E0,-3.809257746E0,1.462219238E0,-4.474518776E0,6.055563388E0
2.659548606E0,-3.931978464E0,1.034893990E0,-4.310548782E0,5.925562506E0
2.664574231E0,-3.927294493E0,6.322336197E-1,-4.059973717E0,5.683902529E0
2.669599856E0,-3.795668840E0,2.397251129E-1,-3.761894464E0,5.349431749E0
2.674625481E0,-3.489901066E0,-1.140546799E-1,-3.478952885E0,4.929049715E0
2.679651106E0,-3.030137539E0,-3.861503601E-1,-3.273248434E0,4.477164383E0
2.684676731E0,-2.513589382E0,-5.479373932E-1,-3.077476501E0,4.011138066E0
2.689702356E0,-2.022699118E0,-6.520442963E-1,-2.957724571E0,3.642060972E0
2.694727981E0,-1.620697975E0,-7.606105804E-1,-2.808000088E0,3.330173400E0
2.699753606E0,-1.212764502E0,-8.209896088E-1,-2.580375671E0,2.967012012E0
2.704779231E0,-8.047734499E-1,-8.571033478E-1,-2.332288742E0,2.611868532E0
2.709804856E0,-3.976705074E-1,-8.498582840E-1,-2.045050144E0,2.250029117E0
2.714830481E0,-3.064966202E-2,-8.184490204E-1,-1.762370825E0,1.943385995E0
2.719856106E0,3.523815870E-1,-7.389440536E-1,-1.432366729E0,1.649813790E0
2.724881731E0,7.592917681E-1,-6.639013290E-1,-1.041633606E0,1.449927423E0
2.729907356E0,1.164516807E0,-5.788202286E-1,-6.628682017E-1,1.459632318E0
2.734932981E0,1.480610251E0,-4.883546829E-1,-3.113858104E-1,1.589861043E0
2.739958606E0,1.701793194E0,-4.258556366E-1,1.190358400E-2,1.754307497E0
2.744984231E0,1.789486170E0,-3.577547073E-1,3.491492867E-1,1.857997418E0
2.750009856E0,1.810554862E0,-2.792520523E-1,7.615639567E-1,1.983953194E0
2.755035481E0,1.693391085E0,-2.095165253E-1,1.176354289E0,2.072505719E0
2.760061106E0,1.304948568E0,-1.343126297E-1,1.602187514E0,2.070733078E0
2.765086731E0,6.378694177E-1,-1.352224350E-1,1.918874025E0,2.026632682E0
2.770112356E0,-6.541180611E-2,-1.647558212E-1,2.030384064E0,2.038107610E0
2.775137981E0,-6.582896709E-1,-1.802272797E-1,2.032722473E0,2.144245279E0
2.780163606E0,-1.076338053E0,-1.723861694E-1,1.973867893E0,2.254855883E0
2.785189231E0,-1.279624820E0,-9.843158722E-2,1.911514044E0,2.302393189E0
2.790214856E0,-1.253326774E0,2.236461639E-2,1.826790094E0,2.215511279E0
2.795240481E0,-1.016947985E0,1.660766602E-1,1.734362602E0,2.017369152E0
2.800266106E0,-6.577465534E-1,2.945709229E-1,1.605893970E0,1.760198284E0
2.805291731E0,-2.633763552E-1,4.081010818E-1,1.446784973E0,1.526139036E0
2.810317356E0,8.338701725E-2,4.686584473E-1,1.262333393E0,1.349103306E0
2.815342981E0,3.239892721E-1,4.860649109E-1,1.100644112E0,1.246052008E0
2.820368606E0,4.530146122E-1,4.700727463E-1,9.715178013E-1,1.170485995E0
2.825394179E0,5.323773026E-1,3.873157501E-1,8.654574156E-1,1.087407753E0
2.830419752E0,5.572155118E-1,2.905092239E-1,7.585080266E-1,9.849970366E-1
2.835445325E0,4.943923950E-1,1.652803421E-1,6.888011694E-1,8.638220203E-1
2.840470898E0,4.020706415E-1,3.548431396E-2,6.563342214E-1,7.705157672E-1
2.845496471E0,3.047804832E-1,-5.114078522E-2,5.939449668E-1,6.695350226E-1
2.850522044E0,2.746042013E-1,-1.090421677E-1,5.495868921E-1,6.239738886E-1
2.855547617E0,2.927663326E-1,-1.430969238E-1,5.137566924E-1,6.083870430E-1
2.860573189E0,3.306013346E-1,-1.581249237E-1,4.770003557E-1,6.015231278E-1
2.865598762E0,4.071427584E-1,-1.445808411E-1,4.487887621E-1,6.229608321E-1
2.870624335E0,5.174378157E-1,-1.407432556E-1,4.004328847E-1,6.692511130E-1
2.875649908E0,6.085546613E-1,-1.178693771E-1,3.510428071E-1,7.123643859E-1
2.880675481E0,7.184396386E-1,-9.028434753E-2,2.957927585E-1,7.821765361E-1
2.885701054E0,8.180000186E-1,-6.272220612E-2,2.299036384E-1,8.520057444E-1
2.890726627E0,8.688785434E-1,-3.037834167E-2,1.917647123E-1,8.903069536E-1
2.895752200E0,8.950020075E-1,-2.814292908E-3,1.479103565E-1,9.071460672E-1
2.900777773E0,9.107638597E-1,4.387950897E-2,1.174453497E-1,9.193528320E-1
2.905803346E0,8.922874928E-1,8.576774597E-2,1.195707321E-1,9.043396685E-1
2.910828919E0,8.636580110E-1,1.467409134E-1,1.302753091E-1,8.856690757E-1
2.915854492E0,8.442559838E-1,2.219533920E-1,1.399842501E-1,8.840967508E-1
2.920880064E0,8.437674642E-1,2.635297775E-1,1.533702016E-1,8.971699371E-1
2.925905637E0,8.574168086E-1,3.336734772E-1,1.608560085E-1,9.340108289E-1
2.930931210E0,8.994623423E-1,3.845243454E-1,1.480428576E-1,9.893473430E-1
2.935956783E0,9.552496672E-1,4.639558792E-1,1.291500330E-1,1.069783490E0
2.940982356E0,1.019698262E0,5.384979248E-1,1.091033816E-1,1.158303979E0
2.946007929E0,1.068509459E0,6.177711487E-1,6.398272514E-2,1.235899448E0
2.951033502E0,1.101322412E0,6.970453262E-1,2.742809057E-2,1.303662358E0
2.956059075E0,1.093934298E0,7.524557114E-1,-1.003152132E-2,1.327773503E0
2.961084648E0,1.036676049E0,7.601490021E-1,-6.732553244E-2,1.287267052E0
2.966110221E0,9.009126425E-1,7.249698639E-1,-1.156048179E-1,1.162148599E0
2.971135794E0,7.395057678E-1,6.660890579E-1,-1.689990759E-1,1.009506860E0
2.976161367E0,5.478101373E-1,5.548267365E-1,-2.178236246E-1,8.095528305E-1
2.981186939E0,3.550230265E-1,4.342145920E-1,-2.620863914E-1,6.190904116E-1
2.986212512E0,1.376290321E-1,2.803058624E-1,-3.064057231E-1,4.374901075E-1
2.991238085E0,-8.027374744E-2,1.170425415E-1,-3.554275632E-1,3.827160615E-1
2.996263658E0,-2.792127132E-1,-1.734256744E-2,-4.042587876E-1,4.916153692E-1
3.001289231E0,-4.637188911E-1,-1.229228973E-1,-4.863466024E-1,6.831385411E-1
3.006314804E0,-6.383588314E-1,-2.140913010E-1,-5.345486403E-1,8.596972325E-1
3.011340377E0,-7.885409594E-1,-2.717504501E-1,-5.917856097E-1,1.022670699E0
3.016365950E0,-9.331070185E-1,-3.103227615E-1,-6.388930678E-1,1.172677823E0
3.021391523E0,-1.043289661E0,-3.154935837E-1,-6.950743794E-1,1.292717259E0
3.026417096E0,-1.123844266E0,-2.873296738E-1,-7.509217262E-1,1.381834909E0
3.031442669E0,-1.193735719E0,-2.593927383E-1,-7.922731638E-1,1.456017282E0
3.036468242E0,-1.224400997E0,-1.982145309E-1,-8.385167718E-1,1.497183081E0
3.041493814E0,-1.235155463E0,-1.229877472E-1,-8.947302699E-1,1.530123283E0
3.046519387E0,-1.192540526E0,-3.854084015E-2,-9.802322388E-1,1.544180542E0
3.051544960E0,-1.139877796E0,4.078483582E-2,-1.099818468E0,1.584482709E0
3.056570533E0,-1.077208400E0,1.006460190E-1,-1.219985485E0,1.630604839E0
3.061596106E0,-1.038216591E0,1.411056519E-1,-1.331033230E0,1.693946266E0
3.066621679E0,-1.008365035E0,1.382780075E-1,-1.447142005E0,1.769220403E0
3.071647252E0,-9.589955807E-1,1.018056870E-1,-1.553830743E0,1.828777433E0
3.076672825E0,-9.045070410E-1,1.263904572E-2,-1.650862336E0,1.882455626E0
3.081698398E0,-8.113888502E-1,-1.004257202E-1,-1.742770910E0,1.925016269E0
3.086723971E0,-7.181229591E-1,-2.181673050E-1,-1.838873386E0,1.986140199E0
3.091749544E0,-6.297752857E-1,-3.644313812E-1,-1.919889927E0,2.053145020E0
3.096775117E0,-5.510404110E-1,-4.769773483E-1,-1.976035714E0,2.106150533E0
3.101800689E0,-4.771398306E-1,-5.797510147E-1,-2.036040068E0,2.170076684E0
3.106826262E0,-4.225082397E-1,-6.727390289E-1,-2.066354990E0,2.213800795E0
3.111851835E0,-3.536770344E-1,-7.368335724E-1,-2.067151785E0,2.222864742E0
3.116877408E0,-2.800120115E-1,-7.864789963E-1,-2.072186947E0,2.234035515E0
3.121902981E0,-2.349847555E-1,-8.026113510E-1,-2.062620640E0,2.225714878E0
3.126928554E0,-1.657704115E-1,-7.996692657E-1,-2.052999020E0,2.209469560E0
3.131954127E0,-1.202301979E-1,-7.490596771E-1,-2.053348303E0,2.189014608E0
3.136979700E0,-5.519890785E-2,-6.795854568E-1,-2.087772369E0,2.196287044E0
3.142005273E0,6.369352341E-4,-5.817251205E-1,-2.113266468E0,2.191871275E0
3.147031002E0,8.069878817E-2,-4.460077286E-1,-2.177999973E0,2.224661563E0
3.152056731E0,1.657126546E-1,-2.915983200E-1,-2.234069824E0,2.259105629E0
3.157082460E0,2.556099892E-1,-1.328296661E-1,-2.343450308E0,2.361088633E0
3.162108189E0,3.455003500E-1,2.080249786E-2,-2.467448235E0,2.491606716E0
3.167133919E0,4.543293715E-1,1.502437592E-1,-2.586639404E0,2.630530702E0
3.172159648E0,5.724530220E-1,2.556285858E-1,-2.753120661E0,2.823600859E0
3.177185325E0,6.517571211E-1,3.132324219E-1,-2.880115032E0,2.969505766E0
3.182210898E0,7.113821507E-1,3.088588715E-1,-2.986382723E0,3.085440023E0
3.187236471E0,7.799611688E-1,2.714176178E-1,-3.085700512E0,3.194300330E0
3.192262044E0,8.431058526E-1,2.201585770E-1,-3.163415194E0,3.281233452E0
3.197287617E0,9.051488638E-1,1.695899963E-1,-3.214337826E0,3.343654122E0
3.202313189E0,9.417670965E-1,4.809284210E-2,-3.219044685E0,3.354323609E0
3.207338762E0,8.664789200E-1,-1.919584274E-1,-3.201210976E0,3.321955067E0
3.212364335E0,6.454066038E-1,-5.502624512E-1,-3.165151596E0,3.276815997E0
3.217389908E0,2.979375720E-1,-9.500913620E-1,-3.077045441E0,3.234138067E0
3.222415481E0,-1.468068361E-1,-1.348317146E0,-2.912685633E0,3.212981321E0
3.227441054E0,-6.878236532E-1,-1.768919945E0,-2.662429333E0,3.269664983E0
3.232466627E0,-1.209205389E0,-2.116383553E0,-2.355331421E0,3.389519600E0
3.237492200E0,-1.676784515E0,-2.405364990E0,-2.020841599E0,3.561065545E0
3.242517773E0,-2.066234827E0,-2.578816414E0,-1.636138678E0,3.687352740E0
3.247543346E0,-2.410687685E0,-2.728012085E0,-1.269365788E0,3.855483699E0
3.252568919E0,-2.681285143E0,-2.843641281E0,-9.598205686E-1,4.024529945E0
3.257594492E0,-2.921040773E0,-2.935467720E0,-6.364979744E-1,4.189818565E0
3.262620064E0,-3.062719822E0,-3.032357216E0,-3.383550644E-1,4.323184838E0
3.267645637E0,-3.211455822E0,-3.100899696E0,-1.039955616E-1,4.465405077E0
3.272671210E0,-3.266677856E0,-3.021579742E0,4.267549515E-2,4.450050512E0
3.277696783E0,-3.228507996E0,-2.861506462E0,9.708619118E-2,4.315195110E0
3.282722356E0,-3.187994957E0,-2.702080727E0,9.753417969E-2,4.180199160E0
3.287747929E0,-3.159650803E0,-2.442849159E0,8.235692978E-2,3.994707483E0
3.292773502E0,-3.081560135E0,-2.079161644E0,8.362174034E-3,3.717391012E0
3.297799075E0,-2.963340282E0,-1.620711327E0,-9.568655491E-2,3.378941661E0
3.302824648E0,-2.771532536E0,-1.091482162E0,-2.629657984E-1,2.990297129E0
3.307850221E0,-2.486908674E0,-5.727806091E-1,-4.975777864E-1,2.600072313E0
3.312875794E0,-2.099759817E0,-1.027297974E-1,-7.411796451E-1,2.229101157E0
3.317901367E0,-1.648665190E0,3.332195282E-1,-1.012087822E0,1.963021630E0
3.322926939E0,-1.134080648E0,7.209081650E-1,-1.266492128E0,1.846577865E0
3.327952512E0,-6.141186357E-1,1.074864388E0,-1.556529045E0,1.988782999E0
3.332978085E0,-1.184062958E-1,1.333085060E0,-1.862687111E0,2.293630114E0
3.338003658E0,3.571243286E-1,1.562713623E0,-2.203974724E0,2.725273608E0
3.343029231E0,7.879409790E-1,1.778197765E0,-2.575432777E0,3.227335165E0
3.348054804E0,1.182984114E0,2.017882824E0,-2.914725780E0,3.737235460E0
3.353080377E0,1.551423550E0,2.262619019E0,-3.255468130E0,4.257279953E0
3.358105950E0,1.873579979E0,2.483721733E0,-3.621671438E0,4.774482128E0
3.363131523E0,2.101574421E0,2.685971737E0,-4.013447285E0,5.266765452E0
3.368157096E0,2.211548090E0,2.783308506E0,-4.325371265E0,5.598802352E0
3.373182669E0,2.189904451E0,2.794930935E0,-4.581222057E0,5.796112143E0
3.378208242E0,2.138019085E0,2.744835377E0,-4.651198864E0,5.808519409E0
3.383233814E0,2.113823414E0,2.657004833E0,-4.568189621E0,5.691773056E0
3.388259387E0,2.089105606E0,2.483663559E0,-4.293075562E0,5.381769661E0
3.393284960E0,2.121404171E0,2.239243507E0,-3.930475473E0,4.996319104E0
3.398310533E0,2.196216106E0,1.871225834E0,-3.450669050E0,4.497996021E0
3.403336106E0,1.973711014E0,1.413141251E0,-2.599848747E0,3.556925199E0
3.408361679E0,1.636325836E0,9.270505905E-1,-1.512418270E0,2.413378143E0
3.413387252E0,1.304003954E0,3.505373001E-1,-5.623298287E-1,1.462708975E0
3.418412825E0,8.288046718E-1,-2.926273346E-1,4.938578606E-2,8.803334009E-1
3.423438398E0,1.921591163E-1,-9.548034668E-1,5.475907326E-1,1.117331820E0
3.428463971E0,-6.145849228E-1,-1.468903542E0,1.199210048E0,1.993363233E0
3.433489544E0,-1.246276140E0,-1.825831413E0,1.902449369E0,2.916535302E0
3.438515117E0,-1.449629068E0,-2.021178246E0,2.612858057E0,3.607438587E0
3.443540689E0,-1.469999790E0,-2.107793808E0,3.348108292E0,4.220606977E0
3.448566262E0,-1.614568114E0,-2.124039650E0,4.245054245E0,5.013866789E0
3.453591835E0,-1.893012643E0,-2.136890411E0,5.143723965E0,5.882830418E0
3.458617408E0,-2.156892061E0,-2.189260483E0,5.826970100E0,6.587763306E0
3.463642981E0,-2.463435411E0,-2.257009506E0,6.331844330E0,7.159249860E0
3.468668554E0,-2.764350891E0,-2.296863556E0,6.714427948E0,7.615823049E0
3.473694127E0,-2.930040836E0,-2.318202019E0,6.926046371E0,7.869518298E0
3.478719700E0,-2.936669350E0,-2.239483833E0,7.013900280E0,7.926797074E0
3.483745273E0,-2.884964228E0,-2.012728691E0,7.049071312E0,7.878039207E0
3.488770846E0,-2.784659386E0,-1.771787643E0,6.945249557E0,7.689606672E0
3.493796419E0,-2.654890537E0,-1.511688232E0,6.754846573E0,7.413608925E0
3.498821992E0,-2.510076523E0,-1.265771866E0,6.406268120E0,6.995922655E0
3.503847564E0,-2.397822142E0,-9.718151093E-1,5.862196445E0,6.407754895E0
3.508873137E0,-2.346289635E0,-6.442546844E-1,5.338861942E0,5.867161664E0
3.513898710E0,-2.369135857E0,-3.214712143E-1,4.932716846E0,5.481591369E0
3.518924283E0,-2.369979858E0,-3.552436829E-3,4.476806641E0,5.065433333E0
3.523949856E0,-2.267008305E0,2.902278900E-1,3.953133345E0,4.566270045E0
3.528975429E0,-2.074479580E0,5.597753525E-1,3.396204948E0,4.018833416E0
3.534001002E0,-1.821203947E0,7.332735062E-1,2.802175522E0,3.421499891E0
3.539026575E0,-1.526411653E0,7.915925980E-1,2.181618452E0,2.777770769E0
3.544052148E0,-1.185775518E0,7.778482437E-1,1.611961126E0,2.146981635E0
3.549077721E0,-8.379005194E-1,7.398881912E-1,1.141674042E0,1.597789546E0
3.554103294E0,-4.592067003E-1,6.872758865E-1,7.327774167E-1,1.104618341E0
3.559128867E0,-5.524742603E-2,5.865840912E-1,3.807985187E-1,7.015273950E-1
3.564154439E0,3.254650235E-1,4.235630035E-1,-1.081228256E-4,5.341658087E-1
3.569180012E0,6.775827408E-1,2.509326935E-1,-3.616579175E-1,8.080111612E-1
3.574205585E0,1.067366123E0,6.398296356E-2,-5.456233621E-1,1.200445381E0
3.579231158E0,1.417684197E0,-9.896564484E-2,-5.659887195E-1,1.529694712E0
3.584256731E0,1.713356256E0,-2.856864929E-1,-5.895227194E-1,1.834323709E0
3.589282304E0,2.006346703E0,-4.721689224E-1,-5.866959691E-1,2.143031204E0
3.594307877E0,2.276973248E0,-6.440048218E-1,-5.089812875E-1,2.420415529E0
3.599333502E0,2.495762348E0,-7.723836899E-1,-3.129937053E-1,2.631230002E0
3.604359127E0,2.676486969E0,-8.237752914E-1,-7.503920794E-2,2.801395921E0
3.609384752E0,2.780637741E0,-8.364610672E-1,1.666501760E-1,2.908502303E0
3.614410377E0,2.812933683E0,-7.817335129E-1,3.209968209E-1,2.937131620E0
3.619436002E0,2.740084171E0,-7.314071655E-1,4.501300454E-1,2.871521333E0
3.624461627E0,2.562764645E0,-6.472654343E-1,5.822238922E-1,2.706603005E0
3.629487252E0,2.358235836E0,-5.341882706E-1,7.214346528E-1,2.523311579E0
3.634512877E0,2.108340740E0,-3.923263550E-1,8.096899986E-1,2.292295474E0
3.639538502E0,1.828298330E0,-2.457323074E-1,8.513514996E-1,2.031713200E0
3.644564127E0,1.566744447E0,-1.088380814E-1,8.745077848E-1,1.797581084E0
3.649589752E0,1.333880424E0,7.092189789E-2,9.454911947E-1,1.636526963E0
3.654615377E0,1.116019130E0,2.790956497E-1,1.044433594E0,1.553780748E0
3.659641002E0,9.279377460E-1,4.725999832E-1,1.065459013E0,1.489839627E0
3.664666627E0,7.841133475E-1,5.893106461E-1,1.017758131E0,1.413489438E0
3.669692252E0,6.846640110E-1,6.580352783E-1,8.962920308E-1,1.305800383E0
3.674717877E0,5.866011381E-1,6.836223602E-1,7.201616764E-1,1.153288024E0
3.679743502E0,5.282363892E-1,7.091484070E-1,5.278559923E-1,1.029833528E0
3.684769127E0,5.141730309E-1,7.489709854E-1,3.100230694E-1,9.599196561E-1
3.689794752E0,4.916067123E-1,7.695941925E-1,1.386815310E-1,9.236801112E-1
3.694820377E0,4.556518793E-1,7.518930435E-1,-1.965761185E-4,8.791824740E-1
3.699846002E0,4.444365501E-1,7.293720245E-1,-1.110129356E-1,8.612962726E-1
3.704871627E0,4.912197590E-1,7.163600922E-1,-2.363466024E-1,9.001823980E-1
3.709897252E0,5.623757839E-1,6.745481491E-1,-3.566215038E-1,9.478716289E-1
3.714922877E0,6.431846619E-1,6.230974197E-1,-4.234783649E-1,9.905911514E-1
3.719948502E0,7.285767198E-1,5.620365143E-1,-4.128143787E-1,1.008526049E0
3.724974127E0,8.232181668E-1,5.248422623E-1,-3.436151743E-1,1.034997072E0
3.729999752E0,9.461212158E-1,4.971570969E-1,-2.733672857E-1,1.103195453E0
3.735025377E0,1.101784229E0,5.124778748E-1,-2.307051420E-1,1.236845553E0
3.740051002E0,1.275555253E0,5.373296738E-1,-2.109080553E-1,1.400088065E0
3.745076627E0,1.414714575E0,5.860719681E-1,-1.757616997E-1,1.541359742E0
3.750102252E0,1.571758389E0,6.252412796E-1,-2.067432404E-1,1.704140211E0
3.755127877E0,1.737132788E0,6.739826202E-1,-2.464818954E-1,1.879530851E0
3.760153502E0,1.877347469E0,7.179517746E-1,-3.142160177E-1,2.034359845E0
3.765179127E0,2.044964314E0,7.524089813E-1,-4.196835756E-1,2.219038671E0
3.770204752E0,2.235047579E0,7.869749069E-1,-5.964932442E-1,2.443475266E0
3.775230325E0,2.404455662E0,7.929916382E-1,-8.399573565E-1,2.667540277E0
3.780255898E0,2.538843632E0,7.896184921E-1,-1.078198671E0,2.869100334E0
3.785281471E0,2.624036312E0,7.720403671E-1,-1.330220342E0,3.041561943E0
3.790307044E0,2.693507671E0,7.545957565E-1,-1.543155789E0,3.194640531E0
3.795332617E0,2.761590719E0,7.372512817E-1,-1.726397395E0,3.339217082E0
3.800358189E0,2.756613255E0,7.391128540E-1,-1.870389462E0,3.412266283E0
3.805383762E0,2.716898918E0,7.171144485E-1,-1.922601461E0,3.404730422E0
3.810409335E0,2.642533302E0,7.286481857E-1,-1.940476894E0,3.358475995E0
3.815434908E0,2.533741236E0,7.497491837E-1,-1.924247980E0,3.268745750E0
3.820460481E0,2.419352055E0,7.899684906E-1,-1.845419526E0,3.143706063E0
3.825486054E0,2.275558710E0,8.492946625E-1,-1.709068775E0,2.969913289E0
3.830511627E0,2.083585024E0,9.277019501E-1,-1.539515972E0,2.751738884E0
3.835537200E0,1.910673499E0,1.025176048E0,-1.337107062E0,2.547452541E0
3.840562773E0,1.690167069E0,1.132137299E0,-1.097446918E0,2.311447452E0
3.845588346E0,1.465440750E0,1.234230995E0,-7.730131149E-1,2.066008717E0
3.850613919E0,1.270293236E0,1.360190392E0,-4.217119217E-1,1.908298654E0
3.855639492E0,1.085519791E0,1.476562500E0,-1.490087509E-1,1.838693460E0
3.860665064E0,8.919941187E-1,1.583404064E0,9.284079075E-2,1.819736616E0
3.865690637E0,6.897490621E-1,1.671177387E0,3.373163939E-1,1.839122067E0
3.870716210E0,4.499900341E-1,1.763830662E0,5.701564550E-1,1.907529297E0
3.875741783E0,2.492760420E-1,1.823095798E0,8.010169864E-1,2.006849533E0
3.880767356E0,1.554405689E-2,1.887301922E0,1.034815073E0,2.152438709E0
3.885792929E0,-2.370742559E-1,1.922973156E0,1.286098957E0,2.325528002E0
3.890818502E0,-5.233602524E-1,1.935016155E0,1.559567928E0,2.539772745E0
3.895844075E0,-8.485225439E-1,1.890039921E0,1.793119192E0,2.739985009E0
3.900869648E0,-1.193631887E0,1.878992558E0,2.010853529E0,2.999816999E0
3.905895221E0,-1.549309731E0,1.825370312E0,2.160044193E0,3.224612897E0
3.910920794E0,-1.930029869E0,1.743629932E0,2.250131130E0,3.439236942E0
3.915946367E0,-2.369296551E0,1.672121525E0,2.261779785E0,3.677662890E0
3.920971939E0,-2.824028015E0,1.591699123E0,2.247688055E0,3.944710626E0
3.925997512E0,-3.360793591E0,1.468877792E0,2.164613724E0,4.258883434E0
3.931023085E0,-3.936093330E0,1.341959953E0,2.026725531E0,4.626154299E0
3.936048658E0,-4.549376488E0,1.182221413E0,1.766864061E0,5.021581674E0
3.941074231E0,-5.109015465E0,1.013525009E0,1.375509024E0,5.387141825E0
3.946099804E0,-5.618892193E0,8.309688568E-1,9.675279260E-1,5.761819938E0
3.951125377E0,-5.977987289E0,7.014265060E-1,5.477198362E-1,6.043866990E0
3.956150950E0,-6.277074814E0,5.482225418E-1,6.376087666E-2,6.301292060E0
3.961176523E0,-6.525349617E0,4.142866135E-1,-3.977783918E-1,6.550576209E0
3.966202096E0,-6.665083885E0,3.186397552E-1,-8.033038378E-1,6.720875802E0
3.971227669E0,-6.624538898E0,2.611455917E-1,-1.128640056E0,6.725068105E0
3.976253242E0,-6.423370838E0,2.704753876E-1,-1.388153434E0,6.577219763E0
3.981278814E0,-6.167406559E0,2.700500488E-1,-1.567479610E0,6.369208979E0
3.986304387E0,-5.852271080E0,2.838230133E-1,-1.637977004E0,6.083798235E0
3.991329960E0,-5.406639099E0,2.878551483E-1,-1.656937838E0,5.662159476E0
3.996355533E0,-4.869143486E0,3.012828827E-1,-1.605135679E0,5.135736579E0
4.001381106E0,-4.311919689E0,3.001623154E-1,-1.544525623E0,4.590022682E0
4.006406679E0,-3.730403185E0,2.988576889E-1,-1.451069355E0,4.013829358E0
4.011432252E0,-3.139132023E0,3.021535873E-1,-1.315158725E0,3.416882954E0
4.016457825E0,-2.514373302E0,3.196182251E-1,-1.179829240E0,2.795751410E0
4.021483398E0,-1.865942597E0,3.369235992E-1,-1.035609126E0,2.160496598E0
4.026508971E0,-1.251574039E0,3.015422821E-1,-8.636746407E-1,1.550257788E0
4.031534544E0,-6.332950592E-1,1.466531754E-1,-7.359788418E-1,9.819545007E-1
4.036560117E0,-2.079343796E-2,-2.327814102E-1,-6.813268661E-1,7.202956688E-1
4.041585689E0,5.378565788E-1,-9.177532196E-1,-6.279134750E-1,1.235247345E0
4.046611262E0,9.903312325E-1,-1.931857109E0,-6.281648874E-1,2.259959948E0
4.051636835E0,1.289364338E0,-3.255671501E0,-6.481542587E-1,3.561174141E0
4.056662408E0,1.535973310E0,-4.740661621E0,-6.731884480E-1,5.028545446E0
4.061687981E0,1.740517616E0,-6.185922623E0,-7.124209404E-1,6.465491773E0
4.066713554E0,1.865374088E0,-7.601194382E0,-8.133213520E-1,7.868879726E0
4.071739127E0,1.973366976E0,-8.867082596E0,-9.084623456E-1,9.129328278E0
4.076764700E0,2.165425539E0,-9.959963799E0,-9.544822574E-1,1.023723513E1
4.081790273E0,2.556392193E0,-1.066486073E1,-9.945940971E-1,1.101197588E1
4.086815846E0,3.241223335E0,-1.088650513E1,-1.144003153E0,1.141622818E1
4.091841419E0,4.126873493E0,-1.020434380E1,-1.440987349E0,1.110117839E1
4.096866992E0,4.694541931E0,-8.045244217E0,-1.943070173E0,9.515261434E0
4.101892564E0,4.890108109E0,-4.999002457E0,-2.587233305E0,7.456336838E0
4.106918137E0,4.760506630E0,-2.195231438E0,-3.099165440E0,6.089851465E0
4.111943710E0,4.510950565E0,8.425235748E-2,-3.233191729E0,5.550612778E0
4.116969283E0,4.399320602E0,1.864056110E0,-2.969259977E0,5.625409475E0
4.121994856E0,4.267189026E0,3.163996696E0,-2.331155539E0,5.801212237E0
4.127020429E0,4.095641136E0,4.099425793E0,-1.534402132E0,5.994493978E0
4.132046002E0,3.880462646E0,4.809395313E0,-7.369738817E-1,6.223455964E0
4.137071575E0,3.546114922E0,5.241375923E0,-3.886252642E-2,6.328385489E0
4.142097148E0,3.151436329E0,5.553265572E0,4.647771716E-1,6.402056487E0
4.147122721E0,2.803043842E0,5.859729290E0,7.934166193E-1,6.543927877E0
4.152148294E0,2.525907516E0,6.069704056E0,1.133471489E0,6.671302251E0
4.157173867E0,2.440257072E0,6.125817299E0,1.522224069E0,6.767396713E0
4.162199439E0,2.316690922E0,5.956516266E0,2.020410299E0,6.702924782E0
4.167225012E0,2.084245682E0,5.648169041E0,2.530372620E0,6.530595621E0
4.172250585E0,1.834583282E0,5.229657173E0,2.854493141E0,6.234030884E0
4.177276210E0,1.730745077E0,4.662895679E0,3.092361927E0,5.856686514E0
4.182301835E0,1.695964336E0,4.010327816E0,3.295970440E0,5.460993075E0
4.187327460E0,1.701276183E0,3.257828712E0,3.536380768E0,5.100370330E0
4.192353085E0,1.727153778E0,2.424794197E0,3.731534243E0,4.773576738E0
4.197378710E0,1.672733188E0,1.559299469E0,3.899971247E0,4.520976319E0
4.202404335E0,1.542753339E0,7.332344055E-1,4.031578541E0,4.378509574E0
4.207429960E0,1.423469067E0,-9.640598297E-2,4.106687069E0,4.347463281E0
4.212455585E0,1.367351055E0,-8.960456848E-1,4.081898689E0,4.397094914E0
4.217481210E0,1.345185757E0,-1.598663330E0,3.971529484E0,4.487571237E0
4.222506835E0,1.323127389E0,-2.228205681E0,3.909374952E0,4.690285616E0
4.227532460E0,1.248024702E0,-2.698596001E0,3.919293880E0,4.919436000E0
4.232558085E0,1.095443249E0,-2.962111473E0,3.914958000E0,5.030009586E0
4.237583710E0,8.604432344E-1,-2.980740547E0,3.829600811E0,4.928592004E0
4.242609335E0,5.620498061E-1,-2.826548576E0,3.687554836E0,4.680100160E0
4.247634960E0,2.148863077E-1,-2.528507233E0,3.556065798E0,4.368652986E0
4.252660585E0,-1.376662254E-1,-2.168194771E0,3.478555679E0,4.101264460E0
4.257686210E0,-4.617022276E-1,-1.784015656E0,3.411910057E0,3.877758508E0
4.262711835E0,-6.898057461E-1,-1.390436172E0,3.346673965E0,3.689088146E0
4.267737460E0,-8.791983128E-1,-9.540309906E-1,3.282664061E0,3.529737687E0
4.272763085E0,-1.020337224E0,-4.509601593E-1,3.181549549E0,3.371455272E0
4.277788710E0,-1.075001717E0,4.216003418E-2,3.038377762E0,3.223219754E0
4.282814335E0,-1.115305185E0,5.205879211E-1,2.838459015E0,3.093827245E0
4.287839960E0,-1.184744477E0,9.269914627E-1,2.657894373E0,3.054068622E0
4.292865585E0,-1.336286306E0,1.266267776E0,2.443523407E0,3.059395662E0
4.297891210E0,-1.545922041E0,1.481059074E0,2.218954563E0,3.083369957E0
4.302916835E0,-1.803616047E0,1.552244186E0,1.979607105E0,3.095373507E0
4.307942460E0,-2.051626444E0,1.532447815E0,1.764340520E0,3.109737102E0
4.312968085E0,-2.332249165E0,1.388070107E0,1.454796672E0,3.079376259E0
4.317993710E0,-2.615860939E0,1.152510643E0,1.071918011E0,3.052870363E0
4.323019335E0,-2.834635735E0,8.926448822E-1,6.464191675E-1,3.041353707E0
4.328044960E0,-2.968847275E0,5.701293945E-1,2.422903031E-1,3.032788528E0
4.333070585E0,-3.041932106E0,2.806396484E-1,-9.591194987E-2,3.056355453E0
4.338096210E0,-3.039293528E0,-9.329795837E-3,-3.670631945E-1,3.061393078E0
4.343121835E0,-2.970326662E0,-2.566890717E-1,-5.753098726E-1,3.036397736E0
4.348147460E0,-2.830134630E0,-4.662179947E-1,-7.203896642E-1,2.957360734E0
4.353173085E0,-2.571108341E0,-5.900564194E-1,-8.360325098E-1,2.767257675E0
4.358198658E0,-2.198582649E0,-6.760358810E-1,-9.276298881E-1,2.480178902E0
4.363224231E0,-1.770664454E0,-6.954183578E-1,-9.861439466E-1,2.142741044E0
4.368249804E0,-1.331315041E0,-6.864366531E-1,-1.017163515E0,1.810584611E0
4.373275377E0,-9.339115620E-1,-6.299066544E-1,-1.035670638E0,1.530224451E0
4.378300950E0,-6.172640920E-1,-5.640764236E-1,-1.023238420E0,1.321443921E0
4.383326523E0,-3.433039784E-1,-4.889173508E-1,-1.028245091E0,1.189195428E0
4.388352096E0,-8.362817764E-2,-3.948402405E-1,-1.060570240E0,1.134769457E0
4.393377669E0,1.615917087E-1,-3.248863220E-1,-1.072725058E0,1.132431919E0
4.398403242E0,3.874030113E-1,-2.646551132E-1,-1.084073186E0,1.181244299E0
4.403428814E0,5.648940802E-1,-2.284507751E-1,-1.128248453E0,1.282279084E0
4.408454387E0,6.700236797E-1,-1.683940887E-1,-1.171834946E0,1.360325491E0
4.413479960E0,7.649670839E-1,-8.450412750E-2,-1.176782608E0,1.406105577E0
4.418505533E0,7.969919443E-1,2.798652649E-2,-1.129146934E0,1.382371948E0
4.423531106E0,7.995188236E-1,1.738414764E-1,-1.062743306E0,1.341221288E0
4.428556679E0,8.349344730E-1,3.673381805E-1,-9.683750868E-1,1.330339514E0
4.433582252E0,8.793144226E-1,5.510168076E-1,-8.656550646E-1,1.351359340E0
4.438607825E0,9.181840420E-1,7.153320312E-1,-7.785683274E-1,1.400332279E0
4.443633398E0,9.371472597E-1,8.507480621E-1,-7.167359591E-1,1.454554120E0
4.448658971E0,9.122673273E-1,9.333972931E-1,-6.463483572E-1,1.456443745E0
4.453684544E0,8.867001534E-1,9.920425415E-1,-5.956090689E-1,1.457784528E0
4.458710117E0,8.698106408E-1,1.031533241E0,-5.450521708E-1,1.455236492E0
4.463735689E0,8.900896907E-1,1.004112244E0,-4.559459388E-1,1.417175979E0
4.468761262E0,8.946433663E-1,8.859958649E-1,-3.663936257E-1,1.311342714E0
4.473786835E0,8.547339439E-1,7.155933380E-1,-2.758747637E-1,1.148368767E0
4.478812408E0,7.752381563E-1,5.169076920E-1,-2.220928371E-1,9.578689834E-1
4.483837981E0,6.707718968E-1,3.138904572E-1,-8.011588454E-2,7.449031559E-1
4.488863554E0,5.847739577E-1,1.160840988E-1,9.267789125E-2,6.033450846E-1
4.493889127E0,4.888172150E-1,-9.568309784E-2,2.865622640E-1,5.746437644E-1
4.498914700E0,4.119791985E-1,-2.640666962E-1,5.010603666E-1,7.003710238E-1
4.503940273E0,4.117610455E-1,-3.652534485E-1,7.067703605E-1,8.958133637E-1
4.508965846E0,4.928530455E-1,-3.802356720E-1,8.740959764E-1,1.073092292E0
4.513991419E0,5.785211921E-1,-2.995853424E-1,1.059577465E0,1.243841851E0
4.519016992E0,5.774511695E-1,-1.760263443E-1,1.209425688E0,1.351719505E0
4.524042564E0,5.997707248E-1,-3.835201263E-2,1.284728169E0,1.418351955E0
4.529068137E0,6.262097359E-1,7.034873962E-2,1.261068106E0,1.409744780E0
4.534093710E0,6.281120777E-1,1.691999435E-1,1.123874187E0,1.298555579E0
4.539119283E0,6.245124340E-1,2.916860580E-1,9.498369098E-1,1.173578584E0
4.544144856E0,6.633620262E-1,4.616508484E-1,7.390611768E-1,1.095163050E0
4.549170429E0,7.349460721E-1,5.881595612E-1,4.869649410E-1,1.059817084E0
4.554196002E0,8.198218346E-1,6.999769211E-1,1.841675639E-1,1.093614750E0
4.559221575E0,8.843165636E-1,7.732210159E-1,-1.020202637E-1,1.179107569E0
4.564247148E0,9.187817574E-1,8.175134659E-1,-3.903913498E-1,1.290307557E0
4.569272721E0,9.185225964E-1,8.472318649E-1,-6.279495358E-1,1.398501417E0
4.574298294E0,9.171723127E-1,8.289041519E-1,-8.430809975E-1,1.496353138E0
4.579323867E0,9.052650928E-1,8.151865005E-1,-1.054635644E0,1.611300798E0
4.584349439E0,9.260113835E-1,7.725887299E-1,-1.295713186E0,1.770102565E0
4.589375012E0,9.601696730E-1,6.868305206E-1,-1.513307691E0,1.919312932E0
4.594400585E0,9.932317734E-1,6.106309891E-1,-1.716499805E0,2.075030396E0
4.599426158E0,1.058462620E0,4.914369583E-1,-1.928828239E0,2.254380575E0
4.604451731E0,1.141173005E0,3.676424026E-1,-2.121226311E0,2.436603748E0
4.609477304E0,1.202867270E0,2.106332779E-1,-2.288535118E0,2.593963961E0
4.614502877E0,1.190620065E0,4.926872253E-2,-2.444556236E0,2.719532816E0
4.619528450E0,1.118860245E0,-1.355228424E-1,-2.565053940E0,2.801734535E0
4.624554023E0,9.638892412E-1,-2.910356522E-1,-2.678186417E0,2.861200221E0
4.629579596E0,7.261319160E-1,-3.933782578E-1,-2.740631104E0,2.862354426E0
4.634605169E0,4.538453817E-1,-4.282484055E-1,-2.785642147E0,2.854675901E0
4.639630742E0,1.906425953E-1,-3.957338333E-1,-2.779493570E0,2.813989050E0
4.644656314E0,-5.355763435E-2,-3.198318481E-1,-2.722148657E0,2.741396385E0
4.649681887E0,-2.498397827E-1,-1.623754501E-1,-2.642592907E0,2.659338823E0
4.654707460E0,-4.030864239E-1,-4.762649536E-3,-2.569696903E0,2.601123512E0
4.659733033E0,-5.422320366E-1,1.195211411E-1,-2.484618425E0,2.545904477E0
4.664758606E0,-7.009212971E-1,1.770286560E-1,-2.387629986E0,2.494675682E0
4.669784179E0,-9.032363296E-1,1.726522446E-1,-2.288304806E0,2.466167786E0
4.674809752E0,-1.206382513E0,6.820392609E-2,-2.181848526E0,2.494087716E0
4.679835325E0,-1.614248991E0,-6.453609467E-2,-2.049214363E0,2.609452858E0
4.684860898E0,-2.044497013E0,-2.160739899E-1,-1.914537191E0,2.809289708E0
4.689886471E0,-2.448288441E0,-3.338871002E-1,-1.734984398E0,3.019232973E0
4.694912044E0,-2.767340422E0,-4.468498230E-1,-1.525428176E0,3.191360038E0
4.699937617E0,-2.943802357E0,-4.833707809E-1,-1.291414738E0,3.250749399E0
4.704963189E0,-3.025536299E0,-4.819116592E-1,-1.028926492E0,3.231841343E0
4.709988762E0,-2.998320818E0,-4.330930710E-1,-7.533325553E-1,3.121699421E0
4.715014335E0,-2.910412788E0,-3.705701828E-1,-5.230407119E-1,2.980167184E0
4.720039908E0,-2.795619011E0,-3.279838562E-1,-3.247553110E-1,2.833465206E0
4.725065481E0,-2.644784689E0,-3.006410599E-1,-1.928236485E-1,2.668792247E0
4.730091106E0,-2.491430283E0,-3.317108154E-1,-1.375452280E-1,2.517176118E0
4.735116731E0,-2.282909632E0,-3.638286591E-1,-1.640167236E-1,2.317530834E0
4.740142356E0,-1.995468378E0,-3.826923370E-1,-3.152644634E-1,2.056146676E0
4.745167981E0,-1.672530293E0,-3.739404678E-1,-6.003422141E-1,1.815929467E0
4.750193606E0,-1.300384283E0,-2.992143631E-1,-9.847889543E-1,1.658414244E0
4.755219231E0,-8.991800547E-1,-2.062072754E-1,-1.414856672E0,1.689042810E0
4.760244856E0,-5.322120190E-1,-2.190122604E-1,-1.932324171E0,2.016207506E0
4.765270481E0,-2.246716619E-1,-4.518909454E-1,-2.459044695E0,2.510295519E0
4.770296106E0,-5.861610174E-2,-8.611240387E-1,-2.978927374E0,3.101447848E0
4.775321731E0,-5.345666409E-2,-1.345640182E0,-3.494928837E0,3.745414889E0
4.780347356E0,-1.947314143E-1,-1.895359039E0,-3.938161850E0,4.374862851E0
4.785372981E0,-5.439102650E-1,-2.500287056E0,-4.268705845E0,4.976858781E0
4.790398606E0,-9.898186922E-1,-3.040621758E0,-4.442550659E0,5.473698756E0
4.795424231E0,-1.416755915E0,-3.492431641E0,-4.463951588E0,5.842186223E0
4.800449856E0,-1.704638720E0,-3.745849609E0,-4.347307205E0,5.986339649E0
4.805475481E0,-1.949061632E0,-3.887258530E0,-4.131139755E0,5.997994315E0
4.810501106E0,-2.173840284E0,-3.955163956E0,-3.911496162E0,5.972328334E0
4.815526731E0,-2.417177677E0,-4.098034859E0,-3.683875799E0,6.017273347E0
4.820552356E0,-2.721626759E0,-4.315995216E0,-3.405756950E0,6.134675813E0
4.825577981E0,-3.067425251E0,-4.594854355E0,-3.058654785E0,6.314835968E0
4.830603606E0,-3.406080246E0,-4.910894394E0,-2.719816208E0,6.566252097E0
4.835629231E0,-3.651104212E0,-5.168714523E0,-2.461855412E0,6.790206466E0
4.840654856E0,-3.817010641E0,-5.306444168E0,-2.318962574E0,6.935813389E0
4.845680481E0,-3.923464775E0,-5.314868927E0,-2.239336252E0,6.975387760E0
4.850706106E0,-4.028436184E0,-5.199036598E0,-2.175585508E0,6.927586300E0
4.855731731E0,-4.088903427E0,-4.858866692E0,-2.056837320E0,6.675200111E0
4.860757356E0,-4.028073311E0,-4.227885246E0,-1.884006619E0,6.135948924E0
4.865782981E0,-3.682937145E0,-3.354530334E0,-1.720561266E0,5.270410881E0
4.870808606E0,-3.101417780E0,-2.377942085E0,-1.629587889E0,4.234259970E0
4.875834231E0,-2.527719021E0,-1.484842300E0,-1.783899426E0,3.431678492E0
4.880859856E0,-2.067046165E0,-6.942243576E-1,-2.297776222E0,3.167712562E0
4.885885481E0,-1.570894361E0,2.759456635E-2,-2.906831264E0,3.304260667E0
4.890911106E0,-9.918595552E-1,7.286653519E-1,-3.633465052E0,3.836249060E0
4.895936731E0,-1.107807159E-1,1.399640083E0,-4.518570423E0,4.731674481E0
4.900962356E0,1.032209992E0,2.088647366E0,-5.741232395E0,6.195938565E0
4.905987981E0,2.023854256E0,2.599872589E0,-7.584067822E0,8.268821455E0
4.911013606E0,2.481067657E0,2.943157673E0,-9.013022423E0,9.800635031E0
4.916039179E0,2.319489479E0,3.070337772E0,-8.046359062E0,8.919131103E0
4.921064752E0,2.019820690E0,2.932955265E0,-5.774949551E0,6.784684556E0
4.926090325E0,1.569792032E0,2.597422600E0,-3.486602545E0,4.622472119E0
4.931115898E0,1.148396254E0,2.173336983E0,-1.315001965E0,2.787729858E0
4.936141471E0,9.669948816E-1,1.670075417E0,4.873507321E-1,1.990412453E0
4.941167044E0,1.192235351E0,1.173902512E0,1.836696148E0,2.484537176E0
4.946192617E0,1.649706483E0,6.708593369E-1,2.765047789E0,3.288931894E0
4.951218189E0,1.916188598E0,8.017063141E-2,3.520529270E0,4.009031356E0
4.956243762E0,1.884981275E0,-6.310176849E-1,4.174467564E0,4.623582720E0
4.961269335E0,1.693996787E0,-1.385600090E0,4.769791603E0,5.247897166E0
4.966294908E0,1.395392656E0,-2.154470444E0,5.301674366E0,5.890383234E0
4.971320481E0,9.941369295E-1,-2.923046112E0,5.832478046E0,6.599265639E0
4.976346054E0,5.671108961E-1,-3.633728981E0,6.357217789E0,7.344373294E0
4.981371627E0,1.676067114E-1,-3.942111015E0,6.952100754E0,7.993749818E0
4.986397200E0,-2.898681164E-1,-4.030262947E0,7.717039585E0,8.710897939E0
4.991422773E0,-8.949614763E-1,-4.252240181E0,8.612812996E0,9.646919213E0
4.996448346E0,-1.330737233E0,-4.349449158E0,9.413448334E0,1.045473955E1
5.001473919E0,-1.362284541E0,-4.316975594E0,9.739953041E0,1.074052060E1
5.006499492E0,-1.037709236E0,-4.207281113E0,9.477298737E0,1.042100025E1
5.011525064E0,-6.636083126E-1,-4.091953278E0,8.812463760E0,9.738787150E0
5.016550637E0,-3.647574186E-1,-3.903858185E0,8.210027695E0,9.098225731E0
5.021576210E0,-2.125453949E-1,-3.595207214E0,7.827778816E0,8.616542906E0
5.026601783E0,-1.920745373E-1,-3.137385368E0,7.636390686E0,8.257998685E0
5.031627356E0,-3.121056557E-1,-2.592737198E0,7.510760784E0,7.951806315E0
5.036652929E0,-4.763634205E-1,-1.985304832E0,7.306907654E0,7.586781719E0
5.041678502E0,-6.224651337E-1,-1.348748207E0,7.044147491E0,7.199069277E0
5.046704075E0,-6.789073944E-1,-6.305809021E-1,6.655765533E0,6.719952556E0
5.051729648E0,-5.366718769E-1,1.068725586E-1,6.023000717E0,6.047807544E0
5.056755221E0,-2.448487282E-1,8.491926193E-1,5.032187462E0,5.109206363E0
5.061780794E0,2.619240284E-1,1.486361980E0,3.340686798E0,3.665796560E0
5.066806367E0,8.767942190E-1,1.970399857E0,7.658075690E-1,2.288603271E0
5.071831939E0,1.407023549E0,2.324689388E0,-2.331590176E0,3.580531911E0
5.076857512E0,1.884884119E0,2.505504131E0,-4.379536629E0,5.386156345E0
5.081883085E0,2.213634491E0,2.517483234E0,-4.149965286E0,5.334801906E0
5.086908658E0,2.306645870E0,2.504521847E0,-2.892847061E0,4.467864028E0
5.091934231E0,2.269010067E0,2.476613522E0,-1.495092750E0,3.676591295E0
5.096959804E0,2.186843157E0,2.376807690E0,-1.834527254E-1,3.234988824E0
5.101985377E0,2.117569447E0,2.205630302E0,1.039841175E0,3.229578155E0
5.107010950E0,2.128109455E0,2.030641556E0,2.076367855E0,3.600508082E0
5.112036523E0,2.022790432E0,1.842610359E0,2.751468182E0,3.880395756E0
5.117062096E0,1.845573664E0,1.665671825E0,3.101426601E0,3.974852418E0
5.122087669E0,1.650093436E0,1.528551579E0,3.249239922E0,3.951814564E0
5.127113242E0,1.432827115E0,1.431139469E0,3.250921249E0,3.830096956E0
5.132138814E0,1.209395528E0,1.325366497E0,3.177518368E0,3.649089869E0
5.137164387E0,1.004936934E0,1.258852482E0,3.090575695E0,3.485149342E0
5.142189960E0,8.826228380E-1,1.250498295E0,3.018226147E0,3.384148066E0
5.147215533E0,8.384075165E-1,1.247475147E0,2.945635319E0,3.306945545E0
5.152241106E0,8.866857290E-1,1.297576427E0,2.891878366E0,3.291333568E0
5.157266679E0,1.065351009E0,1.372075558E0,2.885844707E0,3.368332493E0
5.162292252E0,1.306787968E0,1.485346317E0,2.923155785E0,3.529700868E0
5.167317825E0,1.653133273E0,1.608783245E0,2.985156536E0,3.772557845E0
5.172343398E0,2.055341482E0,1.771238327E0,3.019986391E0,4.059806845E0
5.177368971E0,2.455012798E0,1.982387543E0,3.047406197E0,4.386756517E0
5.182394544E0,2.836953402E0,2.204031467E0,3.044190884E0,4.708838227E0
5.187420117E0,3.195452690E0,2.484073162E0,3.035269976E0,5.059090945E0
5.192445689E0,3.515644073E0,2.755495071E0,2.964040279E0,5.360787360E0
5.197471262E0,3.768356323E0,3.013513565E0,2.845769644E0,5.601801340E0
5.202496835E0,3.963052273E0,3.229381084E0,2.690648794E0,5.777047381E0
5.207522408E0,4.047542572E0,3.412511349E0,2.561292648E0,5.881160991E0
5.212547981E0,4.060662746E0,3.534060955E0,2.405225992E0,5.896073341E0
5.217573554E0,4.113035679E0,3.589126110E0,2.165126562E0,5.872534526E0
5.222599127E0,4.128821373E0,3.615883350E0,1.821521163E0,5.782708507E0
5.227624700E0,4.123190880E0,3.623770237E0,1.445730805E0,5.676491110E0
5.232650273E0,4.049253464E0,3.607867718E0,1.132757902E0,5.540424492E0
5.237675846E0,3.969985962E0,3.577651501E0,9.489114285E-1,5.427781471E0
5.242701419E0,3.967193127E0,3.490084171E0,7.784750462E-1,5.340911179E0
5.247726992E0,4.016947269E0,3.321390629E0,6.112646461E-1,5.247965848E0
5.252752564E0,4.080697060E0,3.071836472E0,3.604551554E-1,5.120370662E0
5.257778137E0,4.134374619E0,2.746394157E0,-6.519293785E-2,4.963867894E0
5.262803710E0,4.154118538E0,2.378631115E0,-6.369764805E-1,4.829112325E0
5.267829335E0,4.125657082E0,1.973350525E0,-1.340377688E0,4.765686834E0
5.272854960E0,4.082570076E0,1.554406643E0,-2.131742954E0,4.860852442E0
5.277880585E0,4.020158768E0,1.112120628E0,-2.914684296E0,5.088602299E0
5.282906210E0,3.895236015E0,6.464185715E-1,-3.769649982E0,5.459027530E0
5.287931835E0,3.736433983E0,1.571807861E-1,-4.767064095E0,6.058922742E0
5.292957460E0,3.380972862E0,-3.701257706E-1,-5.957447529E0,6.859967321E0
5.297983085E0,2.752757549E0,-9.453372955E-1,-7.237868309E0,7.801158528E0
5.303008710E0,1.795444012E0,-1.573588371E0,-8.352424622E0,8.686932521E0
5.308034335E0,5.583730936E-1,-2.236081123E0,-8.826106071E0,9.122060496E0
5.313059960E0,-8.416913748E-1,-2.913999557E0,-8.659016609E0,9.174879096E0
5.318085585E0,-2.278339863E0,-3.617175102E0,-8.253802299E0,9.295162218E0
5.323111210E0,-3.744995832E0,-4.307502747E0,-7.807593346E0,9.671509063E0
5.328136835E0,-5.096686363E0,-4.875109673E0,-7.503170490E0,1.029759553E1
5.333162460E0,-6.103086472E0,-5.224442482E0,-7.011957645E0,1.066348975E1
5.338188085E0,-6.654409885E0,-5.283737183E0,-6.068911076E0,1.044177816E1
5.343213710E0,-6.770878792E0,-5.057516098E0,-4.663978577E0,9.652769802E0
5.348239335E0,-6.449654102E0,-4.550076485E0,-3.050354481E0,8.462026738E0
5.353264960E0,-5.741254807E0,-3.823033333E0,-1.394163966E0,7.037136050E0
5.358290585E0,-4.987836361E0,-3.009863853E0,2.527368069E-2,5.825669982E0
5.363316210E0,-4.239059925E0,-2.158149719E0,9.690526724E-1,4.854513605E0
5.368341835E0,-3.491583109E0,-1.296566010E0,1.424660325E0,3.987717777E0
5.373367460E0,-2.804018021E0,-3.630781174E-1,1.600501299E0,3.248991719E0
5.378393085E0,-2.301655769E0,6.037845612E-1,1.786214113E0,2.975354758E0
5.383418710E0,-1.965690970E0,1.555944920E0,1.979071021E0,3.193998699E0
5.388444335E0,-1.700617790E0,2.378455162E0,2.042135000E0,3.566435922E0
5.393469960E0,-1.478116512E0,3.085738182E0,1.938623905E0,3.932540044E0
5.398495585E0,-1.346410275E0,3.610956669E0,1.664930820E0,4.198073764E0
5.403521210E0,-1.305970192E0,3.853949070E0,1.260199904E0,4.259880911E0
5.408546835E0,-1.381307244E0,3.753005505E0,8.923400640E-1,4.097478592E0
5.413572460E0,-1.530127525E0,3.170008659E0,5.806660652E-1,3.567550732E0
5.418598085E0,-1.887028337E0,2.067448616E0,2.867394090E-1,2.813794451E0
5.423623710E0,-2.451536179E0,4.268321991E-1,1.478981972E-2,2.488460187E0
5.428649335E0,-3.274497032E0,-1.698781013E0,-2.094185352E-2,3.688987165E0
5.433674960E0,-4.271839142E0,-4.227790833E0,1.011834145E-1,6.011078361E0
5.438700585E0,-5.329976082E0,-6.997512817E0,2.597175241E-1,8.800072946E0
5.443726210E0,-6.359068394E0,-9.658955574E0,3.763421774E-1,1.157042813E1
5.448751835E0,-7.440896988E0,-1.216016674E1,3.442770839E-1,1.426026402E1
5.453777460E0,-8.470586777E0,-1.429150391E1,1.386942863E-1,1.661376418E1
5.458803033E0,-8.995281219E0,-1.573832226E1,-1.106228709E0,1.816132191E1
5.463828606E0,-8.799162865E0,-1.582292747E1,-3.090504646E0,1.836685928E1
5.468854179E0,-7.426176071E0,-1.368161488E1,-2.700592041E0,1.579961626E1
5.473879752E0,-5.571233749E0,-1.025904369E1,-1.350921869E0,1.175208972E1
5.478905325E0,-3.818332195E0,-6.493721962E0,1.379808187E-1,7.534396086E0
5.483930898E0,-2.146956444E0,-3.150888443E0,1.529527307E0,4.108159409E0
5.488956471E0,-5.877819061E-1,-5.693511963E-1,2.811643600E0,2.928308059E0
5.493982044E0,7.337453365E-1,1.476824760E0,3.903795958E0,4.237807979E0
5.499007617E0,2.079730511E0,3.031682491E0,4.599849701E0,5.888547783E0
5.504033189E0,3.156735420E0,4.244644165E0,4.802648067E0,7.144747096E0
5.509058762E0,3.853754044E0,5.217172623E0,4.873292923E0,8.112909115E0
5.514084335E0,4.309023380E0,5.988427162E0,4.875423431E0,8.843002658E0
5.519109908E0,4.627722740E0,6.654784679E0,4.796396732E0,9.418460517E0
5.524135481E0,4.824375153E0,7.164145470E0,4.604943275E0,9.788006870E0
5.529161054E0,4.866284370E0,7.483409405E0,4.543049812E0,1.001605918E1
5.534186627E0,4.888302803E0,7.660725117E0,4.551657677E0,1.016365098E1
5.539212200E0,4.881598473E0,7.715445995E0,4.572144032E0,1.021090650E1
5.544237773E0,4.923345089E0,7.705126286E0,4.637106895E0,1.025236842E1
5.549263346E0,4.837093830E0,7.538944721E0,4.769861698E0,1.014813997E1
5.554288919E0,4.714798927E0,7.159495354E0,4.826813221E0,9.837978884E0
5.559314492E0,4.438307762E0,6.557090282E0,4.679367065E0,9.197308568E0
5.564340064E0,4.033377647E0,5.697947979E0,4.405632019E0,8.254958504E0
5.569365637E0,3.745901823E0,4.624783039E0,4.093482971E0,7.223364968E0
5.574391210E0,3.596379280E0,3.485571384E0,3.773164988E0,6.270560248E0
5.579416783E0,3.447191000E0,2.279971123E0,3.551001549E0,5.448945413E0
5.584442356E0,3.514570475E0,1.002900124E0,3.150727272E0,4.825463358E0
5.589467929E0,3.554847717E0,-2.501974106E-1,2.655394077E0,4.444171322E0
5.594493502E0,3.640199661E0,-1.398300171E0,2.305640221E0,4.530151628E0
5.599519075E0,3.827941895E0,-2.412924767E0,2.049348354E0,4.967411172E0
5.604544648E0,4.103142262E0,-3.318088531E0,1.963072896E0,5.630199207E0
5.609570221E0,4.340641975E0,-4.051638603E0,2.061008930E0,6.285276918E0
5.614595794E0,4.611098289E0,-4.575262070E0,2.184591055E0,6.853297638E0
5.619621367E0,5.094580650E0,-4.831437111E0,2.385781527E0,7.415489873E0
5.624646939E0,5.802177429E0,-4.786235809E0,2.797318459E0,8.024855556E0
5.629672512E0,6.480848312E0,-4.611053467E0,3.460202217E0,8.673880810E0
5.634698085E0,6.887288094E0,-4.185279846E0,4.066327572E0,9.026977600E0
5.639723658E0,6.970467567E0,-3.388654709E0,4.279772758E0,8.853635056E0
5.644749231E0,6.743264198E0,-2.369395256E0,4.138809204E0,8.259260715E0
5.649774804E0,6.277144432E0,-1.338088036E0,3.562252045E0,7.340481009E0
5.654800377E0,5.597986221E0,-6.109933853E-1,2.317352772E0,6.089407731E0
5.659825950E0,4.828558445E0,-1.361408234E-1,1.038789272E0,4.940910253E0
5.664851523E0,4.087095261E0,2.770271301E-1,-2.801716328E-3,4.096474039E0
5.669877096E0,3.524521589E0,6.182489395E-1,-7.578643560E-1,3.657710017E0
5.674902669E0,3.065838575E0,8.441190720E-1,-1.215830564E0,3.404430516E0
5.679928242E0,2.669119358E0,9.832153320E-1,-1.338329315E0,3.143570564E0
5.684953814E0,2.335123539E0,1.155068398E0,-1.350468636E0,2.934408029E0
5.689979387E0,1.968729734E0,1.345228195E0,-1.305324435E0,2.718346473E0
5.695004960E0,1.546654940E0,1.453189850E0,-1.165399790E0,2.421168914E0
5.700030533E0,1.141138077E0,1.498177528E0,-9.508876801E-1,2.109720218E0
5.705056106E0,8.863931298E-1,1.480283737E0,-7.013136148E-1,1.862464365E0
5.710081679E0,6.623388529E-1,1.404508591E0,-4.371746778E-1,1.613213822E0
5.715107252E0,4.543254375E-1,1.247137070E0,-1.841733754E-1,1.340030711E0
5.720132825E0,2.569378614E-1,1.027574539E0,5.101166666E-2,1.060437970E0
5.725158398E0,6.466162205E-2,7.651910782E-1,2.187647372E-1,7.984713657E-1
5.730183971E0,-1.611487865E-1,4.935798645E-1,2.746890783E-1,5.874045487E-1
5.735209544E0,-4.399447441E-1,1.744976044E-1,2.136973888E-1,5.192950662E-1
5.740235117E0,-7.621340752E-1,-1.777296066E-1,1.032240242E-1,7.893613626E-1
5.745260689E0,-1.127472758E0,-5.010194778E-1,-5.601200461E-2,1.235051692E0
5.750286262E0,-1.511404753E0,-7.812528610E-1,-2.340564579E-1,1.717405830E0
5.755311835E0,-1.874953270E0,-1.023436546E0,-4.389470220E-1,2.180721582E0
5.760337408E0,-2.246279716E0,-1.184693336E0,-6.068983674E-1,2.611052756E0
5.765362981E0,-2.567293644E0,-1.274779320E0,-7.700177431E-1,2.967993648E0
5.770388554E0,-2.870866776E0,-1.274703026E0,-9.605324864E-1,3.284717112E0
5.775414127E0,-3.127927303E0,-1.184555054E0,-1.057564378E0,3.507925641E0
5.780439700E0,-3.366698742E0,-1.071387291E0,-1.136976004E0,3.711501796E0
5.785465273E0,-3.510364532E0,-9.399623871E-1,-1.346622586E0,3.875510396E0
5.790490898E0,-3.592371464E0,-7.519807816E-1,-1.466028810E0,3.952195377E0
5.795516523E0,-3.579567909E0,-5.121984482E-1,-1.490723372E0,3.911254254E0
5.800542148E0,-3.491615295E0,-2.875385284E-1,-1.559802651E0,3.834975891E0
5.805567773E0,-3.305351257E0,-1.113529205E-1,-1.630703688E0,3.687403005E0
5.810593398E0,-3.112479687E0,-4.087066650E-2,-1.651394367E0,3.523677563E0
5.815619023E0,-2.937514305E0,2.453708649E-2,-1.636899471E0,3.362890459E0
5.820644648E0,-2.713910103E0,7.058525085E-2,-1.554101944E0,3.128182088E0
5.825670273E0,-2.480276108E0,1.212339401E-1,-1.456082344E0,2.878652989E0
5.830695898E0,-2.265251875E0,1.716728210E-1,-1.333602428E0,2.634261386E0
5.835721523E0,-2.063923597E0,2.601413727E-1,-1.244226933E0,2.423954374E0
5.840747148E0,-1.832968712E0,3.674259186E-1,-1.159244061E0,2.199687000E0
5.845772773E0,-1.543561816E0,5.030660629E-1,-1.107067943E0,1.965008390E0
5.850798398E0,-1.152869940E0,6.814126968E-1,-1.058748007E0,1.707155442E0
5.855824023E0,-7.379126549E-1,8.977022171E-1,-9.710375071E-1,1.514363958E0
5.860849648E0,-3.090459108E-1,1.085063934E0,-9.203507900E-1,1.455994057E0
5.865875273E0,9.954059124E-2,1.238855362E0,-8.827941418E-1,1.524465950E0
5.870900898E0,4.249450564E-1,1.330548286E0,-8.439607620E-1,1.631933458E0
5.875926523E0,6.620861888E-1,1.369864464E0,-7.941454649E-1,1.716261574E0
5.880952148E0,8.490036726E-1,1.323427200E0,-7.336224914E-1,1.735070244E0
5.885977773E0,9.235495329E-1,1.210473061E0,-6.195088625E-1,1.643770057E0
5.891003398E0,8.669646978E-1,1.045379639E0,-4.712741375E-1,1.437548500E0
5.896029023E0,8.233743906E-1,8.807020187E-1,-3.229110837E-1,1.248139816E0
5.901054648E0,8.121767044E-1,7.498331070E-1,-1.844508648E-1,1.120670696E0
5.906080273E0,7.666195035E-1,5.856933594E-1,-7.068026066E-2,9.673354504E-1
5.911105898E0,7.106740475E-1,3.930482864E-1,-3.948986530E-2,8.130830257E-1
5.916131523E0,6.395700574E-1,2.244882584E-1,-3.856939077E-2,6.789200500E-1
5.921157148E0,6.010244489E-1,1.134214401E-1,-5.401235819E-2,6.140131481E-1
5.926182773E0,5.804838538E-1,6.452751160E-2,-8.615094423E-2,5.903789372E-1
5.931208398E0,5.632498860E-1,4.900360107E-2,-1.498222947E-1,5.848918764E-1
5.936234023E0,5.391805172E-1,6.206703186E-2,-2.450638413E-1,5.955033442E-1
5.941259648E0,4.553846717E-1,1.036577225E-1,-3.768635392E-1,6.001218625E-1
5.946285273E0,3.211261630E-1,1.259460449E-1,-5.497624874E-1,6.490171118E-1
5.951310898E0,1.127542257E-1,1.336917877E-1,-7.491513491E-1,7.692949716E-1
5.956336523E0,-1.597100496E-1,1.221075058E-1,-9.505015016E-1,9.715300548E-1
5.961362148E0,-4.336962700E-1,1.246891022E-1,-1.158002496E0,1.242823240E0
5.966387773E0,-7.039635181E-1,1.414146423E-1,-1.385372877E0,1.560391215E0
5.971413398E0,-9.557523727E-1,1.627140045E-1,-1.593704581E0,1.865430979E0
5.976439023E0,-1.207837224E0,1.982040405E-1,-1.796589017E0,2.173910692E0
5.981464648E0,-1.431467891E0,2.288513184E-1,-1.998007774E0,2.468503254E0
5.986490273E0,-1.683857083E0,2.834415436E-1,-2.159053564E0,2.752676167E0
5.991515846E0,-1.945528984E0,2.616014481E-1,-2.293483257E0,3.018871279E0
5.996541419E0,-2.273463964E0,1.826086044E-1,-2.381779432E0,3.297704893E0
6.001566992E0,-2.690965176E0,4.657173157E-2,-2.409299850E0,3.612227605E0
6.006592564E0,-3.115661621E0,-1.464767456E-1,-2.366441727E0,3.915207430E0
6.011618137E0,-3.517610788E0,-3.008909225E-1,-2.291504383E0,4.208932566E0
6.016643710E0,-3.771533251E0,-4.024496078E-1,-2.203819752E0,4.386712921E0
6.021669283E0,-3.848417044E0,-3.986406326E-1,-2.098758698E0,4.401592458E0
6.026694856E0,-3.781986713E0,-3.613414764E-1,-2.029195309E0,4.307159710E0
6.031720429E0,-3.544253588E0,-2.475728989E-1,-1.890418649E0,4.024513449E0
6.036746002E0,-3.246353626E0,-1.005115509E-1,-1.692878962E0,3.662615680E0
6.041771575E0,-2.979755163E0,3.186416626E-2,-1.461541176E0,3.319044858E0
6.046797148E0,-2.792562485E0,1.063594818E-1,-1.254992485E0,3.063449642E0
6.051822721E0,-2.646363497E0,1.228542328E-1,-1.098158836E0,2.867801553E0
6.056848294E0,-2.492804050E0,9.556388855E-2,-9.965913892E-1,2.686335587E0
6.061873867E0,-2.283691883E0,4.826354980E-2,-9.461888671E-1,2.472418120E0
6.066899439E0,-1.971180916E0,-2.390861511E-2,-9.759390950E-1,2.199677918E0
6.071925012E0,-1.555506945E0,-8.750629425E-2,-1.085941315E0,1.899086029E0
6.076950585E0,-1.080593228E0,-1.376867294E-1,-1.266311646E0,1.670384550E0
6.081976158E0,-5.522711277E-1,-1.647548676E-1,-1.497370481E0,1.604451908E0
6.087001731E0,-5.118966103E-3,-1.637926102E-1,-1.778598309E0,1.786131621E0
6.092027304E0,5.359655619E-1,-1.585569382E-1,-2.080669403E0,2.154433696E0
6.097052877E0,1.022126675E0,-1.392230988E-1,-2.388405085E0,2.601654254E0
6.102078450E0,1.428810239E0,-1.772623062E-1,-2.748626232E0,3.102880402E0
6.107104023E0,1.760287762E0,-3.439617157E-1,-3.140712738E0,3.616766397E0
6.112129596E0,1.901399970E0,-6.339168549E-1,-3.481556177E0,4.017263476E0
6.117155169E0,1.790336132E0,-1.022606850E0,-3.874427319E0,4.388874033E0
6.122180742E0,1.528325677E0,-1.442471504E0,-4.202229023E0,4.698428692E0
6.127206314E0,1.197473288E0,-1.893068314E0,-4.400880337E0,4.938157314E0
6.132231887E0,8.270008564E-1,-2.383586884E0,-4.425842762E0,5.094457871E0
6.137257460E0,4.033091664E-1,-2.856456757E0,-4.271504879E0,5.154392051E0
6.142283033E0,-8.247447014E-2,-3.383464813E0,-3.990226269E0,5.232259728E0
6.147308606E0,-6.820061207E-1,-3.988686562E0,-3.572692394E0,5.398044440E0
6.152334179E0,-1.331881762E0,-4.581517220E0,-3.033809423E0,5.654043569E0
6.157359752E0,-1.858744383E0,-5.076441765E0,-2.456193924E0,5.937851486E0
6.162385325E0,-2.281039238E0,-5.550729752E0,-1.827286124E0,6.273174265E0
6.167410898E0,-2.565421581E0,-6.148515701E0,-1.230867863E0,6.775003241E0
6.172436471E0,-2.788983822E0,-6.855948448E0,-6.796252131E-1,7.432654325E0
6.177462044E0,-2.928895950E0,-7.534752846E0,-1.675605774E-1,8.085728692E0
6.182487617E0,-2.958061218E0,-7.998847961E0,1.820062399E-1,8.530229842E0
6.187513189E0,-2.854076862E0,-8.004743576E0,2.803676128E-1,8.502957159E0
6.192538762E0,-2.756581783E0,-7.514670372E0,6.924140453E-2,8.004611690E0
6.197564335E0,-2.541147709E0,-6.533758163E0,-3.352617621E-1,7.018534595E0
6.202589908E0,-2.130782366E0,-5.263157845E0,-7.776359916E-1,5.731123949E0
6.207615481E0,-1.620806098E0,-3.965948105E0,-1.317526340E0,4.482369065E0
6.212641054E0,-1.068455815E0,-2.732725143E0,-1.904461861E0,3.498050817E0
6.217666627E0,-5.404188633E-1,-1.572803497E0,-2.412189484E0,2.929918343E0
6.222692200E0,-4.102361202E-2,-5.003728867E-1,-2.815512657E0,2.859924385E0
6.227717773E0,4.637076259E-1,4.798631668E-1,-3.266744375E0,3.334203388E0
6.232743346E0,1.021963716E0,1.353615761E0,-3.827290058E0,4.186267389E0
6.237768919E0,1.547702909E0,2.159255981E0,-4.495985031E0,5.222226736E0
6.242794492E0,1.912369609E0,2.829839230E0,-5.208962440E0,6.228839161E0
6.247820064E0,2.145639420E0,3.293662071E0,-5.906611443E0,7.095071324E0
6.252845637E0,2.324717999E0,3.703815937E0,-6.304511547E0,7.672641795E0
6.257871210E0,2.550561190E0,4.069547176E0,-6.114774227E0,7.775412558E0
6.262896783E0,2.469238758E0,4.208683014E0,-5.510646343E0,7.360528234E0
6.267922356E0,2.076809883E0,4.077819347E0,-4.532855034E0,6.441158644E0
6.272947929E0,1.904542565E0,3.825026035E0,-3.380863905E0,5.448701432E0
6.277973502E0,1.965666771E0,3.474125862E0,-1.982342601E0,4.456801381E0
6.282999075E0,2.171957970E0,3.030190945E0,-6.426172256E-1,3.783175317E0
6.288024648E0,2.033846378E0,2.331089973E0,5.539088249E-1,3.142821430E0
6.293050221E0,1.694545150E0,1.430109978E0,1.743853807E0,2.820943799E0
6.298075794E0,1.326209664E0,3.852472305E-1,2.744176626E0,3.072092586E0
6.303101367E0,8.381909132E-1,-6.643753052E-1,3.722246647E0,3.872864399E0
6.308126992E0,3.123264313E-1,-1.680304527E0,4.773807526E0,5.070523582E0
6.313152617E0,-1.885732412E-1,-2.657728195E0,5.650616646E0,6.247283210E0
6.318178242E0,-6.878930330E-1,-3.539282799E0,6.434824467E0,7.376088765E0
6.323203867E0,-9.747490883E-1,-4.238984108E0,7.093413353E0,8.320795338E0
6.328229492E0,-6.814756393E-1,-4.560828209E0,7.559949398E0,8.855416303E0
6.333255117E0,-1.587469578E-1,-4.691516876E0,7.806065559E0,9.108797435E0
6.338280742E0,3.052930832E-1,-4.693088531E0,7.951249123E0,9.238000132E0
6.343306367E0,7.341989279E-1,-4.565327644E0,8.066389084E0,9.297736145E0
6.348331992E0,1.051104903E0,-4.360532761E0,8.274404526E0,9.411951855E0
6.353357617E0,1.232048273E0,-3.973206520E0,8.306364059E0,9.289779162E0
6.358383242E0,1.315762758E0,-3.417716980E0,8.214455605E0,8.993848001E0
6.363408867E0,1.321799755E0,-2.765866280E0,8.137138367E0,8.695412105E0
6.368434492E0,1.294016838E0,-2.084711075E0,7.925718307E0,8.296837381E0
6.373460117E0,1.223651290E0,-1.307420731E0,7.613742828E0,7.821492908E0
6.378485742E0,1.044152141E0,-4.677467346E-1,7.211568832E0,7.301764562E0
6.383511367E0,8.370405436E-1,3.240699768E-1,6.772832870E0,6.832051179E0
6.388536992E0,5.975321531E-1,9.818677902E-1,6.327055454E0,6.430609594E0
6.393562617E0,2.346370220E-1,1.544080257E0,5.773895264E0,5.981396567E0
6.398588242E0,-7.968974113E-2,1.986945152E0,5.003642082E0,5.384304559E0
6.403613867E0,-3.652632236E-1,2.267568111E0,4.127341270E0,4.723370441E0
6.408639492E0,-6.034975052E-1,2.424313068E0,3.108083248E0,3.987691634E0
6.413665117E0,-6.848988533E-1,2.409296513E0,1.924078345E0,3.158460638E0
6.418690742E0,-6.436648369E-1,2.275051594E0,5.879006982E-1,2.436347965E0
6.423716367E0,-4.949598312E-1,2.064445496E0,-8.344308138E-1,2.281051341E0
6.428741992E0,-3.015513420E-1,1.796327591E0,-2.071063519E0,2.758084503E0
6.433767617E0,-1.161315441E-1,1.537412167E0,-2.650802612E0,3.066574179E0
6.438793242E0,7.576823235E-2,1.254134655E0,-2.549818516E0,2.842563811E0
6.443818867E0,3.124289513E-1,9.658088684E-1,-2.066392183E0,2.302254390E0
6.448844492E0,5.270795822E-1,7.204751968E-1,-1.461166978E0,1.712281032E0
6.453870117E0,7.440855503E-1,4.992141724E-1,-7.178872824E-1,1.148146439E0
6.458895742E0,9.401185513E-1,3.356704712E-1,1.080675125E-1,1.004079749E0
6.463921367E0,1.139625669E0,2.682409286E-1,9.137756824E-1,1.485155163E0
6.468946992E0,1.314448118E0,2.587156296E-1,1.658903360E0,2.132291723E0
6.473972617E0,1.498201609E0,2.928962708E-1,2.299037218E0,2.759704407E0
6.478998242E0,1.710052371E0,3.995876312E-1,2.838120461E0,3.337495638E0
6.484023867E0,1.964089036E0,5.884180069E-1,3.295030355E0,3.880864148E0
6.489049492E0,2.254907846E0,8.260354996E-1,3.598004341E0,4.325803888E0
6.494075117E0,2.529283762E0,1.088634491E0,3.737882853E0,4.642646834E0
6.499100742E0,2.762809992E0,1.361938000E0,3.744004250E0,4.848253499E0
6.504126367E0,2.950450420E0,1.669830322E0,3.665058136E0,4.992608750E0
6.509151992E0,3.106319904E0,1.978743553E0,3.549833536E0,5.115268080E0
6.514177564E0,3.239927292E0,2.307679653E0,3.413676023E0,5.241726646E0
6.519203137E0,3.360558748E0,2.618304253E0,3.286241055E0,5.380358030E0
6.524228710E0,3.477572441E0,2.910583496E0,3.115730286E0,5.502070663E0
6.529254283E0,3.581471205E0,3.174839497E0,2.926822186E0,5.610065055E0
6.534279856E0,3.686501980E0,3.391943455E0,2.715220213E0,5.698069678E0
6.539305429E0,3.763979197E0,3.557109833E0,2.524341106E0,5.761325175E0
6.544331002E0,3.809385061E0,3.665497780E0,2.316130400E0,5.771633092E0
6.549356575E0,3.813442230E0,3.702715874E0,2.090743303E0,5.711712006E0
6.554382148E0,3.790882111E0,3.673537254E0,1.828867197E0,5.586628532E0
6.559407721E0,3.723091125E0,3.573084831E0,1.554491997E0,5.389321674E0
6.564433294E0,3.658448935E0,3.415648937E0,1.291331530E0,5.168988623E0
6.569458867E0,3.597323656E0,3.229920864E0,1.134590626E0,4.965926113E0
6.574484439E0,3.540163040E0,3.025437355E0,1.093037724E0,4.783383427E0
6.579510012E0,3.472758532E0,2.802246094E0,1.146801829E0,4.607362524E0
6.584535585E0,3.395124435E0,2.589159489E0,1.213680506E0,4.438877917E0
6.589561158E0,3.264235973E0,2.376684666E0,1.221187830E0,4.218431724E0
6.594586731E0,3.104259491E0,2.179171085E0,1.130533099E0,3.957691081E0
6.599612304E0,2.982361317E0,1.963113785E0,9.461730123E-1,3.693716032E0
6.604637877E0,2.898599863E0,1.728534698E0,5.817222595E-1,3.424633434E0
6.609663450E0,2.824276209E0,1.465881824E0,1.805806160E-2,3.182086064E0
6.614689023E0,2.768912792E0,1.179941177E0,-7.014257908E-1,3.090491445E0
6.619714596E0,2.698939323E0,8.706798553E-1,-1.561767459E0,3.237510537E0
6.624740169E0,2.614370823E0,5.619182587E-1,-2.490211010E0,3.654016667E0
6.629765742E0,2.452967644E0,2.487487793E-1,-3.447272301E0,4.238232241E0
6.634791314E0,2.243593693E0,-1.072683334E-1,-4.455384254E0,4.989555893E0
6.639816887E0,1.928892374E0,-4.583950043E-1,-5.446031570E0,5.795689056E0
6.644842460E0,1.499689579E0,-8.287534714E-1,-6.288598061E0,6.517849854E0
6.649868033E0,8.894881010E-1,-1.266283989E0,-6.968011856E0,7.137776506E0
6.654893606E0,6.095027924E-2,-1.685014725E0,-7.421732426E0,7.610854207E0
6.659919179E0,-9.223515987E-1,-2.070874214E0,-7.769474030E0,8.093452859E0
6.664944752E0,-2.016164780E0,-2.424090385E0,-8.198059082E0,8.783467842E0
6.669970325E0,-3.223545074E0,-2.745001793E0,-8.669549942E0,9.648179822E0
6.674995898E0,-4.418446541E0,-3.014772415E0,-8.897777557E0,1.038180948E1
6.680021471E0,-5.542327404E0,-3.310100555E0,-8.535194397E0,1.070157475E1
6.685047044E0,-6.450839520E0,-3.607069969E0,-7.397869110E0,1.045718660E1
6.690072617E0,-7.196225643E0,-3.939094543E0,-5.498434067E0,9.875976231E0
6.695098189E0,-7.625713825E0,-4.200753212E0,-3.317812204E0,9.316958555E0
6.700123762E0,-7.664237022E0,-4.272302628E0,-1.292301416E0,8.869224421E0
6.705149335E0,-7.490703106E0,-4.105854034E0,3.485297561E-1,8.549277359E0
6.710174908E0,-7.159521580E0,-3.672775269E0,1.381000757E0,8.164263011E0
6.715200481E0,-6.591580391E0,-2.925219536E0,1.744419575E0,7.419490618E0
6.720226054E0,-5.770617485E0,-1.915654182E0,1.569652081E0,6.279615017E0
6.725251627E0,-4.776362419E0,-7.298116684E-1,1.044736147E0,4.943453919E0
6.730277200E0,-3.808306217E0,5.611715317E-1,5.009201765E-1,3.881884949E0
6.735302773E0,-2.931445599E0,1.838395119E0,2.210230231E-1,3.467264208E0
6.740328346E0,-2.286935091E0,2.930419922E0,1.529424787E-1,3.720325850E0
6.745353919E0,-1.952124357E0,3.799516678E0,2.445541620E-1,4.278659046E0
6.750379492E0,-1.821594477E0,4.350323200E0,4.340659380E-1,4.736236018E0
6.755405064E0,-1.885051489E0,4.626042843E0,6.073169708E-1,5.032149183E0
6.760430637E0,-2.241626978E0,4.507016659E0,6.169039607E-1,5.071356936E0
6.765456210E0,-2.750008583E0,3.954718590E0,5.497002006E-1,4.848145691E0
6.770481783E0,-3.368942738E0,2.901837349E0,4.782129526E-1,4.472037880E0
6.775507356E0,-3.880026102E0,1.209359169E0,4.417400062E-1,4.088066338E0
6.780532929E0,-4.232468605E0,-1.151482582E0,4.886816740E-1,4.413446772E0
6.785558502E0,-4.418883324E0,-4.285776138E0,5.904082060E-1,6.184091589E0
6.790584075E0,-4.527357101E0,-7.848944664E0,6.611022949E-1,9.085150021E0
6.795609648E0,-4.960401058E0,-1.134882832E1,9.882033467E-1,1.242489552E1
6.800635221E0,-5.305421829E0,-1.376335239E1,1.351568460E0,1.481229581E1
6.805660794E0,-4.855530739E0,-1.538147926E1,1.571618080E0,1.620605030E1
6.810686419E0,-3.644717693E0,-1.656723595E1,1.647435665E0,1.704321913E1
6.815712044E0,-1.982751846E0,-1.708065033E1,1.709985256E0,1.728016117E1
6.820737669E0,-1.100931168E-1,-1.647561073E1,1.626577735E0,1.655607516E1
6.825763294E0,1.602968216E0,-1.345060158E1,1.406996489E0,1.361865739E1
6.830788919E0,2.678500175E0,-8.701158524E0,1.488119364E0,9.224913121E0
6.835814544E0,3.305995226E0,-4.477216721E0,1.655101776E0,5.806413341E0
6.840840169E0,3.623694181E0,-1.519980431E0,1.675904751E0,4.272020220E0
6.845865794E0,3.927966356E0,6.402559280E-1,1.657765985E0,4.311268422E0
6.850891419E0,4.175971031E0,2.472763538E0,1.691018581E0,5.139342119E0
6.855917044E0,4.439474106E0,3.915763855E0,1.714649081E0,6.162966686E0
6.860942669E0,4.608662605E0,4.969821930E0,1.752051234E0,7.000613155E0
6.865968294E0,4.654989243E0,5.764691353E0,1.936185002E0,7.658289862E0
6.870993919E0,4.655078888E0,6.496920109E0,2.375923634E0,8.338149883E0
6.876019544E0,4.723763466E0,7.071070671E0,2.945524216E0,8.999449684E0
6.881045169E0,5.018224716E0,7.430252552E0,3.346911430E0,9.570425717E0
6.886070794E0,5.260329247E0,7.689724922E0,3.326138020E0,9.892731033E0
6.891096419E0,5.540362358E0,8.012415886E0,3.189863682E0,1.025034895E1
6.896122044E0,5.829053879E0,8.336246490E0,3.129487038E0,1.064258257E1
6.901147669E0,6.082887650E0,8.517894745E0,3.130406141E0,1.092499408E1
6.906173294E0,6.034294128E0,8.404432297E0,3.168636799E0,1.082069531E1
6.911198919E0,5.689577103E0,7.948036194E0,2.995692253E0,1.022334285E1
6.916224544E0,5.309233665E0,7.181985855E0,2.483859777E0,9.270298934E0
6.921250169E0,4.919276237E0,6.115553856E0,1.922037125E0,8.080439615E0
6.926275794E0,4.483683109E0,4.810556412E0,1.360237956E0,6.715289607E0
6.931301419E0,4.204893589E0,3.443743229E0,8.769698143E-1,5.505413116E0
6.936327044E0,4.098248482E0,2.110471725E0,5.212954283E-1,4.639124966E0
6.941352669E0,4.273965836E0,7.244596481E-1,2.845267653E-1,4.344258421E0
6.946378294E0,4.606903076E0,-6.854267120E-1,1.237846911E-1,4.659258351E0
6.951403919E0,4.966798782E0,-2.018486023E0,1.104033589E-1,5.362421549E0
6.956429544E0,5.304329872E0,-3.221811295E0,3.056449890E-1,6.213646455E0
6.961455169E0,5.636973381E0,-4.385929108E0,6.503379345E-1,7.171804687E0
6.966480794E0,5.905731678E0,-5.309491158E0,1.056036949E0,8.011465349E0
6.971506419E0,6.247517109E0,-5.882134438E0,1.577497959E0,8.724647579E0
6.976532044E0,6.588288307E0,-6.065203667E0,2.278653622E0,9.240373405E0
6.981557669E0,6.862586021E0,-5.743091583E0,3.694955111E0,9.681471020E0
6.986583294E0,6.722609520E0,-4.867083549E0,4.575744629E0,9.477310797E0
6.991608919E0,5.742403030E0,-3.719663620E0,4.221365929E0,8.039342032E0
6.996634544E0,4.360810757E0,-2.727752686E0,3.476185083E0,6.208153341E0
7.001660169E0,3.084752560E0,-1.911827087E0,2.711723804E0,4.530367221E0
7.006685794E0,2.056847334E0,-1.249193192E0,2.084130764E0,3.183505242E0
7.011711419E0,1.360797167E0,-6.449680328E-1,1.614967585E0,2.208137901E0
7.016737044E0,9.498730898E-1,-1.330928802E-1,1.325206876E0,1.635892987E0
7.021762617E0,6.761935949E-1,2.719545364E-1,1.125088215E0,1.340529947E0
7.026788189E0,5.683950186E-1,5.606870651E-1,9.915950894E-1,1.273068617E0
7.031813762E0,5.826951265E-1,8.099069595E-1,8.916467428E-1,1.338101942E0
7.036839335E0,6.654295921E-1,1.010327339E0,8.255231977E-1,1.464597700E0
7.041864908E0,7.150102854E-1,1.167040825E0,7.552842498E-1,1.563226885E0
7.046890481E0,7.302941084E-1,1.237336159E0,7.383663654E-1,1.615399376E0
7.051916054E0,6.863321066E-1,1.250249863E0,7.555912733E-1,1.614030561E0
7.056941627E0,5.441219807E-1,1.186896324E0,7.969472408E-1,1.529678567E0
7.061967200E0,3.177807331E-1,1.061772346E0,8.619500399E-1,1.404030976E0
7.066992773E0,-3.077769279E-2,9.036054611E-1,8.398611546E-1,1.234024657E0
7.072018346E0,-5.008687973E-1,7.266368866E-1,7.206941843E-1,1.139416879E0
7.077043919E0,-1.033866525E0,5.832433701E-1,5.805796981E-1,1.321410461E0
7.082069492E0,-1.580537558E0,4.539632797E-1,4.384512305E-1,1.701887514E0
7.087095064E0,-2.086882830E0,3.337240219E-1,2.990918159E-1,2.134457210E0
7.092120637E0,-2.527721405E0,2.318391800E-1,1.435613334E-1,2.542387611E0
7.097146210E0,-2.873481035E0,1.337890625E-1,-5.646539852E-2,2.877148087E0
7.102171783E0,-3.109337330E0,9.210872650E-2,-2.765166163E-1,3.122967193E0
7.107197356E0,-3.268460512E0,1.484870911E-3,-4.967289567E-1,3.305990923E0
7.112222929E0,-3.317180157E0,-9.975147247E-2,-7.211729288E-1,3.396133823E0
7.117248502E0,-3.260221958E0,-2.402505875E-1,-9.443566799E-1,3.402730830E0
7.122274075E0,-3.116956949E0,-4.103069305E-1,-1.165551305E0,3.352951274E0
7.127299648E0,-2.925969601E0,-5.858697891E-1,-1.369883418E0,3.283461907E0
7.132325221E0,-2.735721111E0,-7.715587616E-1,-1.561701536E0,3.243205915E0
7.137350794E0,-2.551374912E0,-9.385490417E-1,-1.735939503E0,3.225503713E0
7.142376367E0,-2.292274714E0,-1.072368622E0,-1.887677431E0,3.157186074E0
7.147401939E0,-2.011837959E0,-1.177694321E0,-2.002643108E0,3.073277616E0
7.152427512E0,-1.772891879E0,-1.235322952E0,-2.138613224E0,3.040203107E0
7.157453085E0,-1.585543871E0,-1.230875969E0,-2.248226166E0,3.013888835E0
7.162478658E0,-1.440609813E0,-1.164367676E0,-2.269785881E0,2.929682007E0
7.167504231E0,-1.285721779E0,-9.784612656E-1,-2.256599426E0,2.775375274E0
7.172529804E0,-1.140321851E0,-7.163391113E-1,-2.199954033E0,2.579393997E0
7.177555377E0,-1.014198184E0,-4.067802429E-1,-2.081277132E0,2.350698327E0
7.182580950E0,-8.981622458E-1,-4.502010345E-2,-1.977491617E0,2.172370900E0
7.187606523E0,-8.019025326E-1,3.449954987E-1,-1.907574654E0,2.097834747E0
7.192632096E0,-6.776058674E-1,7.297925949E-1,-1.890082598E0,2.136389283E0
7.197657669E0,-5.874434710E-1,1.075934410E0,-1.828794360E0,2.201638821E0
7.202683242E0,-5.027151108E-1,1.383520126E0,-1.727987289E0,2.269975880E0
7.207708814E0,-3.851764202E-1,1.652643681E0,-1.587243557E0,2.323560655E0
7.212734387E0,-3.496124744E-1,1.802087307E0,-1.420559049E0,2.321149619E0
7.217759960E0,-4.530513287E-1,1.875010967E0,-1.175343752E0,2.258839208E0
7.222785533E0,-5.132597685E-1,1.871469975E0,-8.755676746E-1,2.128956131E0
7.227811106E0,-5.160194635E-1,1.777194500E0,-5.935066342E-1,1.943436776E0
7.232836679E0,-5.187700987E-1,1.644839764E0,-3.060709834E-1,1.751656276E0
7.237862252E0,-5.314493179E-1,1.436185837E0,-2.373486757E-2,1.531545455E0
7.242887825E0,-5.686285496E-1,1.165644646E0,2.813290358E-1,1.327106587E0
7.247913398E0,-5.780047178E-1,8.810997009E-1,5.986638069E-1,1.211950696E0
7.252938971E0,-6.461317539E-1,6.064596176E-1,9.702813029E-1,1.314049207E0
7.257964544E0,-8.304197788E-1,3.607730865E-1,1.323574901E0,1.603622383E0
7.262990117E0,-9.871931076E-1,1.869554520E-1,1.437949896E0,1.754195678E0
7.268015689E0,-9.922133684E-1,-5.967140198E-3,1.356763601E0,1.680871930E0
7.273041262E0,-1.060849905E0,-1.032190323E-1,1.233490705E0,1.630201218E0
7.278066835E0,-1.183123708E0,-1.384429932E-1,1.068664312E0,1.600309840E0
7.283092408E0,-1.363093495E0,-1.644182205E-1,8.485346437E-1,1.614022388E0
7.288117981E0,-1.499537349E0,-1.573085785E-1,5.835448503E-1,1.616750705E0
7.293143554E0,-1.582319617E0,-9.329128265E-2,2.840088606E-1,1.610310426E0
7.298169127E0,-1.596771121E0,3.637313843E-3,-3.034770489E-2,1.597063626E0
7.303194752E0,-1.528548002E0,9.520244598E-2,-3.638934493E-1,1.574147688E0
7.308220377E0,-1.416288376E0,1.718854904E-1,-6.879323125E-1,1.583877600E0
7.313246002E0,-1.265017629E0,2.337093353E-1,-1.031337380E0,1.648801518E0
7.318271627E0,-1.118264794E0,3.094358444E-1,-1.379870415E0,1.802861352E0
7.323297252E0,-1.009647727E0,3.512468338E-1,-1.771698952E0,2.069222087E0
7.328322877E0,-9.011313915E-1,3.831968307E-1,-2.168071032E0,2.378951364E0
7.333348502E0,-7.737524509E-1,3.815164566E-1,-2.568273306E0,2.709294269E0
7.338374127E0,-6.468458176E-1,4.085655212E-1,-2.895079136E0,2.994464643E0
7.343399752E0,-5.396977663E-1,4.070825577E-1,-3.181272507E0,3.252304514E0
7.348425377E0,-4.476783276E-1,3.581161499E-1,-3.416784763E0,3.464546317E0
7.353451002E0,-4.042625427E-1,2.905111313E-1,-3.586970329E0,3.621350724E0
7.358476627E0,-3.808472157E-1,2.235136032E-1,-3.691684246E0,3.718001547E0
7.363502252E0,-3.821731806E-1,1.523551941E-1,-3.707152605E0,3.729912718E0
7.368527877E0,-4.131358862E-1,8.193302155E-2,-3.618799210E0,3.643226866E0
7.373553502E0,-4.925740957E-1,3.139877319E-2,-3.426519394E0,3.461885365E0
7.378579127E0,-5.961451530E-1,-2.320861816E-2,-3.173394680E0,3.228987686E0
7.383604752E0,-6.803526878E-1,-8.189582825E-2,-2.854526520E0,2.935627422E0
7.388630377E0,-7.208086252E-1,-1.590938568E-1,-2.465360165E0,2.573495030E0
7.393656002E0,-7.124562263E-1,-2.309474945E-1,-2.010991096E0,2.145930057E0
7.398681627E0,-6.456471682E-1,-3.214731216E-1,-1.496757627E0,1.661471825E0
7.403707252E0,-5.154075623E-1,-4.499320984E-1,-9.377456307E-1,1.160797448E0
7.408732877E0,-3.171774149E-1,-6.116704941E-1,-3.829525709E-1,7.882861012E-1
7.413758502E0,-8.486413956E-2,-7.829036713E-1,1.424565315E-1,8.002711691E-1
7.418784127E0,1.903111935E-1,-9.780988693E-1,6.180006266E-1,1.172527408E0
7.423809752E0,5.265978575E-1,-1.130354881E0,1.037801504E0,1.622356133E0
7.428835377E0,8.846062422E-1,-1.354521751E0,1.343571782E0,2.102960416E0
7.433861002E0,1.148620486E0,-1.865663528E0,1.520738363E0,2.666959803E0
7.438886627E0,1.179617405E0,-2.577248573E0,1.603177309E0,3.256360686E0
7.443912252E0,1.049902916E0,-3.307288170E0,1.581883073E0,3.813503013E0
7.448937877E0,8.555471897E-1,-4.055706024E0,1.577163696E0,4.434879668E0
7.453963502E0,6.019061804E-1,-4.760292053E0,1.623113632E0,5.065290648E0
7.458989127E0,2.513056993E-1,-5.521432877E0,1.701553106E0,5.783135701E0
7.464014752E0,-1.188571453E-1,-6.238569260E0,1.789470792E0,6.491230942E0
7.469040377E0,-3.931175470E-1,-6.734728813E0,1.859016538E0,6.997646467E0
7.474066002E0,-5.426133871E-1,-6.933634758E0,1.877092242E0,7.203693187E0
7.479091627E0,-6.296262741E-1,-6.964823723E0,1.843529105E0,7.232136496E0
7.484117252E0,-7.830435038E-1,-6.929064751E0,1.695764542E0,7.176399712E0
7.489142877E0,-1.002249837E0,-6.884020805E0,1.414188266E0,7.098885521E0
7.494168502E0,-1.286551833E0,-6.858560562E0,1.017669439E0,7.052001113E0
7.499194127E0,-1.582341433E0,-6.776249886E0,6.020016670E-1,6.984538133E0
7.504219752E0,-1.764484644E0,-6.565438271E0,1.818857193E-1,6.800843195E0
7.509245377E0,-1.823424101E0,-6.240599632E0,-2.950875759E-1,6.508228323E0
7.514271002E0,-1.773843169E0,-5.787325859E0,-8.137280941E-1,6.107521068E0
7.519296575E0,-1.611809969E0,-5.152893066E0,-1.363611460E0,5.568633095E0
7.524322148E0,-1.219025373E0,-4.289326668E0,-1.986724854E0,4.881743722E0
7.529347721E0,-6.882368326E-1,-3.287368774E0,-2.600792646E0,4.247891923E0
7.534373294E0,-3.509495258E-1,-2.362104416E0,-3.229218245E0,4.016286010E0
7.539398867E0,-2.741225958E-1,-1.594571114E0,-3.804460049E0,4.134212923E0
7.544424439E0,-3.274554014E-1,-9.701833725E-1,-4.287672997E0,4.408244837E0
7.549450012E0,-3.710101843E-1,-4.600105286E-1,-4.682888031E0,4.720031626E0
7.554475585E0,-3.367455006E-1,-3.999233246E-2,-4.999057770E0,5.010546428E0
7.559501158E0,-2.142997980E-1,3.426542282E-1,-5.287941933E0,5.303363669E0
7.564526731E0,3.472626209E-2,6.306533813E-1,-5.510574341E0,5.546652970E0
7.569552304E0,3.427609205E-1,8.768138885E-1,-5.585157871E0,5.663945276E0
7.574577877E0,6.277128458E-1,1.066814423E0,-5.530945301E0,5.667757259E0
7.579603450E0,8.507608175E-1,1.195820808E0,-5.329178333E0,5.527560319E0
7.584629023E0,9.444960952E-1,1.292345047E0,-5.019097328E0,5.268165391E0
7.589654596E0,9.518994093E-1,1.337006569E0,-4.639886379E0,4.921609967E0
7.594680169E0,8.539768457E-1,1.329520226E0,-4.192625523E0,4.480514396E0
7.599705742E0,6.512259245E-1,1.231318474E0,-3.673679352E0,3.928887930E0
7.604731314E0,4.063988924E-1,1.061256409E0,-3.098751545E0,3.300558492E0
7.609756887E0,2.014749646E-1,8.525085449E-1,-2.584151745E0,2.728589969E0
7.614782460E0,2.688157558E-2,5.857343674E-1,-2.135979891E0,2.214998298E0
7.619808033E0,-1.604480743E-1,2.751569748E-1,-1.745927691E0,1.774744615E0
7.624833606E0,-3.509669304E-1,-1.031818390E-1,-1.457969427E0,1.503163041E0
7.629859179E0,-5.543060303E-1,-5.492238998E-1,-1.220039845E0,1.448240066E0
7.634884752E0,-8.040388823E-1,-1.024628639E0,-1.080615163E0,1.692356789E0
7.639910325E0,-1.028493404E0,-1.505399704E0,-1.025648236E0,2.091884618E0
7.644935898E0,-1.227922201E0,-1.962736130E0,-9.976578355E-1,2.521001230E0
7.649961471E0,-1.445496202E0,-2.343971252E0,-1.001340866E0,2.930246411E0
7.654987044E0,-1.633614302E0,-2.644305229E0,-9.647131562E-1,3.254491866E0
7.660012617E0,-1.773075700E0,-2.825521469E0,-8.015607595E-1,3.430724218E0
7.665038189E0,-1.911743283E0,-2.892487526E0,-5.357077122E-1,3.508308598E0
7.670063762E0,-2.006457329E0,-2.835743904E0,-1.671664715E-1,3.477823907E0
7.675089335E0,-2.190973282E0,-2.674552917E0,1.559119523E-1,3.460911118E0
7.680114908E0,-2.244878769E0,-2.389908791E0,2.189486921E-1,3.286195862E0
7.685140481E0,-2.182439566E0,-1.986742973E0,2.336516827E-1,2.960537655E0
7.690166054E0,-2.304462910E0,-1.556148529E0,3.112747669E-1,2.798042088E0
7.695191627E0,-2.327783108E0,-1.050473213E0,5.005421638E-1,2.602423990E0
7.700217200E0,-2.137041569E0,-5.608491898E-1,9.119619131E-1,2.390224469E0
7.705242773E0,-1.708340883E0,-1.065044403E-1,1.688823819E0,2.404557685E0
7.710268346E0,-1.171131253E0,3.316564560E-1,2.715259790E0,2.975597444E0
7.715293919E0,-5.927710533E-1,8.636331558E-1,3.416257143E0,3.573241192E0
7.720319492E0,7.063984871E-3,1.336301804E0,3.700988293E0,3.934852825E0
7.725345064E0,5.940697193E-1,1.749840260E0,3.918713808E0,4.332571716E0
7.730370637E0,1.114872575E0,2.085325718E0,4.188312054E0,4.809727858E0
7.735396210E0,1.563955188E0,2.323928833E0,4.360249043E0,5.182506417E0
7.740421783E0,1.926304102E0,2.466002464E0,4.380990505E0,5.383762017E0
7.745447356E0,2.148975372E0,2.492741585E0,4.292813301E0,5.409260744E0
7.750472929E0,2.251074553E0,2.399671555E0,4.142985344E0,5.290565922E0
7.755498502E0,2.142092705E0,2.244408607E0,3.892862320E0,4.977982342E0
7.760524075E0,1.947072268E0,2.031828403E0,3.642707109E0,4.603122002E0
7.765549648E0,1.781394243E0,1.876763821E0,3.315799236E0,4.205963916E0
7.770575221E0,1.621335268E0,1.755234241E0,2.955373287E0,3.800500830E0
7.775600794E0,1.485887647E0,1.614614964E0,2.562114477E0,3.373317977E0
7.780626367E0,1.417664289E0,1.407134056E0,2.089342117E0,2.890527421E0
7.785651939E0,1.406658649E0,1.190232277E0,1.619996071E0,2.453513542E0
7.790677512E0,1.318369627E0,9.543619156E-1,1.141165018E0,1.987753188E0
7.795703137E0,1.171690583E0,7.329359055E-1,6.546598673E-1,1.529259104E0
7.800728762E0,1.047938943E0,5.257921219E-1,3.484851122E-1,1.223141552E0
7.805754387E0,1.133368015E0,3.615369797E-1,9.433430433E-2,1.193369602E0
7.810780012E0,1.384148717E0,2.784557343E-1,9.805279970E-2,1.415280756E0
7.815805637E0,1.579661131E0,3.387889862E-1,3.633540869E-1,1.655938845E0
7.820831262E0,1.538489819E0,4.659233093E-1,6.877115369E-1,1.748422892E0
7.825856887E0,1.677187800E0,5.690011978E-1,1.055556893E0,2.061776330E0
7.830882512E0,1.895082951E0,6.434278488E-1,1.317535996E0,2.396088456E0
7.835908137E0,1.967402816E0,7.611026764E-1,1.544596195E0,2.614522620E0
7.840933762E0,1.928466558E0,8.501825333E-1,1.807826161E0,2.776693904E0
7.845959387E0,1.869933605E0,9.824075699E-1,2.087257862E0,2.969582749E0
7.850985012E0,1.840367675E0,1.081151009E0,2.286485195E0,3.127915477E0
7.856010637E0,1.854559541E0,1.222925186E0,2.448284626E0,3.305909060E0
7.861036262E0,1.898380160E0,1.398084164E0,2.639539242E0,3.539160066E0
7.866061887E0,1.981286526E0,1.525357723E0,2.788332939E0,3.745265419E0
7.871087512E0,2.074218273E0,1.647951603E0,2.923537731E0,3.945275503E0
7.876113137E0,2.133770466E0,1.818598747E0,3.030899048E0,4.128756089E0
7.881138762E0,2.197808266E0,1.946453094E0,3.077440739E0,4.253196718E0
7.886164387E0,2.227614880E0,2.045968056E0,2.982585430E0,4.247831115E0
7.891190012E0,2.299262524E0,2.121998787E0,2.795157909E0,4.195520795E0
7.896215637E0,2.416949749E0,2.165070057E0,2.549519062E0,4.126647779E0
7.901241262E0,2.575102568E0,2.213614941E0,2.279959202E0,4.090166048E0
7.906266887E0,2.772939682E0,2.267783642E0,1.991933823E0,4.098760481E0
7.911292512E0,2.909485579E0,2.298947811E0,1.810465336E0,4.126506041E0
7.916318137E0,3.003467083E0,2.321609974E0,1.783571720E0,4.194259824E0
7.921343762E0,2.997472525E0,2.288017750E0,1.839226842E0,4.195547895E0
7.926369387E0,2.915710926E0,2.255621433E0,1.967550278E0,4.178570611E0
7.931395012E0,2.835327864E0,2.195632458E0,2.096271992E0,4.153822607E0
7.936420637E0,2.737882614E0,2.107973576E0,2.196039200E0,4.094159495E0
7.941446262E0,2.643215179E0,2.040390491E0,2.237551451E0,4.019504489E0
7.946471887E0,2.585537195E0,1.992728233E0,2.253732204E0,3.966771641E0
7.951497512E0,2.584461927E0,1.950515747E0,2.244216681E0,3.939601965E0
7.956523137E0,2.625832319E0,1.947212219E0,2.227788448E0,3.955966654E0
7.961548762E0,2.628567219E0,1.968400955E0,2.175416470E0,3.939086793E0
7.966574387E0,2.583203077E0,2.052306652E0,2.087095261E0,3.903955348E0
7.971600012E0,2.485197067E0,2.136633396E0,2.068018913E0,3.875320497E0
7.976625637E0,2.368331909E0,2.245243549E0,2.079684019E0,3.869780387E0
7.981651262E0,2.189623833E0,2.354198933E0,2.059787750E0,3.818302073E0
7.986676887E0,2.035134077E0,2.444334507E0,2.023061991E0,3.769525396E0
7.991702512E0,1.856809497E0,2.496586800E0,1.983975172E0,3.690100898E0
7.996728137E0,1.692769289E0,2.525372505E0,1.937880278E0,3.605323027E0
8.001753762E0,1.542662144E0,2.526001930E0,1.913691044E0,3.524585884E0
8.006779387E0,1.391671538E0,2.469910145E0,1.825537205E0,3.371912199E0
8.011805012E0,1.287084699E0,2.381151676E0,1.693140268E0,3.192678232E0
8.016830637E0,1.247438192E0,2.264616489E0,1.517111540E0,2.997702005E0
8.021856210E0,1.210000038E0,2.101271152E0,1.226225019E0,2.717180219E0
8.026881783E0,1.193429470E0,1.919914246E0,8.259398937E-1,2.406765738E0
8.031907356E0,1.202000141E0,1.725402832E0,3.312578201E-1,2.128744000E0
8.036932929E0,1.192663431E0,1.512866497E0,-1.520643234E-1,1.932442666E0
8.041958502E0,1.131949663E0,1.296612263E0,-5.855308771E-1,1.818064852E0
8.046984075E0,1.001064897E0,1.081266403E0,-9.497734308E-1,1.753093703E0
8.052009648E0,8.196170330E-1,8.666706085E-1,-1.240043879E0,1.720639080E0
8.057035221E0,6.215794086E-1,6.622142792E-1,-1.446802258E0,1.708252173E0
8.062060794E0,4.219512939E-1,4.629373550E-1,-1.704335928E0,1.815795926E0
8.067086367E0,2.500381470E-1,2.686605453E-1,-1.998409033E0,2.031830757E0
8.072111939E0,1.300363541E-1,1.414718628E-1,-2.319586515E0,2.327532029E0
8.077137512E0,1.147425175E-1,6.209850311E-2,-2.663187981E0,2.666381872E0
8.082163085E0,1.274681091E-1,1.614189148E-2,-3.000526190E0,3.003275894E0
8.087188658E0,1.108233929E-1,-1.557445526E-2,-3.274312973E0,3.276224936E0
8.092214231E0,9.353351593E-2,-3.787422180E-2,-3.522766113E0,3.524211127E0
8.097239804E0,1.816201210E-2,-6.035709381E-2,-3.726651907E0,3.727184899E0
8.102265377E0,-9.135746956E-2,-1.213111877E-1,-3.780607462E0,3.783656350E0
8.107290950E0,-3.351371288E-1,-1.920776367E-1,-3.699172497E0,3.719285936E0
8.112316523E0,-7.172179222E-1,-2.870950699E-1,-3.592797756E0,3.674917801E0
8.117342096E0,-1.255633116E0,-3.826274872E-1,-3.614690304E0,3.845647450E0
8.122367669E0,-1.867668390E0,-4.502668381E-1,-3.779001236E0,4.239313126E0
8.127393242E0,-2.523310661E0,-4.711780548E-1,-4.061678886E0,4.804824745E0
8.132418814E0,-3.173567772E0,-4.790983200E-1,-4.338352203E0,5.396514379E0
8.137444387E0,-3.750454903E0,-4.742269516E-1,-4.566088200E0,5.927897150E0
8.142469960E0,-4.238833427E0,-4.709672928E-1,-4.559115410E0,6.243000267E0
8.147495533E0,-4.671518326E0,-5.362243652E-1,-4.199216843E0,6.304287599E0
8.152521106E0,-4.985878944E0,-6.697626114E-1,-3.512113810E0,6.135349559E0
8.157546679E0,-5.148582458E0,-8.999061584E-1,-2.676676750E0,5.872165772E0
8.162572252E0,-5.103057861E0,-1.130551338E0,-1.899814248E0,5.561352357E0
8.167597825E0,-4.783640862E0,-1.318413734E0,-1.301184773E0,5.129767683E0
8.172623398E0,-4.244774818E0,-1.429813385E0,-8.946123123E-1,4.567582595E0
8.177648971E0,-3.569759369E0,-1.435936928E0,-6.263945103E-1,3.898392861E0
8.182674544E0,-2.817961693E0,-1.298460007E0,-4.473521709E-1,3.134809477E0
8.187700117E0,-2.048607349E0,-1.022098541E0,-3.086177111E-1,2.310134713E0
8.192725689E0,-1.330159187E0,-6.498250961E-1,-1.902500391E-1,1.492578707E0
8.197751262E0,-7.260150909E-1,-1.910343170E-1,-3.455507755E-2,7.515225053E-1
8.202776835E0,-3.086409569E-1,3.113479614E-1,1.681071520E-1,4.695282823E-1
8.207802408E0,-2.574467659E-2,9.052820206E-1,3.839915991E-1,9.836909440E-1
8.212827981E0,6.023716927E-2,1.523825169E0,5.987179279E-1,1.638332939E0
8.217853554E0,2.192258835E-3,2.166995049E0,7.449616194E-1,2.291471178E0
8.222879127E0,-1.279020309E-1,2.763011932E0,8.418419361E-1,2.891243973E0
8.227904700E0,-2.775490284E-1,3.307171345E0,8.368681073E-1,3.422683742E0
8.232930273E0,-3.940947056E-1,3.813815117E0,7.351680994E-1,3.903968304E0
8.237955846E0,-5.258555412E-1,4.225594997E0,5.708760023E-1,4.296286366E0
8.242981419E0,-6.157581806E-1,4.375176907E0,3.065264225E-1,4.428915166E0
8.248006992E0,-6.162319183E-1,4.014075279E0,-2.340996265E-2,4.061168570E0
8.253032564E0,-5.514283180E-1,3.090074539E0,-1.877368689E-1,3.144499798E0
8.258058137E0,-4.542179108E-1,1.699082851E0,-1.324975491E-1,1.763732419E0
8.263083710E0,-3.808970451E-1,-1.253318787E-1,5.243766308E-2,4.044012207E-1
8.268109283E0,-4.064652920E-1,-2.206161499E0,3.006976247E-1,2.263356281E0
8.273134856E0,-6.242837906E-1,-4.428895950E0,5.984821320E-1,4.512541463E0
8.278160429E0,-9.076595306E-1,-6.588294029E0,9.323357344E-1,6.715557606E0
