"Time (s)","Linear Acceleration x (m/s^2)","Linear Acceleration y (m/s^2)","Linear Acceleration z (m/s^2)","Absolute acceleration (m/s^2)"
8.558548100E-2,1.999999955E-2,-1.971612930E0,1.999999955E-2,1.971815799E0
9.559329300E-2,3.999999911E-2,-4.041727066E0,3.999999911E-2,4.042122917E0
1.055846990E-1,5.999999866E-2,-6.689216614E0,5.999999866E-2,6.689754772E0
1.155839180E-1,7.999999821E-2,-6.832042217E0,7.999999821E-2,6.832978915E0
1.255849600E-1,-6.666666269E-2,-6.965786934E0,-6.666666269E-2,6.966424944E0
1.356079810E-1,-2.285714261E-2,-6.033349037E0,-2.285714261E-2,6.033435630E0
1.455944390E-1,1.499999966E-2,-5.189211369E0,1.499999966E-2,5.189254728E0
1.555754810E-1,4.888888821E-2,-3.541545868E0,4.888888821E-2,3.542220685E0
1.655826680E-1,7.999999821E-2,-1.240633011E0,7.999999821E-2,1.245780987E0
1.755854810E-1,-7.272727042E-2,-1.200575829E0,-7.272727042E-2,1.204973374E0
1.855862620E-1,-3.000000119E-2,-1.082195282E0,-3.000000119E-2,1.083026606E0
1.955987620E-1,9.230768308E-3,-9.804878235E-1,9.230768308E-3,9.805747224E-1
2.055958970E-1,4.571428522E-2,-8.918819427E-1,4.571428522E-2,8.942220035E-1
2.155940740E-1,7.999999821E-2,-8.137559891E-1,7.999999821E-2,8.215831115E-1
2.255979810E-1,-7.500000298E-2,-8.378963470E-1,-7.500000298E-2,8.445829085E-1
2.355951160E-1,-3.294117749E-2,-7.697849274E-1,-3.294117749E-2,7.711932811E-1
2.456042310E-1,6.666665897E-3,-7.081298828E-1,6.666665897E-3,7.081926431E-1
2.555935530E-1,4.421052337E-2,-6.519126892E-1,4.421052337E-2,6.549040350E-1
2.655979810E-1,7.999999821E-2,-6.003170013E-1,7.999999821E-2,6.108850150E-1
2.755961580E-1,-7.619047165E-2,-6.479206085E-1,-7.619047165E-2,6.568189179E-1
2.855943350E-1,-3.454545513E-2,-5.993795395E-1,-3.454545513E-2,6.013672832E-1
2.955953760E-1,5.217390601E-3,-5.541887283E-1,5.217390601E-3,5.542378451E-1
3.055961580E-1,4.333333299E-2,-5.119314194E-1,4.333333299E-2,5.155863978E-1
3.156332410E-1,7.999999821E-2,-4.722537994E-1,7.999999821E-2,4.856167733E-1
3.255902200E-1,-7.692307234E-2,-5.310134888E-1,-7.692307234E-2,5.420421048E-1
3.355768870E-1,-3.555555642E-2,-4.920873642E-1,-3.555555642E-2,4.946497439E-1
3.455824080E-1,4.285714123E-3,-4.552268982E-1,4.285714123E-3,4.552672441E-1
3.555958970E-1,4.275862128E-2,-4.202194214E-1,4.275862128E-2,4.245479496E-1
3.655979810E-1,7.999999821E-2,-3.868780136E-1,7.999999821E-2,4.030813774E-1
3.755953760E-1,-3.875000030E-2,-4.329137802E-1,-3.875000030E-2,4.363684981E-1
3.856034490E-1,1.212121104E-3,-4.004011154E-1,1.212121104E-3,4.004047848E-1
3.955956370E-1,3.999999911E-2,-3.692131042E-1,3.999999911E-2,3.735215070E-1
4.055964180E-1,7.771428674E-2,-3.392353058E-1,7.771428674E-2,3.565944663E-1
4.155953760E-1,-7.999999821E-2,-4.075899124E-1,-7.999999821E-2,4.230006337E-1
4.255995430E-1,-3.891891614E-2,-3.771152496E-1,-3.891891614E-2,3.811105818E-1
4.355990220E-1,1.052631764E-3,-3.477172852E-1,1.052631764E-3,3.477204717E-1
4.455896470E-1,3.999999911E-2,-3.193149567E-1,3.999999911E-2,3.242869738E-1
4.555860010E-1,7.800000161E-2,-2.918319702E-1,7.800000161E-2,3.119838126E-1
4.655873030E-1,-7.999999821E-2,-3.627624512E-1,-7.999999821E-2,3.799955202E-1
4.755857410E-1,-3.904761747E-2,-3.346023560E-1,-3.904761747E-2,3.391285442E-1
4.855828760E-1,9.302325197E-4,-3.072853088E-1,9.302325197E-4,3.072881249E-1
4.956207410E-1,3.999999911E-2,-2.807569504E-1,3.999999911E-2,2.863991359E-1
5.055899600E-1,7.822222263E-2,-2.549619675E-1,7.822222263E-2,2.779263159E-1
5.155930330E-1,-7.999999821E-2,-3.276805878E-1,-7.999999821E-2,3.466620357E-1
5.255839700E-1,-3.914893419E-2,-3.011350632E-1,-3.914893419E-2,3.061823058E-1
5.355886060E-1,8.333332371E-4,-2.752780914E-1,8.333332371E-4,2.752806141E-1
5.455849600E-1,3.999999911E-2,-2.500686646E-1,3.999999911E-2,2.563870840E-1
5.555870430E-1,7.840000093E-2,-2.254667282E-1,7.840000093E-2,2.512535887E-1
5.655875640E-1,-7.999999821E-2,-2.994775772E-1,-7.999999821E-2,3.201356254E-1
5.755883450E-1,-3.923076764E-2,-2.741031647E-1,-3.923076764E-2,2.796616726E-1
5.855849600E-1,4.001424462E-2,-2.297677994E-1,4.001424462E-2,2.366337279E-1
5.955841780E-1,7.855943590E-2,-2.059535980E-1,7.855943590E-2,2.340086633E-1
6.054897510E-1,-7.998625934E-2,-2.808475494E-1,-7.998625934E-2,3.027721080E-1
6.155899080E-1,-3.928475082E-2,-2.562713623E-1,-3.928475082E-2,2.622243208E-1
6.255849600E-1,7.029178087E-4,-2.321968079E-1,7.029178087E-4,2.321989358E-1
6.355828760E-1,4.001303762E-2,-2.086009979E-1,4.001303762E-2,2.161399146E-1
6.455883450E-1,7.867948711E-2,-1.854572296E-1,7.867948711E-2,2.162759982E-1
6.555854810E-1,-7.996516675E-2,-2.610330582E-1,-7.996516675E-2,2.844769116E-1
6.655867830E-1,-3.929908201E-2,-2.370166779E-1,-3.929908201E-2,2.434455612E-1
6.757080330E-1,6.892333622E-4,-2.133989334E-1,6.892333622E-4,2.134011595E-1
6.855741780E-1,4.001107812E-2,-1.901760101E-1,4.001107812E-2,1.984154419E-1
6.955761580E-1,7.867755741E-2,-1.673393250E-1,7.867755741E-2,2.009546361E-1
7.055857930E-1,-7.996705920E-2,-2.432165146E-1,1.509842992E0,1.531396377E0
7.155854810E-1,-3.930094466E-2,-2.194967270E-1,1.541577697E0,1.557621640E0
7.255878240E-1,6.874023238E-4,-1.961717606E-1,1.599440455E0,1.611425953E0
7.355841780E-1,4.000927880E-2,-1.732358932E-1,1.665191054E0,1.674655984E0
7.455857410E-1,7.867579162E-2,-1.506814957E-1,1.723118901E0,1.731483047E0
7.555896470E-1,-7.996880263E-2,-2.268371582E-1,1.769371152E0,1.785643968E0
7.655883450E-1,1.256332159E0,-1.842775345E-1,1.822535634E0,2.221252989E0
7.755901680E-1,1.295135140E0,-1.620578766E-1,1.825001717E0,2.243717686E0
7.855912100E-1,1.331523895E0,-1.401634216E-1,1.834061742E0,2.270767302E0
7.955823560E-1,1.380327821E0,-2.172660828E-1,1.848836660E0,2.317478466E0
8.055844390E-1,1.434971809E0,-1.947050095E-1,1.868560076E0,2.364015840E0
8.155860010E-1,1.499456644E0,-1.724643707E-1,1.873191833E0,2.405610490E0
8.255820950E-1,2.069298744E0,-1.505346298E-1,1.855123639E0,2.783189121E0
8.355839180E-1,2.095653772E0,-1.289024353E-1,1.822339296E0,2.780162060E0
8.456193350E-1,2.144554615E0,-1.635483742E0,1.762371778E0,3.221781472E0
8.555864700E-1,2.217760563E0,-1.652217865E0,1.664473534E0,3.227810083E0
8.656036580E-1,2.899310112E0,-1.674104691E0,9.279556274E-1,3.474151305E0
8.756440740E-1,2.916535616E0,-1.685901642E0,7.699410915E-1,3.455611904E0
8.855834490E-1,2.932351828E0,-1.659894943E0,-3.421804309E-1,3.386890301E0
8.955891780E-1,2.908180475E0,-1.610947609E0,-4.963411093E-1,3.361401549E0
9.055860010E-1,2.844643116E0,-1.522840500E0,-4.510958195E-1,3.257994028E0
9.155878240E-1,2.718065262E0,-1.396134377E0,-1.445024252E0,3.380113172E0
9.255860010E-1,1.881739974E0,5.078315735E-3,-1.541729569E0,2.432673670E0
9.355836580E-1,1.196390271E0,2.480030060E-2,-2.184811831E0,2.491057500E0
9.456104810E-1,-4.905296862E-1,-3.481769562E-2,-2.139486790E0,2.195275693E0
9.555862620E-1,-4.456852973E-1,-1.465797424E-2,-2.052990437E0,2.100861722E0
9.655880850E-1,-4.013695121E-1,5.284309387E-3,-1.931905508E0,1.973166060E0
9.755846990E-1,-2.110874414E0,1.106845856E0,-2.036526352E-1,2.392148185E0
9.855867830E-1,-2.112723351E0,1.210210800E0,-3.598645926E-1,2.461242097E0
9.955854810E-1,-2.068104029E0,2.005327225E0,-3.165670037E-1,2.898034889E0
1.005587043E0,-1.959033012E0,2.091288567E0,-2.737449110E-1,2.878582027E0
1.015583397E0,-3.117540777E-1,2.173007965E0,-2.313838601E-1,2.207417657E0
1.025586783E0,-2.690365314E-1,2.207276344E0,-1.894700080E-1,2.231669420E0
1.035606053E0,-4.247886539E-1,2.171279907E0,-3.460099101E-1,2.239335771E0
1.045628606E0,1.045612097E0,2.021029472E0,-3.030097783E-1,2.295578296E0
1.055750012E0,1.197192550E0,8.909358978E-1,-2.604562938E-1,1.514884239E0
1.065571783E0,2.247073174E0,-1.551008224E-1,-2.183365226E-1,2.262977010E0
1.075585533E0,2.351149321E0,-1.338138580E-1,-1.766380817E-1,2.361569454E0
1.085586262E0,3.073041677E0,-1.712689400E0,-3.334622383E-1,3.533848779E0
1.095586001E0,3.090276718E0,-1.797928810E0,-2.907195985E-1,3.587042805E0
1.105586262E0,3.101877213E0,-1.816414833E0,-2.483981252E-1,3.603152330E0
1.115587303E0,3.079444408E0,-1.742997169E0,-2.064862251E-1,3.544524447E0
1.125585481E0,3.027553797E0,-1.589983940E0,-1.649727076E-1,3.423645267E0
1.135588866E0,2.839757919E0,-1.118316650E-1,-2.824282944E-1,2.855958176E0
1.145611522E0,2.010196447E0,-9.101867676E-2,-2.402829230E-1,2.026551267E0
1.155589647E0,1.897791624E0,-7.039642334E-2,-1.985260546E-1,1.909445286E0
1.165588085E0,1.232317686E0,-4.995727539E-2,-1.571475714E-1,1.243301238E0
1.175584699E0,1.137202263E0,-1.288366318E-1,-3.144135475E-1,1.186879835E0
1.185587824E0,1.019498587E0,-1.079072952E-1,-2.720681131E-1,1.060680164E0
1.195583397E0,-6.393499970E-1,-8.716201782E-2,-2.301014364E-1,6.850637248E-1
1.205584960E0,-5.943134427E-1,-6.659793854E-2,-1.885039508E-1,6.270386695E-1
1.215585481E0,-5.496941805E-1,-4.620933533E-2,-1.472664177E-1,5.709521806E-1
1.225600220E0,-7.038289309E-1,-1.251659393E-1,-3.047270179E-1,7.771101799E-1
1.235585428E0,-6.583877206E-1,-1.043043137E-1,-2.625571191E-1,7.164426155E-1
1.245596262E0,-6.133601665E-1,-8.361816406E-2,-1.440619230E0,1.567988029E0
1.255585272E0,-5.687362552E-1,-6.310558319E-2,-1.524935722E0,1.628764010E0
1.265584960E0,-5.245063901E-1,-4.275989532E-2,-1.616151094E0,1.699670475E0
1.275585741E0,-6.790737510E-1,-1.217851639E-1,-2.192392111E0,2.298381159E0
1.285590168E0,-6.340417266E-1,-1.009845734E-1,-2.172521353E0,2.265404119E0
1.295587564E0,-5.894007683E-1,-8.035182953E-2,-2.138663530E0,2.219849404E0
1.305587564E0,-5.451418161E-1,-5.988407135E-2,-2.087838173E0,2.158664851E0
1.315583918E0,-6.600643992E-1,-1.189680099E-1,-1.992582321E0,2.102432569E0
1.325583397E0,-6.153669953E-1,-9.821891785E-2,-1.942824841E0,2.040316607E0
1.335587824E0,-5.710409284E-1,-7.763004303E-2,-1.897886038E0,1.983452943E0
1.345611262E0,-5.270779133E-1,-5.720043182E-2,-1.866920114E0,1.940740510E0
1.355584960E0,-4.834699631E-1,-3.692436218E-2,-1.857866287E0,1.920097330E0
1.365583918E0,-6.387385130E-1,-1.160640717E-1,-1.853254080E0,1.963672183E0
1.375586522E0,-5.943682194E-1,-9.536361694E-2,-1.862254977E0,1.957130910E0
1.385587303E0,-5.503510237E-1,-7.481670380E-2,-1.873343945E0,1.953945067E0
1.395584960E0,-5.066794157E-1,-5.442237854E-2,-1.876507878E0,1.944471045E0
1.405661053E0,-4.633460045E-1,-3.417587280E-2,-1.872795105E0,1.929564463E0
1.415591522E0,-6.189250946E-1,-1.133661270E-1,-1.867992878E0,1.971120885E0
1.425589647E0,-5.748481750E-1,-9.270954132E-2,-1.852515578E0,1.941870091E0
1.435579231E0,-5.311079621E-1,-7.220077515E-2,-1.813170433E0,1.890734153E0
1.445641210E0,-4.876975119E-1,-5.183887482E-2,-1.757998705E0,1.825128921E0
1.455595897E0,-4.446099401E-1,-3.161907196E-2,-1.669638276E0,1.728111610E0
1.465595897E0,-6.004687548E-1,-1.108541489E-1,-1.567130804E0,1.681888916E0
1.475594856E0,-5.566560626E-1,-9.023666382E-2,-9.458384514E-1,1.101189813E0
1.485596678E0,-5.131651163E-1,-6.976127625E-2,-9.019754529E-1,1.040079223E0
1.495582824E0,-4.302773476E-1,-2.956295013E-2,1.885143220E-1,4.706912082E-1
1.505593553E0,-5.863682032E-1,-1.088371277E-1,2.832548320E-2,5.970557118E-1
1.515597720E0,-5.427737236E-1,-8.825302124E-2,6.787597388E-2,5.540749576E-1
1.525596418E0,-4.994876087E-1,-6.780624390E-2,1.071709022E-1,5.153359683E-1
1.535600585E0,-4.565039277E-1,-4.749584198E-2,1.462152451E-1,4.816955355E-1
1.545638606E0,-4.138168097E-1,-2.731800079E-2,1.850138605E-1,4.541153528E-1
1.555593814E0,-5.701384544E-1,-1.066303253E-1,2.485351264E-2,5.805562682E-1
1.565596678E0,-5.267617702E-1,-8.607864380E-2,6.444042921E-2,5.376244641E-1
1.575595116E0,-4.836809933E-1,-6.565952301E-2,1.037794128E-1,4.990276974E-1
1.585583397E0,-4.408905506E-1,-4.537296295E-2,1.428751349E-1,4.656785238E-1
1.595586053E0,-3.983849883E-1,-2.521419525E-2,1.817321777E-1,4.386033960E-1
1.605556001E0,-5.549167395E-1,-1.045608521E-1,2.159719169E-2,5.650946807E-1
1.615583449E0,-5.117382407E-1,-8.403968811E-2,6.121695787E-2,5.221936539E-1
1.625583710E0,-4.688441455E-1,-6.364631653E-2,1.005959958E-1,4.837202092E-1
1.635593814E0,-4.262292385E-1,-4.338073730E-2,1.397387087E-1,4.506441599E-1
1.645640949E0,-3.838884234E-1,-2.323818207E-2,1.786493659E-1,4.240588765E-1
1.655597460E0,-1.780585408E0,-1.026163101E-1,1.853702962E-2,1.783636209E0
1.665598762E0,-1.805017471E0,-8.212184906E-2,5.818650872E-2,1.807821269E0
1.675594335E0,-1.772667646E0,-4.187297821E-2,1.373688281E-1,1.778475225E0
1.685597199E0,-1.698117971E0,-2.174377441E-2,1.763254851E-1,1.707386340E0
1.695586001E0,-1.597937822E0,-1.011486053E-1,1.623001695E-2,1.601218204E0
1.705588085E0,-4.495949447E-1,-8.067703247E-2,5.590309948E-2,4.601842614E-1
1.715583918E0,-4.072273374E-1,-6.032562256E-2,9.534874558E-2,4.225691284E-1
1.725583918E0,-3.651168346E-1,-4.009437561E-2,1.345708817E-1,3.911868915E-1
1.735589387E0,-3.232589960E-1,-1.997947693E-2,1.735733300E-1,3.674551114E-1
1.745608658E0,-4.805132151E-1,-9.941101074E-2,1.349621266E-2,4.908743695E-1
1.755587303E0,-4.380244613E-1,-7.896327972E-2,5.319397151E-2,4.482524142E-1
1.765618553E0,-3.957883716E-1,-5.863189697E-2,9.267041087E-2,4.106993298E-1
1.775588606E0,-3.538007438E-1,-3.841686249E-2,1.319292337E-1,3.795472887E-1
1.785601783E0,-3.120573759E-1,-1.831436157E-2,1.709740758E-1,3.562967251E-1
1.795592303E0,-4.694493413E-1,-9.777069092E-2,1.091343910E-2,4.796466358E-1
1.805587824E0,-4.270897210E-1,-7.734394073E-2,5.063369125E-2,4.369799602E-1
1.815587043E0,-3.849744797E-1,-5.702972412E-2,9.013842791E-2,3.994780039E-1
1.825590168E0,-3.430996239E-1,-3.682899475E-2,1.294311583E-1,3.685459965E-1
1.835590168E0,-3.014612198E-1,-1.673793793E-2,1.685152948E-1,3.457693309E-1
1.845612564E0,-4.589802623E-1,-9.621810913E-2,8.469521999E-3,4.690336219E-1
1.855588085E0,-3.769643903E-1,-5.591869354E-2,8.799893409E-2,3.911174558E-1
1.865585481E0,-3.351815045E-1,-3.572940826E-2,1.273216903E-1,3.603249150E-1
1.875589126E0,-2.936279178E-1,-1.564598083E-2,1.664410532E-1,3.378827829E-1
1.885594856E0,-4.512528777E-1,-9.514522552E-2,6.407327950E-3,4.612188498E-1
1.895593814E0,-4.091109335E-1,-7.475471497E-2,4.616562277E-2,4.184391092E-1
1.905587303E0,-3.629590869E-1,-5.384159088E-2,8.472952992E-2,3.765863897E-1
1.915587824E0,-3.175764382E-1,-3.327846527E-2,1.226507053E-1,3.420605880E-1
1.925586262E0,-2.729501724E-1,-1.305675507E-2,1.599398553E-1,3.166275932E-1
1.935593033E0,-4.257343411E-1,-9.150600433E-2,-5.912780762E-5,4.354573246E-1
1.945638866E0,-3.793054223E-1,-7.031440735E-2,3.927519172E-2,3.877618599E-1
1.955586314E0,-3.336503506E-1,-4.947566986E-2,7.795393467E-2,3.461895641E-1
1.965614908E0,-2.887561917E-1,-2.898502350E-2,1.159880385E-1,3.125275907E-1
1.975576418E0,-2.446102351E-1,-8.834838867E-3,1.533882320E-1,2.888601239E-1
1.985599283E0,-3.978667259E-1,-8.735370636E-2,-6.501562893E-3,4.073952282E-1
1.995585481E0,-3.519022763E-1,-6.623172760E-2,3.294012696E-2,3.595926942E-1
2.005587043E0,-3.067039251E-1,-4.546070099E-2,7.172445953E-2,3.182426293E-1
2.015591210E0,-2.622588575E-1,-2.503681183E-2,1.098623872E-1,2.854405269E-1
2.025587303E0,-2.185545415E-1,-4.952430725E-3,1.473646760E-1,2.636417302E-1
2.035594074E0,-3.722453117E-1,-8.353614807E-2,-1.242472231E-2,3.817056901E-1
2.045611522E0,-2.873745561E-1,-4.281044006E-2,6.644902378E-2,2.980475499E-1
2.055593553E0,-2.432516515E-1,-2.243041992E-2,1.046748757E-1,2.657655345E-1
2.065586783E0,-1.974445134E-1,-2.483367920E-3,1.385122985E-1,2.411973462E-1
2.075584699E0,-3.507438898E-1,-8.115959167E-2,1.504978657E0,1.547439470E0
2.085591470E0,-3.033394516E-1,-6.021404266E-2,1.500471950E0,1.532010648E0
2.095585741E0,-2.568701208E-1,-3.959560394E-2,1.517123699E0,1.539225256E0
2.105587303E0,-2.112905681E-1,-1.930332184E-2,1.537465334E0,1.552036074E0
2.115587564E0,-1.665414572E-1,6.790161133E-4,1.568987727E0,1.577801954E0
2.125586001E0,-3.207918406E-1,-7.794475555E-2,1.621127725E0,1.654399556E0
2.135614908E0,-2.746615112E-1,-5.601406097E-2,1.592729330E0,1.617208471E0
2.145622460E0,-2.319434732E-1,-3.435420990E-2,1.567954659E0,1.585389479E0
2.155574022E0,-1.891615391E-1,-1.239490509E-2,1.508967638E0,1.520828410E0
2.165582928E0,-1.481644362E-1,9.902954102E-3,1.434823036E0,1.442486712E0
2.175584439E0,-3.063297868E-1,-6.703472137E-2,1.317844510E0,1.354638603E0
2.185591731E0,1.339768529E0,-4.370784760E-2,1.159424424E0,1.772330410E0
2.195587043E0,1.348834515E0,-2.023792267E-2,-6.071910858E-1,1.479339426E0
2.205590168E0,1.341444492E0,3.290176392E-3,-6.194865108E-1,1.477581703E0
2.215584699E0,1.327886939E0,2.688312531E-2,-6.294963360E-1,1.469786400E0
2.225588085E0,1.216754198E0,-2.917194366E-2,-7.966366410E-1,1.454638003E0
2.235591470E0,1.069110751E0,-3.659248352E-3,-1.861291647E0,2.146489642E0
2.245614908E0,-3.302130103E-1,2.203941345E-2,-1.986871719E0,2.014245665E0
2.255587564E0,-3.408289552E-1,4.225444794E-2,-2.034628391E0,2.063410406E0
2.265587303E0,-5.484690070E-1,-3.702449799E-2,-2.052246332E0,2.124595037E0
2.275586783E0,-5.541528463E-1,-1.624774933E-2,-2.038717747E0,2.112751622E0
2.285591991E0,-5.578649640E-1,4.570007324E-3,-1.983376026E0,2.060343336E0
2.295585741E0,-5.597148538E-1,2.541255951E-2,-1.891557693E0,1.972794217E0
2.305586001E0,-5.563222170E-1,4.360485077E-2,-1.725692749E0,1.813673415E0
2.315677824E0,-6.984164715E-1,-4.078578949E-2,-6.296247244E-1,9.412100413E-1
2.325589699E0,-6.413978934E-1,-2.466869354E-2,-5.290846825E-1,8.318235410E-1
2.335599387E0,-5.832993388E-1,1.225051880E0,-4.316028357E-1,1.423822754E0
2.345613137E0,-5.259199739E-1,1.329150200E0,-3.367598951E-1,1.468550067E0
2.355584751E0,-4.692580104E-1,2.019283295E0,-2.445025593E-1,2.087460085E0
2.365588085E0,-6.124603152E-1,2.058691025E0,-3.538427949E-1,2.176814438E0
2.375586001E0,-5.545995831E-1,2.083238602E0,-3.069420159E-1,2.177539247E0
2.385593293E0,-4.959912300E-1,2.039928436E0,-2.600444257E-1,2.115405027E0
2.395592512E0,-4.383036494E-1,1.922988892E0,-2.151333392E-1,1.984005726E0
2.405585481E0,1.383564830E0,-1.121730804E-1,-3.314701915E-1,1.427132414E0
2.415586262E0,2.126138687E0,-9.245491028E-2,-2.880967855E-1,2.147559868E0
2.425587564E0,2.197727919E0,-7.277870178E-2,-2.450503111E-1,2.212544779E0
2.435593814E0,2.255059242E0,-5.314731598E-2,-2.022869885E-1,2.264737700E0
2.445611262E0,2.288573742E0,-3.349304199E-2,-1.597899199E-1,2.294389761E0
2.455586783E0,2.218871832E0,-1.103143692E-1,-3.179586530E-1,2.244250247E0
2.465587564E0,2.099074602E0,-8.677291870E-2,-2.748311758E-1,2.118767543E0
2.475587303E0,1.909914613E0,-6.107330322E-2,-2.320780456E-1,1.924932205E0
2.485589647E0,1.721981883E0,-3.491020203E-2,-1.895643771E-1,1.732736270E0
2.495584231E0,1.039762020E0,-8.373260498E-3,-1.472746879E-1,1.050173797E0
2.505603241E0,9.581117630E-1,-8.113098145E-2,-3.059602976E-1,1.009045138E0
2.515592303E0,8.945534229E-1,-5.370712280E-2,-2.632395923E-1,9.340264260E-1
2.525596470E0,8.422023058E-1,-2.612400055E-2,-2.207077295E-1,8.710333456E-1
2.535592772E0,8.243944645E-1,1.559257507E-3,-1.784354150E-1,8.434855433E-1
2.545611522E0,8.516825438E-1,2.932167053E-2,-1.379540712E-1,8.632810906E-1
2.555586783E0,1.448818207E0,-4.252719879E-2,-2.969498336E-1,1.479547891E0
2.565585481E0,1.437881827E0,-1.441764832E-2,-2.546039522E-1,1.460320236E0
2.575587043E0,1.432471156E0,1.363754272E-2,-2.125988454E-1,1.448225764E0
2.585597981E0,1.456422687E0,6.152343750E-2,-1.690946221E0,2.232543684E0
2.595587824E0,1.408752918E0,-1.033306122E-2,-1.699364185E0,2.207380844E0
2.605484960E0,1.307522893E0,1.861190796E-2,-1.710694194E0,2.153238757E0
2.615587043E0,1.162956953E0,4.778575897E-2,-1.714962602E0,2.072643018E0
2.625586783E0,9.866193533E-1,7.697010040E-2,-1.686954737E0,1.955801224E0
2.635595116E0,7.989895344E-2,1.059837341E-1,-1.627413511E0,1.632816931E0
2.645611783E0,-6.455731392E-2,3.508853912E-2,-1.548895240E0,1.550637068E0
2.655587564E0,-7.392927408E-1,6.329917908E-2,-1.399666429E0,1.584180120E0
2.665584960E0,-8.549376726E-1,9.156131744E-2,-4.735716060E-2,8.611298390E-1
2.675607095E0,-1.909476280E0,1.149621964E0,4.173832387E-2,2.229231350E0
2.685592616E0,-1.904733181E0,1.240616798E0,1.283330917E-1,2.276753811E0
2.695614387E0,-2.092831135E0,1.334158897E0,1.312526315E-2,2.481953746E0
2.705585949E0,-2.047339201E0,1.419091225E0,9.575068206E-2,2.492907118E0
2.715600637E0,-1.998275638E0,1.487055779E0,1.728303134E-1,2.496860174E0
2.725593033E0,-9.508720636E-1,1.515622139E0,2.009390593E-1,1.800456791E0
2.735597981E0,-8.551836014E-1,1.488776207E0,2.263804823E-1,1.731774151E0
2.745641991E0,-7.479093075E-1,1.410294533E0,5.282570422E-2,1.597213059E0
2.755597199E0,-6.611651182E-1,1.282194138E0,7.984998077E-2,1.444831180E0
2.765597981E0,-5.846627951E-1,6.167030334E-2,1.455295980E-1,6.056506205E-1
2.775596678E0,-5.474301577E-1,7.584953308E-2,1.717972904E-1,5.787462641E-1
2.785597199E0,-4.976141453E-1,-9.339332581E-3,-8.723735809E-4,4.977025434E-1
2.795599283E0,-4.445867538E-1,6.219863892E-3,2.693951875E-2,4.454456264E-1
2.805595376E0,-3.786405325E-1,2.234268188E-2,5.524452031E-2,3.833011940E-1
2.815598501E0,-3.008017540E-1,3.882217407E-2,8.387407660E-2,3.146803412E-1
2.825597460E0,-2.383728027E-1,5.667209625E-2,-1.444650650E0,1.465281140E0
2.835597460E0,-1.684978008E-1,-2.505302429E-2,-1.469693542E0,1.479533125E0
2.845636522E0,-8.303999901E-2,-6.608963013E-3,-1.418349266E0,1.420793426E0
2.855600324E0,-5.271720886E-2,1.202011108E-2,-1.499372602E0,1.500347222E0
2.865602564E0,-3.688323498E-2,3.089904785E-2,1.384545207E0,1.385381014E0
2.875621001E0,-1.474440098E-2,5.009651184E-2,2.879391432E0,2.879864940E0
2.885570324E0,3.093361855E-3,-3.009033203E-2,3.713298321E0,3.713421524E0
2.895592824E0,3.153562546E-2,-9.991645813E-3,3.818781614E0,3.818924894E0
2.905582668E0,9.264051914E-2,1.052379608E-2,4.565370560E0,4.566322521E0
2.915597720E0,1.596153975E-1,3.109359741E-2,4.565320969E0,4.568216220E0
2.925597720E0,1.969382763E-1,5.351161957E-2,4.345559120E0,4.350348520E0
2.935587564E0,2.629920244E-1,-2.115249634E-2,4.216433525E0,4.224680332E0
2.945613606E0,3.242677450E-1,6.303787231E-3,9.774924517E-1,1.029893587E0
2.955587303E0,4.222668409E-1,5.565547943E-2,-6.230151057E-1,7.546884386E-1
2.965584960E0,4.279254675E-1,8.670806885E-2,-7.110488415E-1,8.344033496E-1
2.975587303E0,4.063357115E-1,1.936149597E-2,-9.929963946E-1,1.073091523E0
2.985599543E0,3.844075203E-1,5.327224731E-2,-2.044601440E0,2.081105986E0
2.995586001E0,3.716659546E-1,8.824729919E-2,-2.148524284E0,2.182219001E0
3.005586522E0,3.612302542E-1,1.136980057E-1,-1.116311193E0,1.178798206E0
3.015588085E0,3.431694508E-1,1.329078674E-1,-1.042318225E0,1.105376431E0
3.025591210E0,3.214406967E-1,5.245590210E-2,-1.169445276E0,1.213951398E0
3.035592512E0,2.958707809E-1,7.193851471E-2,-1.096424103E0,1.137919365E0
3.045633710E0,2.720249891E-1,9.149456024E-2,-1.024721146E0,1.064153314E0
3.055588345E0,2.546682358E-1,1.109466553E-1,-9.527921081E-1,9.924605140E-1
3.065598137E0,2.137111425E-1,1.304531097E-1,-8.821976781E-1,9.170404623E-1
3.075586574E0,1.814986467E-1,5.032634735E-2,-1.012198210E0,1.029572589E0
3.085591991E0,1.473312378E-1,7.007503510E-2,-9.419500828E-1,9.559743525E-1
3.095584178E0,1.070207357E-1,8.979606628E-2,-8.732543588E-1,8.843584943E-1
3.105586522E0,7.123994827E-2,1.096029282E-1,-8.075526953E-1,8.180643543E-1
3.115586001E0,5.427086353E-2,1.293172836E-1,-7.431330681E-1,7.562506485E-1
3.125585741E0,4.979836941E-2,4.907608032E-2,-8.794245720E-1,8.821994769E-1
3.135592251E0,1.060484648E-1,8.860301971E-2,-7.769865990E-1,7.891799205E-1
3.145584439E0,1.437288523E-1,1.080474854E-1,-7.154444456E-1,7.376943790E-1
3.155584960E0,1.956282854E-1,1.274719238E-1,-6.548641920E-1,6.952457317E-1
3.165585741E0,2.602988482E-1,4.712295532E-2,-7.948430777E-1,8.377061426E-1
3.175584960E0,3.161926270E-1,6.674671173E-2,-7.356874347E-1,8.035352527E-1
3.185590168E0,3.595763445E-1,8.633899689E-2,-6.773962975E-1,7.717611766E-1
3.195586783E0,3.921345472E-1,1.058807373E-1,-6.199908257E-1,7.411942104E-1
3.205584960E0,4.183908701E-1,1.257238388E-1,-5.633609295E-1,7.129045804E-1
3.215584699E0,4.191758633E-1,4.631614685E-2,-7.084628940E-1,8.244836335E-1
3.225605220E0,3.868888617E-1,6.732082367E-2,-6.526510715E-1,7.616879320E-1
3.235607460E0,3.064875603E-1,8.872222900E-2,-5.975197554E-1,6.773744286E-1
3.245574751E0,1.959888935E-1,1.100406647E-1,-5.430074334E-1,5.876884098E-1
3.255586783E0,-4.907987118E-1,1.313056946E-1,-4.907318950E-1,7.063585164E-1
3.265591470E0,-5.794279575E-1,5.276489258E-2,-6.383739710E-1,8.637373552E-1
3.275595376E0,-6.820576191E-1,7.406234741E-2,-5.850005746E-1,9.016171579E-1
3.285592772E0,-7.868380547E-1,9.524917603E-2,-5.322335362E-1,9.547036540E-1
3.295586783E0,-2.019001245E0,1.163463593E-1,-4.799807966E-1,2.078529305E0
3.305588345E0,-1.980061889E0,1.369371414E-1,-4.298153520E-1,2.030797405E0
3.315584178E0,-2.074821234E0,7.224750519E-2,-5.399672389E-1,2.145149755E0
3.325584699E0,-2.007568359E0,8.704948425E-2,-4.890047610E-1,2.068099124E0
3.335591731E0,-1.937567353E0,1.012954712E-1,-4.385938048E-1,1.989168808E0
3.345588606E0,-4.367543459E-1,1.150321960E-1,-3.886618614E-1,5.958563647E-1
3.355583397E0,-3.771893978E-1,2.928256989E-2,-5.403184295E-1,6.596008762E-1
3.365586522E0,-3.031738997E-1,4.371166229E-2,-4.908269048E-1,5.785638887E-1
3.375584960E0,-2.311637402E-1,5.834770203E-2,-4.417983294E-1,5.020228012E-1
3.385588606E0,-1.659841537E-1,7.318973541E-2,-3.931873143E-1,4.330170213E-1
3.395589387E0,-1.067267656E-1,8.820247650E-2,-3.450182080E-1,3.717631548E-1
3.405625428E0,-7.634377480E-2,5.375862122E-3,-4.982101321E-1,5.040541713E-1
3.415590220E0,-8.911454678E-2,2.281284332E-2,-4.501209259E-1,4.594242878E-1
3.425574022E0,-1.400488615E-1,4.062938690E-2,-4.023814797E-1,4.279898199E-1
3.435590220E0,-2.321065664E-1,5.841541290E-2,-3.550551832E-1,4.281938834E-1
3.445589908E0,-1.678822756E0,7.626056671E-2,-3.096312881E-1,1.708839681E0
3.455588085E0,-1.824198008E0,-5.605697632E-3,-4.638367891E-1,1.882252470E0
3.465587824E0,-1.769999981E0,1.247978210E-2,-4.166471660E-1,1.818419792E0
3.475587824E0,-1.716126561E0,3.056621552E-2,-3.696842492E-1,1.755759412E0
3.485596158E0,-1.662699699E0,4.867172241E-2,-3.229357898E-1,1.694469460E0
3.495584283E0,-1.767063856E0,-1.330757141E-2,1.058887720E0,2.060081301E0
3.505586001E0,-1.655803323E0,-4.695892334E-3,1.131575346E0,2.005534706E0
3.515591470E0,-1.547161698E0,4.749298096E-3,1.224507213E0,1.973106634E0
3.525585220E0,-1.439270496E0,1.469421387E-2,1.820572615E0,2.320818848E0
3.535593033E0,-1.333850265E0,2.543449402E-2,1.824031472E0,2.259843856E0
3.545585481E0,-1.429939866E0,1.225316048E0,1.746081829E0,2.568059421E0
3.555585741E0,-1.326468945E0,1.273439407E0,1.636982441E0,2.461885314E0
3.565586783E0,3.512681723E-1,1.344629288E0,1.495068789E0,2.041236863E0
3.575585481E0,4.873194695E-1,1.421345711E0,7.973692417E-1,1.701029571E0
3.585662668E0,6.289727688E-1,1.468610764E0,6.563916802E-1,1.727215782E0
3.595591783E0,7.618116140E-1,1.494917870E0,-7.599643469E-1,1.841923500E0
3.605733189E0,8.856823444E-1,1.477892876E0,-7.615245581E-1,1.883751634E0
3.615585012E0,9.976369143E-1,1.394249916E0,-7.608252764E-1,1.875651178E0
3.625585741E0,1.006164908E0,1.263031006E0,-7.571668625E-1,1.783512490E0
3.635591470E0,9.751083851E-1,-3.016281128E-2,-7.515676618E-1,1.231503190E0
3.645589647E0,8.991872072E-1,-1.059160233E-1,-9.354640245E-1,1.301863579E0
3.655585741E0,7.844209671E-1,-8.185291290E-2,-9.144721031E-1,1.207590734E0
3.665586522E0,1.083056927E-1,-6.213665009E-2,-8.453060389E-1,8.544784290E-1
3.675586001E0,-1.002672791E0,-2.253913879E-2,-7.360581160E-1,1.244042720E0
3.685591731E0,-1.175502181E0,-1.026420593E-1,-8.675633669E-1,1.464584230E0
3.695590689E0,-1.153521776E0,-8.184432983E-2,-8.028760552E-1,1.407807140E0
3.705588345E0,-1.130475640E0,-6.121826172E-2,-7.372650504E-1,1.351030201E0
3.715588345E0,-1.106744766E0,-4.059028625E-2,-6.725092530E-1,1.295685241E0
3.725584960E0,-1.057273149E0,-2.286434174E-2,-6.090691686E-1,1.220374755E0
3.735590428E0,-1.204455614E0,-1.050672531E-1,-7.473315001E-1,1.421357388E0
3.745585481E0,-1.112898588E0,-9.161281586E-2,-6.851862073E-1,1.310120725E0
3.755585220E0,-1.727235317E-2,-7.769775391E-2,-6.235743761E-1,6.286336594E-1
3.765664439E0,1.028611660E-1,-6.335639954E-2,-5.626396537E-1,5.754631463E-1
3.775599856E0,2.410743237E-1,-4.861354828E-2,-5.024197698E-1,5.593797741E-1
3.785593970E0,9.109359384E-1,-1.174788475E0,9.830377102E-1,1.782216425E0
3.795583606E0,9.933717847E-1,-1.263644218E0,1.067941427E0,1.929788358E0
3.805584231E0,1.068820477E0,-1.380207062E0,1.153237939E0,2.092201350E0
3.815585481E0,1.096782804E0,-2.157731056E0,1.234350443E0,2.717049290E0
3.825586522E0,1.113765717E0,-2.205529690E0,1.310123920E0,2.796651564E0
3.835600064E0,1.076513052E0,-2.251033306E0,1.334798574E0,2.829791252E0
3.845588345E0,1.015904069E0,-2.288586140E0,1.352710009E0,2.845964154E0
3.855587564E0,8.923623562E-1,-2.319011688E0,1.444728255E0,2.874259125E0
3.865583397E0,8.134043217E-1,-2.295390606E0,1.463390350E0,2.841118783E0
3.875588606E0,7.377269864E-1,-2.267532349E0,1.504708886E0,2.819590908E0
3.885591991E0,6.826508045E-1,-2.206897736E0,2.168035269E0,3.168088803E0
3.895588345E0,6.605123281E-1,-2.127430439E0,2.156918526E0,3.100731258E0
3.905586001E0,6.720945835E-1,-2.036330223E0,2.162765741E0,3.045637463E0
3.915584439E0,7.182308435E-1,-1.920391083E0,2.188477039E0,2.998864653E0
3.925585220E0,7.954409122E-1,-1.285012245E0,2.216464996E0,2.682666546E0
3.935595116E0,1.492632627E0,-1.270129204E0,2.235843658E0,2.973243552E0
3.945691053E0,1.524962306E0,-1.266325951E0,2.216157198E0,2.973288444E0
3.955587616E0,1.590153217E0,-1.274968147E0,2.183592796E0,2.987006617E0
3.965574335E0,2.174173117E0,-1.304046631E0,2.138943672E0,3.317023725E0
3.975583137E0,2.181982517E0,-1.316605568E0,2.098048925E0,3.300955501E0
3.985595376E0,2.199991226E0,-1.275706291E0,2.048466682E0,3.265517369E0
3.995595637E0,2.197543859E0,-1.159196854E0,2.014156342E0,3.198399932E0
4.005591210E0,2.232309341E0,2.131261826E-1,1.983488321E0,2.993802546E0
4.015597460E0,2.904600620E0,2.601814270E-1,1.926532865E0,3.495129185E0
4.025602147E0,2.866058588E0,2.082118988E-1,1.798938394E0,3.390254175E0
4.035594074E0,2.775941849E0,1.376383781E0,6.021332741E-2,3.099017765E0
4.045601626E0,2.588895321E0,1.399610519E0,-1.077482700E-1,2.944978485E0
4.055601366E0,1.644266367E0,1.331110954E0,-1.662893295E-1,2.122055701E0
4.065597199E0,1.445058703E0,3.058996201E-1,-2.162457705E-1,1.492826670E0
4.075594074E0,3.925522566E-1,3.491716385E-1,-3.322613239E-1,6.216234348E-1
4.085594595E0,-3.846300840E-1,-6.971902847E-1,-4.959360361E-1,9.380656409E-1
4.095595376E0,-5.945219994E-1,-7.702732086E-1,-1.315669894E0,1.636387636E0
4.105593553E0,-2.028572083E0,-8.153810501E-1,-1.265366435E0,2.526084552E0
4.115594595E0,-2.232298851E0,-8.249912262E-1,-1.221644640E0,2.675104542E0
4.125705585E0,-2.226675272E0,-7.750940323E-1,-2.318351507E0,3.306600556E0
4.135575689E0,-2.214202166E0,-6.534700394E-1,-2.259656668E0,3.230443093E0
4.145582668E0,-2.162116528E0,4.609518051E-1,-3.580540419E0,4.208027345E0
4.155596470E0,-9.804525375E-1,4.682970047E-1,-4.356043816E0,4.489510774E0
4.165595897E0,-7.957260609E-1,3.690261841E-1,-4.417240143E0,4.503484292E0
4.175590428E0,2.830610275E-1,3.706874847E-1,-4.440183163E0,4.464611884E0
4.185587303E0,4.550483227E-1,3.731451035E-1,-4.409903526E0,4.448994870E0
4.195584439E0,1.297685146E0,3.683242798E-1,-4.288462639E0,4.495615789E0
4.205586783E0,1.351403236E0,3.557758331E-1,-4.074201584E0,4.307201609E0
4.215590428E0,1.199623823E0,2.611503601E-1,-2.966555119E0,3.210567878E0
4.225588345E0,-1.981258392E-3,2.574701309E-1,-2.708226681E0,2.720438668E0
4.235586262E0,-8.504421711E-1,2.569322586E-1,-1.309145927E0,1.582128039E0
4.245589387E0,-1.928549170E0,2.592535019E-1,-1.125478148E0,2.247935796E0
4.255584699E0,-2.090895891E0,1.643466949E-1,-1.147027016E0,2.390507569E0
4.265585220E0,-2.052826643E0,1.718091965E-1,-9.743421078E-1,2.278806304E0
4.275591991E0,-2.013581514E0,1.841106415E-1,-8.407987952E-1,2.189828728E0
4.285587043E0,-1.973938704E0,1.977739334E-1,-7.153100967E-1,2.108842590E0
4.295584178E0,-1.918635964E0,2.124080658E-1,-6.392351985E-1,2.033446038E0
4.305724387E0,-2.030726433E0,1.210498810E-1,-7.662755847E-1,2.173863195E0
4.315572251E0,-1.903285980E0,1.223468781E-1,-6.952951550E-1,2.030000402E0
4.325600012E0,-1.779173493E0,1.252412796E-1,-6.271446943E-1,1.890622692E0
4.335587095E0,-3.016976118E-1,1.295061111E-1,-5.601704121E-1,6.492951350E-1
4.345587564E0,-1.032875776E-1,1.350698471E-1,-4.959307909E-1,5.242704804E-1
4.355590428E0,8.025627136E-1,4.201602936E-2,-6.323597431E-1,1.022619724E0
4.365585741E0,9.559431076E-1,4.991912842E-2,-5.682457685E-1,1.113203664E0
4.375590689E0,1.095429420E0,5.876255035E-2,-5.051507354E-1,1.207723444E0
4.385587824E0,1.165398479E0,7.591056824E-2,-4.428019822E-1,1.248995446E0
4.395587303E0,1.213376403E0,1.414394379E-2,-5.426559448E-1,1.329269657E0
4.405586522E0,1.152948737E0,3.727149963E-2,-4.832774103E-1,1.250694611E0
4.415585481E0,1.054845214E0,6.079387665E-2,-4.231947660E-1,1.138195120E0
4.425586001E0,9.193890095E-1,8.469581604E-2,-3.640472293E-1,9.924615444E-1
4.435585220E0,1.754570007E-1,-1.576766968E0,-3.057562709E-1,1.615693698E0
4.445587824E0,6.813967228E-2,-1.614897728E0,-4.494742751E-1,1.677666478E0
4.455585220E0,-5.731177330E-2,-1.632610321E0,-3.922207355E-1,1.680041132E0
4.465584960E0,-1.626849174E0,-1.622641563E0,-3.357734382E-1,2.322142907E0
4.475584960E0,-1.608476996E0,-1.554302216E0,-2.801117599E-1,2.254221866E0
4.485584856E0,-1.589046121E0,-1.425264359E0,-2.252799124E-1,2.146438237E0
4.495579074E0,-1.764818668E0,7.486820221E-2,-1.337685347E0,2.215759975E0
4.505592668E0,-1.712346673E0,9.283447266E-2,-1.367125154E0,2.193121190E0
4.515585012E0,-6.323099136E-3,1.104173660E-1,-1.396173596E0,1.400547281E0
4.525596939E0,1.154103279E-1,1.280441284E-1,-1.420071602E0,1.430495787E0
4.535586783E0,9.762959480E-1,1.457395554E-1,-1.454137802E0,1.757529671E0
4.545587564E0,1.121042728E0,6.373500824E-2,-1.520006418E0,1.889766774E0
4.555591470E0,1.993220687E0,8.175277710E-2,-1.603739262E0,2.559607752E0
4.565591210E0,2.077722073E0,9.915542603E-2,-2.226634502E0,3.047074337E0
4.575591991E0,2.170750856E0,1.737859726E0,-2.201987982E0,3.546979952E0
4.585585741E0,2.097537518E0,1.809851646E0,-2.147986650E0,3.505577452E0
4.595591470E0,1.956780791E0,1.932557106E0,-2.074217558E0,3.444727349E0
4.605482251E0,9.847818613E-1,2.835578918E0,-1.976953745E0,3.594252249E0
4.615586001E0,1.711834669E-1,2.942689896E0,-1.868147016E0,3.489799546E0
4.625585481E0,-6.738470793E-1,3.653722763E0,-1.743411064E0,4.104051907E0
4.635586262E0,-2.010373831E0,3.734496117E0,-1.628750086E0,4.543224739E0
4.645590689E0,-2.005254507E0,3.805115700E0,-1.513274908E0,4.559599991E0
4.655585481E0,-1.997063398E0,3.861851692E0,-1.397086501E0,4.566619253E0
4.665586574E0,-1.979136944E0,3.880383492E0,-1.291974306E0,4.543518096E0
4.675590428E0,-1.927228093E0,3.860195160E0,-1.229930639E0,4.486428889E0
4.685597772E0,-2.042629480E0,3.786024094E0,-1.203471661E0,4.467063652E0
4.695583449E0,-1.932427645E0,3.651000977E0,-1.192277670E0,4.299489595E0
4.705593085E0,-1.784580350E0,2.697694778E0,-1.165336728E0,3.438065420E0
4.715594335E0,-1.642864347E0,2.529965401E0,-1.138393879E0,3.224231507E0
4.725589126E0,-1.506867051E0,1.483408928E0,-1.116563916E0,2.391205833E0
4.735591731E0,-1.574417591E0,1.327037811E0,-1.089487672E0,2.329550062E0
4.745591731E0,-1.447130919E0,-3.343868256E-2,-1.043347239E0,1.784342877E0
4.755588085E0,-1.284811854E0,-1.369476318E-3,-8.482070565E-1,1.539544929E0
4.765583918E0,-1.172104001E0,1.268577576E-2,1.048615098E0,1.572762646E0
4.775593553E0,-1.263157129E0,-7.208538055E-2,9.183319211E-1,1.563360404E0
4.785588085E0,-1.162486672E0,-5.525398254E-2,9.894896150E-1,1.527585665E0
4.795585481E0,-1.065017700E0,-3.777408600E-2,1.059615135E0,1.502821952E0
4.805584960E0,-9.757305980E-1,-1.876926422E-2,1.132542610E0,1.495010117E0
4.815586783E0,-8.882069588E-1,1.802444458E-4,1.200794816E0,1.493592925E0
4.825586783E0,-1.003695369E0,9.539203644E-1,1.007796288E0,1.712606730E0
4.835590689E0,-9.191138148E-1,9.589939117E-1,1.015589356E0,1.672082913E0
4.845583293E0,-8.359779119E-1,-6.577968597E-2,-6.175124645E-2,8.408324761E-1
4.855604178E0,4.532118440E-1,-5.194377899E-2,-9.870227575E-1,1.087342198E0
4.865586835E0,5.792131424E-1,-3.772354126E-2,-1.078778028E0,1.225019577E0
4.875587824E0,7.253985405E-1,-1.227846146E-1,-1.126910210E0,1.345810434E0
4.885587824E0,1.501310587E0,-1.075181961E-1,-1.112328887E0,1.871568645E0
4.895585012E0,1.594675303E0,-9.181976318E-2,-1.017002463E0,1.893598215E0
4.905590428E0,1.687060118E0,-7.576560974E-2,-1.335101128E-1,1.694029875E0
4.915588085E0,1.718489647E0,-5.649757385E-2,9.349058270E-1,1.957152919E0
4.925586783E0,1.739334106E0,-1.365442276E-1,7.519596815E-1,1.899834420E0
4.935586783E0,1.687201381E0,-9.454250336E-2,8.098220825E-1,1.873872618E0
4.945588866E0,1.581333756E0,-7.213115692E-2,1.802600741E0,2.398997454E0
4.955587043E0,1.441840887E0,-1.938800812E0,1.825185657E0,3.028061494E0
4.965587824E0,7.335776091E-1,-2.054325581E0,1.852718115E0,2.861984296E0
4.975587564E0,5.941419601E-1,-2.858680725E0,1.893254757E0,3.479866913E0
4.985585220E0,-9.865103960E-1,-2.962372303E0,1.959555745E0,3.686286904E0
4.995584439E0,-9.886044860E-1,-3.756823540E0,2.022876978E0,4.379850820E0
5.005586262E0,-9.890664220E-1,-3.853204250E0,2.581797123E0,4.742479496E0
5.015584960E0,-1.187555194E0,-4.513227463E0,2.560479164E0,5.323115913E0
5.025592564E0,-1.192733288E0,-4.567413330E0,2.552094936E0,5.366289760E0
5.035605116E0,-1.172568560E0,-4.630212307E0,2.531689405E0,5.405851855E0
5.045619647E0,-1.152928591E0,-4.692987442E0,2.505238533E0,5.443307411E0
5.055588137E0,-1.077315450E0,-4.757656574E0,2.481894255E0,5.473180405E0
5.065587824E0,-1.205904841E0,-4.798299789E0,2.420418262E0,5.507840949E0
5.075592772E0,-1.133599281E0,-4.802968025E0,2.364896059E0,5.472319668E0
5.085589908E0,-1.065052271E0,-4.751148701E0,2.313835859E0,5.390879956E0
5.095590428E0,-9.968661666E-1,-4.615984917E0,2.270216942E0,5.239746546E0
5.105588606E0,-9.287069440E-1,-3.381433487E0,2.219506264E0,4.150035791E0
5.115589908E0,-1.020193934E0,4.049873352E-2,2.117891788E0,2.351148961E0
5.125583658E0,5.429683328E-1,1.092811584E0,1.983685493E0,2.328961122E0
5.135590689E0,6.911997795E-1,2.620542526E0,1.936316013E0,3.330813710E0
5.145591470E0,1.734650373E0,3.732989311E0,2.593023300E0,4.864975946E0
5.155610741E0,2.441718340E0,3.860328674E0,3.169102669E0,5.559436811E0
5.165585741E0,3.280726433E0,3.887591362E0,3.167754889E0,5.992595728E0
5.175595897E0,4.211768627E0,3.733458519E0,3.176419020E0,6.462766070E0
5.185592512E0,5.042970657E0,2.197379112E0,3.202140808E0,6.365039966E0
5.195594335E0,5.757259369E0,6.720542908E-2,3.894356251E0,6.951011626E0
5.205606470E0,5.835953712E0,5.321502686E-4,3.865626812E0,7.000101904E0
5.215593345E0,6.730827808E0,4.009914398E-2,3.742749691E0,7.701546999E0
5.225631783E0,6.694685459E0,8.443260193E-2,3.459478140E0,7.536174843E0
5.235590533E0,6.613300800E0,1.341457367E-1,1.841376066E0,6.866178586E0
5.245593033E0,6.468714714E0,1.513736725E0,6.690933704E-1,6.677076820E0
5.255630012E0,6.178010464E0,3.189551353E0,-4.191975594E-1,6.965398605E0
5.265600585E0,4.830127716E0,4.649034500E0,-1.573009729E0,6.886074001E0
5.275599543E0,3.153402567E0,5.352704048E0,-1.590301991E0,6.412834693E0
5.285595376E0,1.230377436E0,5.332416534E0,-6.225101948E-1,5.507813874E0
5.295595897E0,-2.401814461E0,2.542494774E0,-4.869929552E-1,3.531310595E0
5.305593293E0,-4.868971825E0,3.053550720E-1,1.312471628E-1,4.880302672E0
5.315595897E0,-6.490467072E0,-1.976875782E0,2.510325909E-1,6.789493208E0
5.325595637E0,-7.462169170E0,-4.095319748E0,3.717536926E-1,8.520200313E0
5.335595376E0,-7.546022415E0,-5.656502724E0,3.488135338E-1,9.437168444E0
5.345594074E0,-7.409872055E0,-6.477611065E0,-1.668345451E0,9.982435851E0
5.355636783E0,-6.091019630E0,-6.487263680E0,-1.594309449E0,9.040294951E0
5.365595637E0,-4.713781357E0,-5.690997124E0,-3.937364101E0,8.373172577E0
5.375597199E0,-2.232147217E0,-4.273193836E0,-5.722570419E0,7.482678595E0
5.385624699E0,-2.042579412E0,-2.378293037E0,-7.258353233E0,7.906459390E0
5.395590585E0,-7.731820345E-1,2.763986588E-1,-8.174087524E0,8.215224497E0
5.405707772E0,-4.690668583E-1,1.689321518E0,-8.189384460E0,8.374953657E0
5.415590481E0,6.001431942E-1,3.194954872E0,-7.981287956E0,8.617938613E0
5.425586262E0,8.102878332E-1,4.163290977E0,-6.367098331E0,7.650457457E0
5.435587303E0,9.241336584E-1,4.234248161E0,-4.853466034E0,6.506843555E0
5.445589126E0,1.012500882E0,4.225984573E0,-3.165290594E0,5.376166682E0
5.455612043E0,1.036671400E0,4.116132736E0,-9.148051739E-1,4.342131366E0
5.465589908E0,1.004046679E0,3.236333847E0,-7.231889367E-1,3.464818717E0
5.475586522E0,8.510445356E-1,1.351390839E0,9.386662245E-1,1.852465460E0
5.485586522E0,2.102575302E-1,3.171730042E-2,9.321881533E-1,9.561322969E-1
5.495584647E0,1.172916889E-1,4.803657532E-2,-3.796187043E-1,4.002189570E-1
5.505587303E0,-2.835988998E-3,6.787586212E-2,-3.114455044E-1,3.187686900E-1
5.515588606E0,-1.469553113E0,8.774757385E-2,-2.450245619E-1,1.492421865E0
5.525586522E0,-1.431192875E0,1.076526642E-1,-1.611419201E0,2.157909633E0
5.535583658E0,-1.596434593E0,-1.196818352E0,-1.575675726E0,2.542386983E0
5.545586001E0,-1.565561414E0,-1.246699333E0,-1.495228529E0,2.498189369E0
5.555608658E0,1.697844267E-1,-1.301741600E0,-1.381006122E0,1.905396508E0
5.565599803E0,2.689564228E-1,-1.329880714E0,-1.411037147E-1,1.364122623E0
5.575583970E0,9.517589808E-1,-1.329596519E0,-8.752894402E-2,1.637477749E0
5.585608449E0,1.024835348E0,-1.309376717E0,-2.340885848E-1,1.679152269E0
5.595582356E0,1.107870340E0,-1.281557083E0,-1.796933115E-1,1.703541879E0
5.605478814E0,1.162490249E0,-1.240962982E0,-1.274423152E-1,1.705172790E0
5.615587824E0,1.189378619E0,-1.200113297E0,-7.559855282E-2,1.691333369E0
5.625583918E0,1.169118166E0,-1.163391113E0,-2.567911893E-2,1.649537992E0
5.635587303E0,1.078069448E0,-1.136060715E0,-1.740776598E-1,1.575807956E0
5.645596158E0,9.445585012E-1,-1.115812302E0,-1.228402108E-1,1.467077903E0
5.655611783E0,1.680495739E-1,-1.101855278E0,-3.208934516E-2,1.115058491E0
5.665586783E0,4.498386383E-2,-1.088659286E0,1.672233641E-2,1.089716581E0
5.675588606E0,-6.554198265E-2,-1.066343307E0,-1.342971176E-1,1.076763445E0
5.685586522E0,-1.552677155E-1,-1.021397591E0,-8.565104008E-2,1.036676035E0
5.695585220E0,-1.973628998E-1,-9.518318176E-1,-3.735587373E-2,9.727956541E-1
5.705586001E0,-1.831922531E-1,-8.363265991E-1,-1.344679236E0,1.594102829E0
5.715584960E0,-6.993961334E-2,2.107954025E-1,-1.409180880E0,1.426575271E0
5.725585741E0,8.135495186E-1,1.307334900E-1,-1.498533130E0,1.710133213E0
5.735584960E0,9.489178658E-1,1.506032944E-1,-2.181663275E0,2.383858451E0
5.745586522E0,1.952241063E0,1.703739166E-1,-2.207554340E0,2.951875439E0
5.755633970E0,2.055002213E0,1.900072098E-1,-2.189445257E0,3.008788355E0
5.765599022E0,2.130199432E0,1.413753510E0,-2.126419306E0,3.325373313E0
5.775597408E0,2.144316196E0,1.500970840E0,-1.989642620E0,3.287808262E0
5.785584960E0,2.051889896E0,1.587950706E0,-1.822379112E0,3.170631676E0
5.795588606E0,1.865561366E0,1.684890747E0,-1.047605515E0,2.723353329E0
5.805586783E0,6.571271420E-1,2.393651009E0,-9.061655998E-1,2.642445331E0
5.815587564E0,-9.109461308E-2,2.460062027E0,-7.587031722E-1,2.576011240E0
5.825589126E0,-9.007406235E-1,2.561798096E0,-6.405984163E-1,2.790073383E0
5.835589126E0,-2.020066500E0,3.263297081E0,-5.826594830E-1,3.881915581E0
5.845584960E0,-1.945786715E0,3.431338310E0,-6.236431003E-1,3.993632338E0
5.855612043E0,-1.905153275E0,4.121297836E0,-6.424731612E-1,4.585572660E0
5.865586262E0,-2.056340456E0,4.167428017E0,-7.014590502E-1,4.699791181E0
5.875585741E0,-1.980184436E0,4.191177368E0,-1.426575184E0,4.849970607E0
5.885584178E0,-1.871347070E0,4.169428825E0,-1.479354382E0,4.803599273E0
5.895586001E0,-1.729932189E0,4.093267441E0,-1.517996550E0,4.695936248E0
5.905584699E0,1.160788536E-2,3.951601982E0,-1.515363932E0,4.232212284E0
5.915586001E0,2.363994122E-1,2.987512589E0,-1.477732658E0,3.341378452E0
5.925584699E0,1.081176519E0,2.807243347E0,-1.403819203E0,3.319678634E0
5.935610428E0,1.181613564E0,1.712573051E0,-1.304847240E0,2.455960788E0
5.945589439E0,1.215999007E0,1.592647552E0,-5.705286264E-1,2.083430519E0
5.955640793E0,1.141895175E0,1.887416840E-2,-3.933171034E-1,1.207882100E0
5.965582928E0,-2.117216587E-2,-6.069755554E-2,8.341396451E-1,8.366130536E-1
5.975587824E0,-1.256320953E0,-4.011154175E-2,9.123395681E-1,1.553162825E0
5.985586783E0,-1.192581296E0,-1.860046387E-2,9.903732538E-1,1.550301682E0
5.995586522E0,-1.130744576E0,3.098487854E-3,1.066561818E0,1.554396027E0
6.005587564E0,-2.637912035E0,2.290725708E-2,1.117064595E0,2.864775376E0
6.015586262E0,-2.671665192E0,-5.996322632E-2,9.307079911E-1,2.829771696E0
6.025588866E0,-2.596428633E0,-2.278137207E-2,9.848775268E-1,2.777038779E0
6.035587303E0,-1.041436791E0,-1.019668579E-2,9.986968040E-1,1.442944860E0
6.045593033E0,-9.547620416E-1,2.786636353E-3,1.012882590E0,1.391944490E0
6.055586262E0,-1.069105506E0,-8.367633820E-2,8.267896771E-1,1.354093602E0
6.065585481E0,4.841835499E-1,-6.984138489E-2,8.414359689E-1,9.733067444E-1
6.075585741E0,6.738691926E-1,-5.561351776E-2,8.567566276E-1,1.091432303E0
6.085586522E0,1.615439773E0,-4.100227356E-2,8.728421330E-1,1.836621963E0
6.095588345E0,1.725369453E0,-2.593898773E-2,8.895814419E-1,1.941372639E0
6.105586522E0,1.814269304E0,-1.104164124E-1,7.062053680E-1,1.949997670E0
6.115681158E0,1.844156742E0,-1.309309959E0,7.250041366E-1,2.375044770E0
6.125592303E0,1.769756794E0,-2.048308372E0,7.441576719E-1,2.807379016E0
6.135569803E0,1.623193026E0,-2.805243492E0,7.644711137E-1,3.329949359E0
6.145597512E0,6.246319413E-1,-3.550868988E0,7.843195200E-1,3.689714453E0
6.155585272E0,-9.484403729E-1,-4.231120586E0,6.054115295E-1,4.378178123E0
6.165588345E0,-9.275559783E-1,-4.359816551E0,1.813423038E0,4.812157891E0
6.175587043E0,-9.062349796E-1,-5.244075775E0,1.914005399E0,5.655529086E0
6.185589126E0,-8.891958594E-1,-5.313426971E0,2.812834740E0,6.077434881E0
6.195587303E0,-8.783456683E-1,-5.371338844E0,2.926768303E0,6.179704264E0
6.205588606E0,-1.026418447E0,-5.471119881E0,3.883642912E0,6.787442069E0
6.215585220E0,-9.637358189E-1,-5.487731934E0,3.905557156E0,6.804216722E0
6.225585481E0,-9.000231028E-1,-5.476635933E0,3.907676220E0,6.787747503E0
6.235586783E0,-8.401675820E-1,-5.422478676E0,3.864879131E0,6.711665014E0
6.245588866E0,-9.799725413E-1,-5.285284042E0,3.799257040E0,6.582471242E0
6.255588345E0,-9.179098010E-1,-4.046753883E0,3.681148767E0,5.547038096E0
6.265586522E0,-8.555867076E-1,-2.814619541E0,3.560598373E0,4.618654842E0
6.275588866E0,2.102479935E-1,-1.099305153E0,3.437930107E0,3.615527549E0
6.285590689E0,9.027652144E-1,1.237993240E-1,3.323439837E0,3.446093970E0
6.295582303E0,1.082303762E0,2.785289764E0,3.235936165E0,4.404600251E0
6.305582147E0,2.165403605E0,4.325534821E0,3.696046829E0,6.087691387E0
6.315598553E0,2.316653490E0,5.309033394E0,3.637400866E0,6.839839474E0
6.325586314E0,3.210539103E0,5.400024414E0,4.245964527E0,7.582614310E0
6.335587043E0,3.281541586E0,5.399478912E0,4.178764343E0,7.575286077E0
6.345584960E0,3.330516338E0,5.279025078E0,4.036954880E0,7.433535468E0
6.355587043E0,3.355070353E0,4.071549416E0,3.787030458E0,6.494275280E0
6.365587564E0,3.272874117E0,3.001044273E0,2.468594313E0,5.080544222E0
6.375584439E0,3.100014448E0,1.948472977E0,1.512727618E0,3.961689206E0
6.385586262E0,1.825636506E0,9.386634827E-2,-1.563854218E-1,1.834725032E0
6.395586522E0,7.644575834E-1,1.370773315E-1,-3.100428581E-1,8.362488658E-1
6.405586522E0,-1.342865586E0,1.796827316E-1,-3.639531136E-1,1.402866970E0
6.415586522E0,-1.381701469E0,2.215337753E-1,-2.670682669E-1,1.424605778E0
6.425585481E0,-2.559202433E0,-1.729894638E0,8.147381544E-1,3.194659733E0
6.435592772E0,-3.332609177E0,-2.502652168E0,8.985027075E-1,4.263432762E0
6.445597199E0,-3.513126135E0,-2.624918461E0,9.224286079E-1,4.481420166E0
6.455591731E0,-3.626593113E0,-3.209832191E0,8.564571142E-1,4.918202832E0
6.465597199E0,-3.608155966E0,-3.103082657E0,7.586395741E-2,4.759586830E0
6.475590324E0,-3.393773317E0,-1.973987103E0,-1.881474495E0,4.353650042E0
6.485598085E0,-1.595227718E0,-8.495922089E-1,-3.014394760E0,3.514702571E0
6.495723241E0,-1.483189821E0,2.698755264E-1,-4.750943184E0,4.984390232E0
6.505582408E0,1.975136995E-1,1.325833321E0,-5.925168514E0,6.074904738E0
6.515581887E0,1.216517329E0,2.048215866E0,-6.028154850E0,6.481801720E0
6.525583918E0,2.027004242E0,2.113920212E0,-6.026629448E0,6.700572167E0
6.535595376E0,2.234620571E0,2.111281395E0,-5.895168781E0,6.648612877E0
6.545599283E0,3.108456135E0,1.995012283E0,-4.894022942E0,6.131397402E0
6.555596158E0,3.117599487E0,1.698141098E-1,-3.907176256E0,5.001428765E0
6.565597460E0,2.300045252E0,1.907634735E-1,-1.318917155E0,2.658221459E0
6.575595376E0,1.461387992E0,9.912109375E-2,-1.322923899E0,1.973729337E0
6.585599543E0,5.775315762E-1,1.106691360E-1,-1.132953048E0,1.276468953E0
6.595599283E0,-2.086956501E-1,1.250476837E-1,-9.490625262E-1,9.797502112E-1
6.605490481E0,-4.052873850E-1,1.419363022E-1,-7.710652351E-1,8.825788209E-1
6.615592251E0,-1.477119446E0,1.634092331E-1,-6.330893040E-1,1.615359558E0
6.625595897E0,-1.689740181E0,8.987808228E-2,-7.546400428E-1,1.852776712E0
6.635595897E0,-1.700070858E0,1.164588928E-1,-6.780440211E-1,1.833997626E0
6.645598501E0,-1.688014030E0,1.396446228E-1,-6.047520041E-1,1.798504093E0
6.655641991E0,-1.703910828E-1,1.573991776E-1,-5.330660343E-1,5.813493090E-1
6.665585897E0,-2.955663204E-2,1.725044250E-1,-4.644030333E-1,4.962877678E-1
6.675616418E0,7.821630239E-1,-9.619293213E-1,-5.965610147E-1,1.375853211E0
6.685583970E0,8.729478121E-1,-1.025186539E0,-5.299557447E-1,1.447030896E0
6.695604751E0,9.628133774E-1,-1.055827141E0,-4.645045996E-1,1.502512920E0
6.705586262E0,1.042189479E0,-1.062901497E0,-4.001717567E-1,1.541446054E0
6.715587564E0,1.107530951E0,-1.049401283E0,-3.370239139E-1,1.562514954E0
6.725592251E0,1.120132685E0,-1.012013435E0,-4.743605852E-1,1.582367337E0
6.735584960E0,1.108366966E0,-9.670009613E-1,-4.148846269E-1,1.528298873E0
6.745585741E0,1.047861576E0,-9.304656982E-1,-3.161346614E-1,1.436565843E0
6.755589387E0,9.692097902E-1,-9.370317459E-1,-2.580228448E-1,1.372578558E0
6.765587043E0,8.754040003E-1,-9.511890411E-1,-4.000655413E-1,1.353198135E0
6.775591470E0,7.702112198E-1,-9.722805023E-1,-3.427422047E-1,1.286867094E0
6.785587303E0,6.552634239E-1,-9.945440292E-1,-2.860361934E-1,1.224869252E0
6.795585741E0,5.514018536E-1,-9.982366562E-1,-2.300457954E-1,1.163375044E0
6.805584439E0,4.575294256E-1,-9.759826660E-1,-1.746390611E-1,1.091958855E0
6.815584960E0,4.018585682E-1,-9.114875793E-1,-3.208959103E-1,1.046553439E0
6.825593033E0,4.043849707E-1,-8.102931976E-1,-2.660152316E-1,9.438571789E-1
6.835584960E0,4.548518658E-1,2.190160751E-1,-1.349713802E0,1.441036297E0
6.845585428E0,5.381720066E-1,2.430295944E-1,-1.381824374E0,1.502707920E0
6.855604856E0,1.322618723E0,2.668743134E-1,-1.417947412E0,1.957323951E0
6.865582772E0,1.388899088E0,1.908063889E-1,-1.470635653E0,2.031801412E0
6.875588918E0,1.444364309E0,1.733127594E0,-1.553968906E0,2.739477848E0
6.885586783E0,1.471517086E0,1.861413002E0,-2.198891640E0,3.235018600E0
6.895584178E0,1.433864594E0,2.736206055E0,-2.178043842E0,3.779770658E0
6.905586522E0,1.290820360E0,2.848358154E0,-2.074985027E0,3.752988708E0
6.915588345E0,4.026725292E-1,3.578165054E0,-1.941243291E0,4.090701142E0
6.925592772E0,-2.891726494E-1,3.658471107E0,-1.796041131E0,4.085804133E0
6.935590428E0,-1.121705651E0,4.451477051E0,-1.679271936E0,4.888131109E0
6.945584178E0,-2.194066525E0,4.515678406E0,-1.610237479E0,5.272394534E0
6.955583397E0,-2.355369568E0,4.580639839E0,-1.534519911E0,5.374456111E0
6.965587043E0,-2.309307098E0,4.615387917E0,-1.468853116E0,5.365839578E0
6.975590949E0,-2.235227585E0,4.608881950E0,-1.426639557E0,5.317267683E0
6.985586001E0,-2.137917042E0,4.527741432E0,-1.424603701E0,5.205826299E0
6.995585220E0,-6.803333759E-1,4.375602722E0,-1.447979450E0,4.658905147E0
7.005586783E0,-4.879585505E-1,3.422046661E0,-1.445104957E0,3.746576469E0
7.015588606E0,3.038778305E-1,3.275936127E0,-1.390202522E0,3.571660999E0
7.025618814E0,4.343398809E-1,2.331809998E0,-1.270473242E0,2.690741767E0
7.035580272E0,5.377074480E-1,2.180598259E0,-1.113895178E0,2.506970390E0
7.045599803E0,5.781646967E-1,1.365852356E0,-2.840433121E-1,1.510134987E0
7.055574283E0,5.397257805E-1,1.292834282E0,-1.603859067E-1,1.410123412E0
7.065589647E0,-1.713044643E-1,1.253614426E0,8.376688361E-1,1.517426580E0
7.075595116E0,-2.782826424E-1,1.234781265E0,9.089943171E-1,1.558331374E0
7.085585220E0,-1.562043786E0,1.203365326E0,9.784572124E-1,2.201237700E0
7.095587043E0,-1.491803408E0,1.159511566E0,1.022231340E0,2.148232155E0
7.105586001E0,-1.627844572E0,1.096947670E0,8.650726676E-1,2.145116049E0
7.115585741E0,-1.525696158E0,3.096580505E-3,9.157414436E-1,1.779421464E0
7.125589647E0,-1.464314103E0,1.775264740E-2,9.256281853E-1,1.732431380E0
7.135585741E0,-4.723130465E-1,3.192710876E-2,9.363359809E-1,1.049201612E0
7.145585220E0,-2.950538397E-1,-5.517101288E-2,7.473689914E-1,8.053949455E-1
7.155583658E0,7.274736166E-1,-4.182147980E-2,7.593847513E-1,1.052441020E0
7.165590949E0,8.794643879E-1,-2.803039551E-2,7.724861503E-1,1.170887768E0
7.175589387E0,1.681876540E0,-1.384639740E-2,7.865872383E-1,1.856776751E0
7.185585741E0,1.745289803E0,1.533508301E-3,8.033927679E-1,1.921322145E0
7.195584699E0,1.772773862E0,-8.274173737E-2,6.199418902E-1,1.879867364E0
7.205617668E0,1.748951435E0,-1.110030174E0,6.387759447E-1,2.167725263E0
7.215591783E0,1.630832434E0,-2.374903679E0,6.580017209E-1,2.955122362E0
7.225590637E0,7.902668715E-1,-3.167335510E0,6.784386635E-1,3.334188804E0
7.235581887E0,6.173064709E-1,-3.949325085E0,6.983125210E-1,4.057816689E0
7.245587824E0,-1.482528090E0,-4.685873032E0,5.196353197E-1,4.942197535E0
7.255590689E0,-1.457904220E0,-5.359635353E0,1.858920813E0,5.857197488E0
7.265586783E0,-1.433064222E0,-5.498805523E0,2.667793274E0,6.277551768E0
7.275591210E0,-1.414277792E0,-6.430362701E0,3.473939180E0,7.444326670E0
7.285596678E0,-1.407868028E0,-6.509056568E0,4.219458580E0,7.883764361E0
7.295585741E0,-1.560501099E0,-7.252653122E0,4.994688988E0,8.943324833E0
7.305584439E0,-1.487289906E0,-7.243085861E0,5.542627811E0,9.240944060E0
7.315589387E0,-1.417142630E0,-7.184686184E0,5.456924915E0,9.132690640E0
7.325591991E0,-1.347586513E0,-7.063665390E0,5.292396545E0,8.928651597E0
7.335584699E0,-1.483300328E0,-6.014403343E0,5.090493679E0,8.017877109E0
7.345584960E0,-1.416444778E0,-4.959651470E0,4.883258343E0,7.102863546E0
7.355584699E0,-1.566655636E-1,-3.074109077E0,4.705585480E0,5.622919653E0
7.365584960E0,2.364027500E-2,1.808815002E-1,4.475788116E0,4.479504018E0
7.375591210E0,8.200457096E-1,2.329268456E0,4.191274643E0,4.864642807E0
7.385710272E0,8.678243160E-1,4.600504875E0,3.854876995E0,6.064473662E0
7.395578866E0,8.894369602E-1,6.210683823E0,2.917586327E0,6.919248631E0
7.405590949E0,8.999011517E-1,7.000187874E0,2.721115112E0,7.564186659E0
7.415588137E0,8.099257946E-1,6.988933563E0,2.625716209E0,7.509697581E0
7.425588658E0,9.640502930E-2,5.835843086E0,3.363955498E0,6.736657558E0
7.435586783E0,3.793585300E-2,3.693294525E0,4.069094658E0,5.495397612E0
7.445590168E0,7.155227661E-2,2.228422165E-1,4.716899872E0,4.722702911E0
7.455587564E0,2.522525787E-1,-2.124877930E0,4.673752308E0,5.140301374E0
7.465588345E0,1.490982652E0,-4.261698246E0,4.453485012E0,6.341815983E0
7.475601106E0,2.266513109E0,-5.152243614E0,2.532553196E0,6.172237975E0
7.485586262E0,2.878103256E0,-3.259152412E0,2.319868803E0,4.928219157E0
7.495582199E0,2.859375000E0,-1.056203842E0,1.040656090E0,3.220955921E0
7.505585220E0,2.735365391E0,4.425144196E-1,-4.517111778E-1,2.807505266E0
7.515588606E0,1.655235410E0,2.916367531E0,-2.674762487E0,4.289447307E0
7.525596418E0,6.750916243E-1,4.108504295E0,-2.912199736E0,5.080990410E0
7.535586262E0,-1.310695410E-1,4.246356964E0,-2.944988966E0,5.169302342E0
7.545585741E0,-2.960950136E-1,4.218761444E0,-2.964090109E0,5.164440972E0
7.555585741E0,-4.290038347E-1,3.079173088E0,-2.975427389E0,4.303314925E0
7.565618553E0,-1.409049153E0,5.749092102E-1,-2.939813375E0,3.310353878E0
7.575587720E0,-1.610055685E0,-5.808210373E-1,-3.972008705E0,4.325099483E0
7.585590376E0,-1.613289833E0,-2.117520809E0,-3.995993853E0,4.801516982E0
7.595586574E0,-5.116723776E-1,-3.152884483E0,-4.701904297E0,5.684223184E0
7.605478241E0,-3.926222324E-1,-3.246183395E0,-4.617166996E0,5.657746011E0
7.615586001E0,-2.718303204E-1,-3.201393604E0,-4.491811275E0,5.522606384E0
7.625593293E0,3.637002707E-1,-2.266808987E0,-4.282464027E0,4.859032724E0
7.635585481E0,3.776658773E-1,-1.138128281E0,-3.376803875E0,3.583402281E0
7.645590168E0,3.719111681E-1,3.602552414E-1,-2.172549963E0,2.233399896E0
7.655584699E0,3.921841383E-1,1.858080864E0,-1.998062253E0,2.756542338E0
7.665588866E0,4.211385250E-1,1.924151421E0,-2.068442106E0,2.856250881E0
7.675597460E0,4.249689579E-1,1.924255371E0,-1.938729286E0,2.764421928E0
7.685595637E0,4.276788235E-1,1.815429688E0,-1.812477469E0,2.600724650E0
7.695595116E0,4.343082905E-1,2.719554901E-1,-1.689654589E0,1.765648920E0
7.705598241E0,4.489872456E-1,2.790470123E-1,-1.571535587E0,1.658065404E0
7.715596678E0,4.610648155E-1,-1.211081505E0,-1.657768846E0,2.104161762E0
7.725595116E0,4.415396452E-1,-2.132228374E0,-1.547023773E0,2.671074251E0
7.735594074E0,3.896362782E-1,-2.294245720E0,-1.439175725E0,2.736166409E0
7.745595116E0,3.092707396E-1,-3.147090435E0,-1.334050059E0,3.432129974E0
7.755605533E0,2.043821812E-1,-3.193631649E0,-2.947078228E0,4.350439664E0
7.765586314E0,-4.063597918E-1,-3.218831062E0,-2.889219284E0,4.344374496E0
7.775588293E0,-4.453647137E-1,-3.186216831E0,-2.832939625E0,4.286709034E0
7.785586001E0,-4.849956036E-1,-3.091010571E0,-2.798838377E0,4.197983247E0
7.795595637E0,-4.979976416E-1,-2.275294304E0,-2.758482933E0,3.610290004E0
7.805587824E0,-4.720174074E-1,-2.106704235E0,-2.698779583E0,3.456069213E0
7.815596678E0,-3.896067142E-1,-8.914432526E-1,-2.600990057E0,2.776979247E0
7.825598762E0,2.490501404E-1,2.128934860E-1,-2.421633244E0,2.443697439E0
7.835597460E0,2.943692207E-1,2.266817093E-1,-2.210083008E0,2.241094540E0
7.845600064E0,4.370878935E-1,2.615242004E-1,-6.024066806E-1,7.888818307E-1
7.855596678E0,1.044617176E0,1.775903702E-1,-6.679146290E-1,1.252546740E0
7.865634439E0,1.071959615E0,1.926956177E-1,-5.325556993E-1,1.212371473E0
7.875596418E0,1.112165809E0,2.074203491E-1,-3.981577456E-1,1.199360487E0
7.885596418E0,1.149791956E0,2.237071991E-1,-2.728216052E-1,1.202704486E0
7.895602408E0,1.189431071E0,2.427911758E-1,-2.082078606E-1,1.231683540E0
7.905595376E0,1.239477754E0,1.628131866E-1,-3.458900452E-1,1.297094121E0
7.915595116E0,1.281461477E0,1.872940063E-1,-2.844552100E-1,1.325947710E0
7.925585481E0,1.328597784E0,2.118806839E-1,-2.241520584E-1,1.363931685E0
7.935709335E0,1.931786418E0,2.366437912E-1,-1.635576248E0,2.542225150E0
7.945573814E0,1.921368361E0,2.615489960E-1,-1.759676576E0,2.618496879E0
7.955591731E0,1.887861133E0,1.868762970E-1,-2.756162643E0,3.345949032E0
7.965614491E0,1.789647222E0,2.209640503E0,-2.869167805E0,4.039489104E0
7.975589908E0,1.634248376E0,3.248867989E0,-3.802576303E0,5.261701009E0
7.985588345E0,6.986913681E-1,4.196877480E0,-3.900111675E0,5.771726023E0
7.995584960E0,5.342699289E-1,5.137285233E0,-4.583089352E0,6.905204698E0
8.005592512E0,-4.689196348E-1,6.033344269E0,-4.543893814E0,7.567568941E0
8.015589908E0,-6.374900341E-1,6.766379356E0,-4.400629997E0,8.096655329E0
8.025586522E0,-1.989911079E0,6.971043587E0,-4.075449467E0,8.316518692E0
8.035589647E0,-1.935110211E0,6.983307838E0,-3.137158394E0,7.896391751E0
8.045590428E0,-2.059809685E0,6.891791344E0,-2.944000483E0,7.772177475E0
8.055587303E0,-1.974352241E0,6.109644890E0,-2.725361347E0,6.975200493E0
8.065612303E0,-1.855957747E0,5.250576973E0,-1.959806919E0,5.903726015E0
8.075586262E0,-1.738057852E0,4.207038879E0,-1.760923505E0,4.880663154E0
8.085587303E0,-1.579720259E0,3.124821663E0,-1.542219281E0,3.826024939E0
8.095584699E0,-1.629393101E0,2.030096054E0,-6.550558805E-1,2.684270864E0
8.105586522E0,-1.485561252E0,3.753376007E-2,-4.996849298E-1,1.567796557E0
8.115586887E0,-1.348745584E0,5.246257782E-2,-3.238946199E-1,1.388083102E0
8.125599022E0,-1.217555285E0,6.590557098E-2,1.330552220E0,1.804758606E0
8.135589595E0,-1.096345425E0,8.103847504E-2,1.405270934E0,1.784188029E0
8.145605845E0,-1.184103847E0,-1.588315010E0,1.277465582E0,2.357279110E0
8.155585272E0,-1.080895662E0,-1.652665138E0,1.325353622E0,2.378276627E0
8.165610481E0,-9.846101999E-1,-1.688276291E0,3.247730732E-1,1.981214685E0
8.175587824E0,-8.982180357E-1,-1.687814713E0,-7.153959274E-1,2.041397922E0
8.185585481E0,1.313576102E-1,-1.652681351E0,-8.400593996E-1,1.858577484E0
8.195591991E0,2.591446042E-1,-1.562641144E0,-1.714088202E0,2.333902661E0
8.205588606E0,1.085857630E0,4.736804962E-2,-1.796988249E0,2.100118399E0
8.215585741E0,1.163224101E0,6.634235382E-2,-1.773171067E0,2.121703856E0
8.225586262E0,1.247388959E0,8.557605743E-2,-1.652409911E0,2.072139231E0
8.235585481E0,1.286805749E0,9.792327881E-3,-6.668380499E-1,1.449357758E0
8.245588606E0,1.293532014E0,3.460025787E-2,1.639647484E-1,1.304341477E0
8.255584439E0,1.266090155E0,5.956268311E-2,1.580936193E0,2.026299889E0
8.265607356E0,1.178339005E0,8.623695374E-2,1.645443559E0,2.025686088E0
8.275588606E0,1.057536125E0,1.130781174E-1,1.709573865E0,2.013408085E0
8.285586522E0,4.031779766E-1,-9.279184341E-1,3.084304333E0,3.246000357E0
8.295603970E0,2.903312445E-1,-1.053803444E0,3.253642082E0,3.432343329E0
8.305586210E0,1.394132972E-1,-2.039779663E0,4.165452003E0,4.640164602E0
8.315626053E0,-8.967430592E-1,-2.186438084E0,4.200706959E0,4.819813125E0
8.325575585E0,-8.830019832E-1,-3.133449554E0,4.249347687E0,5.353050941E0
8.335588345E0,-1.068124533E0,-3.247493744E0,4.832581997E0,5.919540049E0
8.345587564E0,-1.051040530E0,-3.993854523E0,4.740911007E0,6.287431695E0
8.355585220E0,-1.015432239E0,-4.088609219E0,4.639641762E0,6.266905429E0
8.365614908E0,-9.777706265E-1,-4.204175949E0,4.485230923E0,6.224823471E0
8.375586001E0,-9.056143165E-1,-4.892243862E0,4.316564560E0,6.586874592E0
8.385588606E0,-1.037807584E0,-4.936920166E0,4.130979061E0,6.520369108E0
8.395587824E0,-9.291113019E-1,-5.038576126E0,3.962000847E0,6.476723547E0
8.405584960E0,-8.639425039E-1,-5.099562645E0,3.861490011E0,6.454691389E0
8.415585220E0,-7.990471721E-1,-5.165203571E0,3.809017181E0,6.467334552E0
8.425585741E0,-9.340203404E-1,-5.215012074E0,4.406571865E0,6.891053659E0
8.435586001E0,-8.703891635E-1,-5.221267223E0,4.374588013E0,6.867039318E0
8.445588866E0,-8.066898584E-1,-5.130594254E0,5.059264660E0,7.250510659E0
8.455585741E0,3.772646189E-1,-3.812653542E0,5.023786068E0,6.317996682E0
8.465609960E0,5.566905737E-1,-1.687375546E0,5.525074482E0,5.803756426E0
8.475586001E0,1.798019290E0,9.974670410E-2,5.367669106E0,5.661686533E0
8.485628710E0,2.481963158E0,3.907765388E0,5.119904995E0,6.902477715E0
8.495583710E0,2.634553194E0,6.405749321E0,4.871525764E0,8.467954781E0
8.505573606E0,3.432504416E0,8.342224121E0,4.569914341E0,1.011231462E1
8.515582095E0,3.460452795E0,9.275118828E0,3.546644688E0,1.051576204E1
8.525585220E0,3.464640617E0,9.224061966E0,2.452942371E0,1.015401300E1
8.535586783E0,3.329585791E0,7.545932770E0,9.757249355E-1,8.305376695E0
8.545586783E0,2.455608130E0,4.719242096E0,-2.883327007E-1,5.327700535E0
8.555587564E0,1.379462481E0,2.141304016E-1,-5.356827974E-1,1.495233970E0
8.565613085E0,3.240346909E-1,-2.368872166E0,-6.813006401E-1,2.486106269E0
8.575589908E0,-1.154258728E0,-7.704751968E0,-7.781968117E-1,7.829502308E0
8.585586001E0,-1.163978934E0,-9.495372772E0,-8.483546972E-1,9.603991708E0
8.595585481E0,-1.171013117E0,-9.429561615E0,-8.163344860E-1,9.536996695E0
8.605482564E0,4.301099777E-1,-6.955520153E0,-6.655917168E-1,7.000519090E0
8.615586262E0,1.274577379E0,-4.347311974E0,-6.089895964E-1,4.571054279E0
8.625586783E0,2.230580330E0,-1.351927757E0,-7.680423260E-1,2.719023038E0
8.635585481E0,2.955670357E0,1.438053131E0,-1.909180760E0,3.801178139E0
8.645589387E0,3.028874159E0,3.652153015E0,-4.059760094E0,6.244513779E0
8.655587564E0,3.043369770E0,5.126315117E0,-5.226972103E0,7.928583959E0
8.665653345E0,2.957823753E0,5.798862457E0,-5.356300354E0,8.430034439E0
8.675586835E0,2.767534018E0,5.743367195E0,-6.078587532E0,8.808787525E0
8.685585897E0,1.559472442E0,4.523225784E0,-6.044929504E0,7.709260568E0
8.695593866E0,5.733064413E-1,2.722805977E0,-5.880130768E0,6.505250995E0
8.705585012E0,-5.279148817E-1,3.509597778E-1,-4.465394974E0,4.510168418E0
8.715588866E0,-1.900446296E0,-9.888343811E-1,-3.065630436E0,3.739997263E0
8.725589126E0,-1.896344066E0,-2.127937317E0,-1.362085104E0,3.159036858E0
8.735588085E0,-1.889852405E0,-2.254135609E0,-1.186247110E0,3.171726921E0
8.745586001E0,-3.192250729E0,-2.279287815E0,-1.016971231E0,4.052141180E0
8.755584439E0,-3.119997501E0,-1.306262970E0,-1.014670253E0,3.531325966E0
8.765591210E0,-1.910772204E0,2.373342514E-1,-8.634539843E-1,2.110196850E0
8.775588345E0,-1.785435319E0,2.376003265E-1,-7.780817151E-1,1.962051057E0
8.785589908E0,-1.663307309E0,2.395830154E-1,-6.960486770E-1,1.818921380E0
8.795583918E0,9.977686405E-2,2.430305481E-1,-6.156358123E-1,6.693479837E-1
8.805586001E0,3.181704283E-1,1.481456757E-1,-7.379419804E-1,8.171523291E-1
8.815587564E0,1.217222691E0,1.544713974E-1,-6.618444920E-1,1.394105671E0
8.825583918E0,1.329711795E0,-1.143014908E0,-5.872085690E-1,1.849170203E0
8.835585481E0,1.428377390E0,-1.288963318E0,-5.140191317E-1,1.991457775E0
8.845618553E0,1.493562937E0,-2.081853867E0,-4.422214031E-1,2.600077987E0
8.855583033E0,1.459504604E0,-2.113845348E0,-5.721719861E-1,2.631706030E0
8.865604699E0,1.407973289E0,-2.115838528E0,-5.016712546E-1,2.590528036E0
8.875586678E0,1.318982482E0,-2.072996140E0,-4.321275949E-1,2.494746889E0
8.885584960E0,1.237075329E0,-1.995064735E0,-3.639085889E-1,2.375514287E0
8.895587043E0,1.152896285E0,-1.894824982E0,-3.014782071E-1,2.238396896E0
8.905587043E0,1.068663836E0,-1.226682663E0,-1.364341378E0,2.123256966E0
8.915587564E0,9.706209898E-1,-1.137982368E0,-1.404909015E0,2.052042474E0
8.925595376E0,8.656040430E-1,-1.044564247E0,-1.423187613E0,1.966175935E0
8.935597720E0,7.309453487E-1,2.721643448E-1,-1.375182867E0,1.580975158E0
8.945595376E0,6.585594416E-1,1.987304688E-1,-1.304464340E0,1.474727620E0
8.955594856E0,6.022804976E-1,2.249660492E-1,-2.798540890E-1,7.011917228E-1
8.965591731E0,5.805563927E-1,2.507610321E-1,-2.192565054E-1,6.693281971E-1
8.975594074E0,5.849021673E-1,2.759952545E-1,-1.592085063E-1,6.660565099E-1
8.985594335E0,6.275877953E-1,3.005399704E-1,-9.978754818E-2,7.029568047E-1
8.995594856E0,7.059282064E-1,2.232599258E-1,-1.173799992E0,1.387798994E0
9.005594856E0,1.362985134E0,2.453927994E-1,-1.190707326E0,1.826398105E0
9.015595897E0,1.408037543E0,1.508095741E0,-1.753307104E0,2.707583478E0
9.025596418E0,1.455456495E0,1.599807739E0,-1.782649875E0,2.802780581E0
9.035601939E0,1.505097866E0,2.491266251E0,-1.837457657E0,3.442089156E0
9.045586522E0,1.522556782E0,3.246356010E0,-2.547297239E0,4.398378079E0
9.055582251E0,1.508115768E0,4.189224243E0,-2.548911572E0,5.130396001E0
9.065612616E0,1.413523436E0,5.034113884E0,-2.574826479E0,5.828385925E0
9.075597460E0,1.276714325E0,5.746115685E0,-2.610392332E0,6.439098777E0
9.085597199E0,4.485609531E-1,5.864533424E0,-3.135626793E0,6.665291786E0
9.095593814E0,2.966003418E-1,6.495799065E0,-3.086207151E0,7.197781035E0
9.105593293E0,-5.580143929E-1,6.468302727E0,-3.029667616E0,7.164440389E0
9.115594074E0,-6.634428501E-1,6.355134964E0,-2.910738468E0,7.021416898E0
9.125599283E0,-2.056568384E0,4.397047997E0,-2.704790831E0,5.556923433E0
9.135596678E0,-2.205289841E0,3.560741425E0,-2.522246599E0,4.889162575E0
9.145596678E0,-2.127869129E0,2.883484840E0,-1.706628799E0,3.969243469E0
9.155594335E0,-2.048838377E0,2.764781952E0,-1.491988897E0,3.750705108E0
9.165594074E0,-1.944346666E0,2.665310860E0,-3.854118586E-1,3.321582189E0
9.175586783E0,-1.840850353E0,2.597431183E0,1.251693845E0,3.420835608E0
9.185586783E0,-1.894465446E0,2.543975830E0,1.162126780E0,3.378069124E0
9.195584439E0,-1.761057496E0,2.503825188E0,1.270869732E0,3.314449268E0
9.205584960E0,-1.637139559E0,2.456731796E0,2.420287371E0,3.817531665E0
9.215696210E0,-1.521066427E0,2.400771141E0,2.519001961E0,3.797725112E0
9.225593085E0,-1.409519315E0,2.331949234E0,2.451680899E0,3.665442832E0
9.235591106E0,-3.163093328E-1,2.235061646E0,1.265382767E0,2.587807122E0
9.245582147E0,-1.283656359E-1,1.551085472E0,8.586347103E-2,1.558754764E0
9.255587564E0,7.756896019E-1,1.443400383E0,-1.554803848E0,2.258874505E0
9.265597720E0,9.372657537E-1,4.602241516E-2,-3.170897484E0,3.306837766E0
9.275587824E0,1.680691481E0,5.505752563E-2,-4.537114620E0,4.838715146E0
9.285586783E0,1.753655195E0,-3.084564209E-2,-5.404641628E0,5.682113086E0
9.295586522E0,1.813391447E0,-1.585674286E-2,-5.483711243E0,5.775788169E0
9.305588606E0,1.847522020E0,-1.036945343E0,-4.401564598E0,4.884911890E0
9.315596418E0,1.776357532E0,-1.129981041E0,-3.017029762E0,3.678963416E0
9.325589908E0,1.619585633E0,-1.872562408E0,-1.418149471E0,2.853190411E0
9.335588345E0,7.513145208E-1,-1.929937363E0,2.174360752E-1,2.082404903E0
9.345587043E0,5.608024597E-1,-2.004962921E0,1.612455726E0,2.633322840E0
9.355584439E0,-1.403529882E0,-2.656761169E0,2.876355648E0,4.159530966E0
9.365590168E0,-1.410261393E0,-2.673989296E0,3.874239683E0,4.914141743E0
9.375586783E0,-1.621307611E0,-2.726600647E0,4.128631592E0,5.206590850E0
9.385584439E0,-1.634499073E0,-3.332570076E0,4.939174652E0,6.178434816E0
9.395579960E0,-1.652027369E0,-3.374878883E0,4.943757057E0,6.209648601E0
9.405604387E0,-1.641514421E0,-3.456976414E0,4.853633404E0,6.180858576E0
9.415586262E0,-1.626821756E0,-4.139925003E0,4.669952393E0,6.449339765E0
9.425584856E0,-1.750616193E0,-4.234634399E0,3.867271423E0,5.996046515E0
9.435586522E0,-1.674448133E0,-4.356968880E0,3.666307926E0,5.935382732E0
9.445586783E0,-1.597323656E0,-5.110420227E0,3.472339153E0,6.381612410E0
9.455587303E0,-1.523805857E0,-5.178886414E0,3.306366444E0,6.330474535E0
9.465589647E0,-1.450642586E0,-5.272265911E0,3.196964264E0,6.334171789E0
9.475587043E0,-1.579985261E0,-5.917697906E0,3.134445667E0,6.880425247E0
9.485587564E0,-1.469454169E0,-6.007163048E0,3.925140381E0,7.324754634E0
9.495591001E0,-1.399349332E0,-5.981786728E0,3.940432549E0,7.298421725E0
9.505584960E0,-9.262561798E-5,-5.159604549E0,4.651310921E0,6.946669158E0
9.515596678E0,1.152458191E-1,-3.348322868E0,4.600957870E0,5.691516578E0
9.525584439E0,8.142875433E-1,1.803712845E-1,4.537540913E0,4.613553461E0
9.535584960E0,9.288176298E-1,2.618704796E0,4.467632294E0,5.261183832E0
9.545584960E0,1.576560736E0,5.453502655E0,4.348554611E0,7.150955333E0
9.555589387E0,1.686687469E0,7.622322083E0,4.273792267E0,8.900000499E0
9.565591731E0,1.748461843E0,8.878934860E0,4.185214996E0,9.970387537E0
9.575603970E0,2.386071682E0,8.925618172E0,4.660048485E0,1.034775578E1
9.585582251E0,2.409984589E0,7.947374344E0,4.479854107E0,9.435988422E0
9.595585376E0,2.513787270E0,5.445700645E0,4.165518284E0,7.302487558E0
9.605484543E0,3.285243034E0,1.794979095E0,2.563716412E0,4.537335516E0
9.615587876E0,3.250930786E0,-1.936355591E0,1.661378860E0,4.132578332E0
9.625584699E0,3.159486771E0,-4.900237083E0,1.527499557E0,6.027265966E0
9.635588606E0,2.970062256E0,-6.651107788E0,1.517793179E0,7.440577985E0
9.645585741E0,2.076076984E0,-6.720179558E0,2.068054199E0,7.331286184E0
9.655587564E0,1.890342116E0,-6.550459862E0,1.924566269E0,7.084198828E0
9.665590689E0,-1.266366243E-1,-2.477272034E0,1.138719559E0,2.729394768E0
9.675585741E0,-2.015673876E0,3.511095047E-1,-1.485201836E0,2.528249108E0
9.685584960E0,-2.058639288E0,2.146500587E0,-1.516229749E0,3.338324900E0
9.695583918E0,-2.099227428E0,3.586958885E0,-1.520083904E0,4.425345740E0
9.705586783E0,-2.336108923E0,3.757822037E0,-3.773344994E0,5.815218293E0
9.715590949E0,-2.365430355E0,3.785374641E0,-5.146421432E0,6.812486734E0
9.725584178E0,-2.353534460E0,3.674410820E0,-5.884141922E0,7.325540628E0
9.735585220E0,-9.681415558E-1,2.516393661E0,-5.923940659E0,6.508656394E0
9.745587303E0,-7.529571056E-1,1.450227737E0,-5.783631325E0,6.010032961E0
9.755595116E0,8.175950050E-1,3.280086517E-1,-3.640651226E0,3.745716569E0
9.765606001E0,1.014605761E0,-7.091503143E-1,-3.414794922E0,3.632236691E0
9.775599074E0,1.129062414E0,-8.744401932E-1,-3.220672369E0,3.523089283E0
9.785573762E0,1.159147024E0,-9.937314987E-1,-3.028671741E0,3.391751263E0
9.795586262E0,1.085917711E0,-1.043395996E0,-2.853919029E0,3.226878725E0
9.805590689E0,1.558523178E-1,-1.026063919E0,-2.675163269E0,2.869424268E0
9.815590689E0,-5.894994736E-1,-9.501028061E-1,-2.491451025E0,2.730848436E0
9.825584960E0,-1.967880130E0,-8.371200562E-1,-2.299556971E0,3.140268214E0
9.835585741E0,-1.906137586E0,2.403755188E-1,-1.569868803E0,2.481053999E0
9.845586001E0,-1.845032454E0,2.522554398E-1,-1.398602486E0,2.328919594E0
9.855587043E0,-1.944146037E0,1.857414246E-1,-2.659368813E-1,1.971021592E0
9.865589908E0,-1.883905411E0,2.004337311E-1,-1.326172948E-1,1.899173669E0
9.875587824E0,-1.820156693E0,-1.042510033E0,-6.114825606E-3,2.097578353E0
9.885584699E0,-1.714339018E0,-1.124301910E0,9.079233557E-2,2.052134572E0
9.895586522E0,-1.810230255E0,-1.195725441E0,-1.630792022E-2,2.169552685E0
9.905584960E0,-4.489040375E-1,-1.244046211E0,3.484909981E-2,1.323019376E0
9.915588866E0,-3.272911310E-1,-1.252179146E0,8.553558588E-2,1.297069171E0
9.925586783E0,-1.911510229E-1,-1.239892960E0,1.341384053E-1,1.261691871E0
9.935585220E0,-2.788567543E-2,-1.204842567E0,1.823411435E-1,1.218881256E0
9.945603137E0,8.057848215E-1,-1.149520874E0,2.889462560E-2,1.404109083E0
9.955586887E0,9.221376181E-1,-1.086608887E0,7.508141547E-2,1.427127842E0
9.965590324E0,1.001461864E0,-1.030092239E0,1.210963354E-1,1.441762882E0
9.975583866E0,1.092316389E0,-9.996356964E-1,1.667905152E-1,1.490048890E0
9.985586262E0,1.157958508E0,-9.869117737E-1,2.105129510E-1,1.535961737E0
9.995587564E0,1.200024009E0,-9.894151688E-1,5.448706448E-2,1.556267598E0
1.000558600E1,1.193666220E0,-9.715757370E-1,9.997541457E-2,1.542333797E0
1.001559407E1,1.159036160E0,-9.393997192E-1,1.452329159E-1,1.498976068E0
1.002558418E1,1.101125717E0,-9.095487595E-1,1.901961267E-1,1.440809272E0
1.003558861E1,9.951684475E-1,1.566553116E-1,7.357820868E-2,1.010106370E0
1.004559798E1,9.050892591E-1,1.846761703E-1,1.167285517E-1,9.310839971E-1
1.005559017E1,8.366611004E-1,2.125806808E-1,1.613228470E-1,8.781898449E-1
1.006559407E1,7.874133587E-1,2.403059006E-1,2.056260705E-1,8.485568951E-1
1.007558574E1,7.796219587E-1,2.678270340E-1,2.496468723E-1,8.613160161E-1
1.008558444E1,8.131781816E-1,1.953277588E-1,9.220956266E-2,8.413764270E-1
1.009558470E1,8.805975914E-1,2.211456299E-1,1.367039979E-1,9.181750871E-1
1.010558548E1,1.557047844E0,2.469005585E-1,-8.242720962E-1,1.778983519E0
1.011559121E1,1.576664686E0,2.724895477E-1,-1.420867920E0,2.139856942E0
1.012560741E1,1.595622063E0,2.978734970E-1,-1.447242141E0,2.174683471E0
1.013558579E1,1.589941978E0,1.496050835E0,-1.462931871E0,2.627975125E0
1.014557423E1,1.572546959E0,2.340774536E0,-1.465933800E0,3.178221401E0
1.015558397E1,1.511832714E0,3.212943077E0,-1.480682373E0,3.847214793E0
1.016559824E1,1.384173870E0,4.162147522E0,-1.531636596E0,4.646000426E0
1.017559355E1,1.219160080E0,5.028878212E0,-1.586055040E0,5.412165737E0
1.018559694E1,3.529994488E-1,5.736306190E0,-2.245852709E0,6.170386674E0
1.019559824E1,2.409186363E-1,5.839477539E0,-2.208484888E0,6.247795229E0
1.020558319E1,1.243669987E-1,5.887858391E0,-2.170163631E0,6.276300962E0
1.021559381E1,-5.906376839E-1,5.748536110E0,-2.247717619E0,6.200544716E0
1.022559668E1,-6.264826059E-1,4.862417221E0,-2.253504992E0,5.395726683E0
1.023559538E1,-6.653187275E-1,4.121122360E0,-2.197435856E0,4.717522958E0
1.024560111E1,-6.845711470E-1,3.410466194E0,-2.053947926E0,4.039631097E0
1.025559616E1,-7.216348648E-1,3.250049591E0,-1.864028573E0,3.815518542E0
1.026559538E1,-7.885286808E-1,2.349094391E0,-9.202546477E-1,2.643272698E0
1.027559381E1,-2.270653248E0,2.282622337E0,-7.032295465E-1,3.295567129E0
1.028559512E1,-2.175647259E0,2.205149651E0,9.984832406E-1,3.254703482E0
1.029559590E1,-2.084695578E0,2.132410049E0,1.092655182E0,3.176007496E0
1.030567553E1,-2.000260115E0,2.079296112E0,1.185091019E0,3.119127053E0
1.031559986E1,-1.921041846E0,2.043218613E0,1.276244998E0,3.081224654E0
1.032560048E1,-2.042331934E0,1.997921944E0,1.137251854E0,3.075085950E0
1.033558319E1,-1.967875719E0,1.933364868E0,1.194662690E0,3.006269034E0
1.034559694E1,-1.850037098E0,1.851022720E0,1.197829723E0,2.878144962E0
1.035558241E1,-1.735512018E0,1.743337631E0,1.201191545E0,2.737533413E0
1.036559824E1,-1.623809934E0,1.116248131E0,-7.759637833E-1,2.117755506E0
1.037559590E1,2.827787399E-2,2.556228638E-2,-1.831436634E0,1.831833293E0
1.038559355E1,2.504435778E-1,3.178215027E-2,-2.702180862E0,2.713947955E0
1.039559798E1,1.453975558E0,5.897808075E-2,-3.524334431E0,3.812932797E0
1.040559512E1,1.612115383E0,6.709098816E-2,-3.498905420E0,3.853019121E0
1.041558652E1,1.738273621E0,-2.335739136E-2,-2.828041077E0,3.319632070E0
1.042558809E1,1.753020883E0,1.452445984E-3,-1.954745173E0,2.625664300E0
1.043558444E1,1.686885118E0,-1.051102638E0,-9.124354124E-1,2.186992579E0
1.044558704E1,1.509162426E0,-1.876656532E0,1.527512074E-1,2.413036241E0
1.045558392E1,5.142192841E-1,-1.949012280E0,1.372821808E0,2.438792745E0
1.046558756E1,3.097356558E-1,-2.573447227E0,1.278216481E0,2.890052626E0
1.047558574E1,-1.678326488E0,-2.648843765E0,2.968758583E0,4.318180244E0
1.048569913E1,-1.682404160E0,-3.317023277E0,3.173717737E0,4.889336505E0
1.049558897E1,-1.686140537E0,-3.398606777E0,4.038816452E0,5.541266667E0
1.050557621E1,-1.695539713E0,-4.072276115E0,4.087745667E0,6.013979740E0
1.051558788E1,-1.909145355E0,-4.152732372E0,4.097684860E0,6.138488687E0
1.052558548E1,-1.890704274E0,-4.841692924E0,4.091902256E0,6.615165690E0
1.053558652E1,-1.871564031E0,-4.926980972E0,4.031317234E0,6.635466228E0
1.054558574E1,-1.787340879E0,-5.022725582E0,3.968131542E0,6.645933165E0
1.055558600E1,-1.708523273E0,-5.113428593E0,3.865208864E0,6.633705097E0
1.056559069E1,-1.833359480E0,-5.191026211E0,3.764820576E0,6.669470299E0
1.057558470E1,-1.717107534E0,-5.276025295E0,3.738419294E0,6.690342295E0
1.058558548E1,-1.645133138E0,-5.271478653E0,3.679663658E0,6.635877852E0
1.059558756E1,-1.573416471E0,-5.197513580E0,3.644905090E0,6.540269102E0
1.060547621E1,-1.701404810E0,-4.291371346E0,4.219182491E0,6.253970519E0
1.061558548E1,-1.629014492E0,-2.997213364E0,4.119449139E0,5.348536002E0
1.062558574E1,-2.183401585E-2,-1.078592300E0,3.984551907E0,4.128013078E0
1.063558392E1,8.469450474E-2,1.287032127E0,3.803048134E0,4.015818717E0
1.064558756E1,1.946820021E-1,3.482436180E0,3.609712601E0,5.019490800E0
1.065558444E1,2.749872208E-1,5.317112923E0,3.433986187E0,6.335579605E0
1.066569944E1,3.278392553E-1,6.579764366E0,3.265835285E0,7.352989719E0
1.067557881E1,3.374464512E-1,6.705510139E0,3.124048233E0,7.405228808E0
1.068559980E1,2.411026955E-1,6.652062416E0,3.036178827E0,7.316177060E0
1.069558501E1,1.174622774E-1,5.272875786E0,3.005364656E0,6.070356922E0
1.070558647E1,-1.484354377E0,2.886968613E0,3.808897972E0,5.004557867E0
1.071558756E1,-1.429972172E0,1.139802933E-1,4.599337578E0,4.817854094E0
1.072558678E1,-1.376382113E0,-2.224684715E0,5.158864498E0,5.784248673E0
1.073558808E1,9.809250832E-1,-4.047620773E0,5.058384418E0,6.552305004E0
1.074558678E1,2.333528042E0,-5.298070908E0,4.120669365E0,7.105971044E0
1.075558652E1,5.007524967E0,-5.312480927E0,1.391911507E0,7.432037240E0
1.076558340E1,5.898525715E0,-3.372157097E0,5.140970945E-1,6.813834817E0
1.077558808E1,5.971977711E0,-9.037542343E-1,3.111461401E-1,6.047983252E0
1.078558782E1,5.876662254E0,3.304424286E-1,-1.726832390E0,6.134028167E0
1.079558470E1,4.797560215E0,2.749294281E0,-1.977448583E0,5.872436118E0
1.080558861E1,3.073424816E0,3.679263115E0,-2.021607161E0,5.202865814E0
1.081558626E1,9.676201344E-1,3.822325706E0,-2.061257839E0,4.449184915E0
1.082558600E1,-1.988407850E0,3.887658119E0,-2.046099901E0,4.822258417E0
1.083558314E1,-2.076665163E0,3.745988846E0,-1.030324340E0,4.405285334E0
1.084558038E1,-4.266298294E0,1.732372284E0,-1.009869814E0,4.714048356E0
1.085559376E1,-5.023607254E0,4.451026917E-1,-2.032510042E0,5.437448236E0
1.086561012E1,-5.126972675E0,-1.792844772E0,-1.927001357E0,5.763113344E0
1.087558345E1,-5.093459129E0,-2.872485638E0,-3.066683769E0,6.602957593E0
1.088558991E1,-3.990334988E0,-2.948180199E0,-3.881683588E0,6.299365625E0
1.089558756E1,-2.473052740E0,-2.902723312E0,-4.541683674E0,5.930318969E0
1.090558809E1,-2.330888033E0,-1.789577961E0,-4.514452934E0,5.386642145E0
1.091558652E1,-6.180908680E-1,3.827323914E-1,-4.324833870E0,4.385511191E0
1.092558678E1,-4.120994806E-1,3.741788864E-1,-3.008254528E0,3.059318736E0
1.093558704E1,3.215498924E-1,2.867575645E0,-1.414507627E0,3.213598644E0
1.094558678E1,4.077060223E-1,2.937724113E0,6.354105473E-2,2.966561079E0
1.095559121E1,4.390268326E-1,2.909035683E0,8.242437840E-1,3.055259560E0
1.096558939E1,3.522567749E-1,2.780263901E0,9.780302048E-1,2.968247846E0
1.097558314E1,-4.156707525E-1,1.675344467E0,1.004631639E0,1.997209550E0
1.098558496E1,-4.848227501E-1,1.826553345E-1,2.172759771E-1,5.618050556E-1
1.099558626E1,-5.387971401E-1,1.937837601E-1,-1.032296062E0,1.180461631E0
1.100558730E1,-5.894728899E-1,-1.147272110E0,-2.212333202E0,2.560884570E0
1.101558418E1,-6.468455791E-1,-1.297792435E0,-3.012621403E0,3.343435677E0
1.102559579E1,-7.200872898E-1,-2.052213669E0,-3.076797009E0,3.767862322E0
1.103559767E1,-1.869511724E0,-2.072479725E0,-3.074553013E0,4.152483898E0
1.104567355E1,-1.804297686E0,-2.071763039E0,-2.985332012E0,4.057080163E0
1.105558970E1,-1.746581912E0,-2.040232182E0,-2.811028719E0,3.887798630E0
1.106558652E1,-1.687024236E0,-1.983423233E0,-1.779165268E0,3.153640364E0
1.107559069E1,-1.634182811E0,-1.902802467E0,-5.340034366E-1,2.564443479E0
1.108558756E1,-1.779292703E0,-1.276175499E0,-6.612930894E-1,2.287316108E0
1.109558756E1,-1.721491575E0,-1.217487335E0,-5.896353722E-1,2.189401408E0
1.110558991E1,-1.626201868E0,-1.148196220E0,-5.195201635E-1,2.057374122E0
1.111558991E1,6.425416470E-2,-1.029331207E0,-4.104064703E-1,1.109993154E0
1.112558236E1,9.117357731E-1,-9.894809723E-1,-5.416864157E-1,1.450434034E0
1.113558782E1,1.068087339E0,-9.549827576E-1,-4.738637209E-1,1.509088950E0
1.114558887E1,1.805744648E0,-9.202251434E-1,-4.083753526E-1,2.067437660E0
1.115558574E1,1.906299591E0,-8.755149841E-1,-3.435418606E-1,2.125682391E0
1.116558782E1,1.935828328E0,2.016716003E-1,-2.804794312E-1,1.966410807E0
1.117558522E1,1.940917373E0,1.230669022E-1,-4.176120758E-1,1.989146942E0
1.118558678E1,1.911492229E0,1.492805481E-1,-3.552218378E-1,1.949940967E0
1.119558418E1,1.862034798E0,1.761665344E-1,-2.935853899E-1,1.893251335E0
1.120561100E1,1.781422973E0,2.076435089E-1,-2.324798107E-1,1.808488456E0
1.121558532E1,1.706740141E0,2.396078110E-1,-1.721258014E-1,1.732051126E0
1.122560387E1,1.639623046E0,1.709070206E-1,-1.238347292E0,2.061813997E0
1.123558163E1,1.574201226E0,2.023153305E-1,-1.280164003E0,2.039083340E0
1.124558684E1,1.491110563E0,2.337226868E-1,-1.337443590E0,2.016628960E0
1.125558861E1,1.378767014E0,2.649993896E-1,-1.409835815E0,1.989688463E0
1.126558835E1,1.226696491E0,2.960634232E-1,-2.049171686E0,2.406562368E0
1.127558835E1,4.564383030E-1,2.271308899E-1,-2.069235802E0,2.131117352E0
1.128559199E1,2.994420528E-1,2.577495575E-1,-2.037327051E0,2.075283569E0
1.129558861E1,-5.975288153E-1,2.107256889E0,-2.039052725E0,2.992542113E0
1.130558574E1,-7.459564209E-1,3.080517769E0,-2.043662786E0,3.771286026E0
1.131558652E1,-8.676033020E-1,3.213066101E0,-2.072856188E0,3.920875162E0
1.132559095E1,-9.392694235E-1,3.998490334E0,-2.066443920E0,4.597862816E0
1.133558470E1,-9.529712200E-1,4.071899414E0,-2.037050486E0,4.651676436E0
1.134558574E1,-9.078512192E-1,4.145953178E0,-1.988957047E0,4.687117636E0
1.135558470E1,-7.945020199E-1,4.207918167E0,-1.920413613E0,4.693164946E0
1.136558340E1,-6.366691589E-1,4.233775139E0,-1.844306469E0,4.661723490E0
1.137558678E1,1.058821678E-1,4.206170082E0,-1.775136709E0,4.566638603E0
1.138560710E1,1.822206974E-1,4.121210098E0,-1.687899590E0,4.457194418E0
1.139558684E1,2.476840019E-1,3.982509613E0,-1.565080643E0,4.286164673E0
1.140575803E1,2.584950924E-1,2.947130203E0,-1.419193268E0,3.281235389E0
1.141557428E1,2.116546631E-1,2.252621651E0,-6.988285184E-1,2.368008297E0
1.142558970E1,-4.677696228E-1,1.529789925E0,-5.229529738E-1,1.683016769E0
1.143558814E1,-5.603609085E-1,1.617918015E-1,9.980866909E-1,1.156009506E0
1.144560189E1,-1.841826439E0,1.791238785E-1,1.083034158E0,2.144148545E0
1.145560032E1,-1.762662649E0,1.966981888E-1,1.163461566E0,2.121158317E0
1.146559954E1,-1.891686797E0,1.137790680E-1,1.021556973E0,2.152905772E0
1.147559720E1,-1.826271534E0,1.315593719E-1,2.759362698E0,3.311594492E0
1.148559381E1,-1.726996779E0,1.650037766E-1,2.565939426E0,3.097384261E0
1.149557538E1,-1.671628237E0,1.794576645E-1,1.125174999E0,2.023008847E0
1.150559668E1,-1.772035718E0,8.643627167E-2,9.349936843E-1,2.005441349E0
1.151559381E1,-1.674328208E0,9.420490265E-2,-1.883935928E-1,1.687525306E0
1.152559798E1,7.092905045E-2,1.024618149E-1,-3.366453648E-1,3.589699922E-1
1.153559720E1,2.148083448E-1,1.755688667E0,-4.536927342E-1,1.826040092E0
1.154559564E1,3.599801064E-1,1.809869766E0,-4.993951321E-1,1.911703362E0
1.155559798E1,4.670121670E-1,1.797198296E0,-4.436259270E-1,1.909142750E0
1.156559642E1,5.390808582E-1,1.682786942E0,-3.144142032E-1,1.794780308E0
1.157560611E1,5.669685602E-1,3.804206848E-2,8.546261787E-1,1.026297448E0
1.158558434E1,5.140218735E-1,5.823707581E-2,8.744431734E-1,1.016002415E0
1.159559043E1,4.190449715E-1,7.888698578E-2,8.947306871E-1,9.911432021E-1
1.160556840E1,-2.359412909E-1,-1.796793938E0,7.159550190E-1,1.948519524E0
1.161560059E1,-3.418396711E-1,-2.487154007E0,7.377161980E-1,2.616680073E0
1.162560215E1,-1.421153188E0,-2.615752220E0,7.599300742E-1,3.072349228E0
1.163559746E1,-1.393471122E0,-3.326798439E0,1.809554815E0,4.035323810E0
1.164559798E1,-1.365507960E0,-3.366083145E0,2.616395473E0,4.476678792E0
1.165560423E1,-1.536582470E0,-3.413955688E0,2.673666477E0,4.600507750E0
1.166558965E1,-1.455817223E0,-3.518860817E0,3.521139860E0,5.186541348E0
1.167558756E1,-1.415296912E0,-3.566220284E0,3.537719250E0,5.218855234E0
1.168558652E1,-1.338509440E0,-3.628926754E0,3.506758928E0,5.220926650E0
1.169558756E1,-1.465721488E0,-3.698799610E0,3.441368580E0,5.260463453E0
1.170558991E1,-1.392009139E0,-3.778671741E0,3.375374556E0,5.254446019E0
1.171558340E1,-1.319065571E0,-3.857117653E0,3.307219028E0,5.249284548E0
1.172558652E1,-1.245057464E0,-3.925057888E0,3.220524073E0,5.227621143E0
1.173558574E1,-1.171588302E0,-3.977405071E0,3.148341179E0,5.206190779E0
1.174558470E1,-1.299836516E0,-3.961871147E0,3.089288473E0,5.189383511E0
1.175561777E1,-1.227038741E0,-3.808989048E0,3.046818972E0,5.029624985E0
1.176559152E1,-1.154879689E0,-2.255887508E0,2.994385242E0,3.922896701E0
1.177557210E1,-1.083153844E0,1.567173004E-1,2.894209385E0,3.094225351E0
1.178558397E1,-1.013567805E0,1.820007324E0,2.717812061E0,3.424361073E0
1.179558991E1,-1.143796206E0,4.063984871E0,2.489084005E0,4.900998059E0
1.180558387E1,-1.072586536E0,5.945270538E0,2.289771080E0,6.460629633E0
1.181558808E1,-1.001834154E0,7.252551079E0,2.151516438E0,7.631002018E0
1.182558626E1,-9.152132273E-1,7.335211754E0,2.068359852E0,7.676005420E0
1.183558965E1,-8.261772990E-1,7.199339867E0,1.924718261E0,7.497839944E0
1.184558652E1,-8.917462826E-1,2.809324265E0,-1.119077206E-1,2.949582613E0
1.185558991E1,-8.001260161E-1,8.126354218E-2,-1.242351770E0,1.479947069E0
1.186558678E1,-7.127190828E-1,-2.889549255E0,-1.248851538E0,3.227552254E0
1.187558913E1,-6.291486025E-1,-4.768438816E0,-1.251203179E0,4.969843670E0
1.188558600E1,9.698326588E-1,-5.502197266E0,-1.448921323E0,5.771838800E0
1.189558730E1,1.094990969E0,-5.388311863E0,-1.441659093E0,5.684302147E0
1.190559095E1,1.229731321E0,-3.912380219E0,-1.394621730E0,4.331734972E0
1.191558678E1,1.912534237E0,-2.265415192E0,-1.317306876E0,3.244255015E0
1.192558418E1,1.959857702E0,1.770534515E-1,-1.220006347E0,2.315341362E0
1.193568137E1,2.006954193E0,1.491127014E0,-1.324418664E0,2.829383273E0
1.194560194E1,1.968850374E0,2.887934685E0,-1.228831172E0,3.704937866E0
1.195559085E1,1.893193722E0,3.619085312E0,-1.135366321E0,4.239223708E0
1.196558397E1,1.744978547E0,3.602582932E0,-2.263430595E0,4.598551073E0
1.197558626E1,9.033094645E-1,3.445467949E0,-2.911716461E0,4.600577151E0
1.198559095E1,7.151641250E-1,2.170977592E0,-2.911201000E0,3.701309862E0
1.199558835E1,-8.980509043E-1,1.265856743E0,-2.791549444E0,3.194000160E0
1.200559355E1,-8.940233588E-1,6.807804108E-2,-1.980575085E0,2.174072228E0
1.201558678E1,-8.882292509E-1,8.726596832E-2,-7.660154104E-1,1.176157371E0
1.202559069E1,-1.040504694E0,-1.206266403E0,-8.407301307E-1,1.801265057E0
1.203558756E1,-1.025203347E0,-1.213326454E0,5.612974763E-1,1.684712986E0
1.204560345E1,-1.003542900E0,-1.185183525E0,6.621247530E-1,1.688243919E0
1.205559147E1,-9.263503551E-1,-1.116723061E0,7.426348329E-1,1.629939223E0
1.206558704E1,-8.533526659E-1,-1.002377510E0,7.700815201E-1,1.525121960E0
1.207558470E1,-9.811128974E-1,2.426242828E-2,7.313526869E-1,1.223947685E0
1.208558756E1,-9.100726247E-1,4.003810883E-2,6.248750091E-1,1.104673712E0
1.209558626E1,-8.384024501E-1,5.833244324E-2,-5.776199698E-1,1.019787317E0
1.210559277E1,8.035085201E-1,7.674789429E-2,-5.532456040E-1,9.785687914E-1
1.211570584E1,8.966263533E-1,9.526348114E-2,-5.282901525E-1,1.045038006E0
1.212557881E1,1.003055096E0,1.422977448E-2,-7.022446394E-1,1.224528295E0
1.213556913E1,1.107661486E0,3.325653076E-2,-1.689331770E0,2.020361797E0
1.214558574E1,1.195890069E0,5.233001709E-2,-1.778575182E0,2.143879933E0
1.215559022E1,1.258376360E0,7.155036926E-2,-1.847362161E0,2.236375968E0
1.216558548E1,1.245306253E0,9.228324890E-2,-1.845329285E0,2.228125677E0
1.217558809E1,1.222606182E0,-9.444313049E-1,-1.824152231E0,2.390449273E0
1.218558782E1,1.172939777E0,-9.937648773E-1,-1.795985460E0,2.364089704E0
1.219558444E1,1.102972388E0,-1.032970428E0,-1.742033720E0,2.306134748E0
1.220559121E1,1.029026270E0,-1.004687309E0,-1.809417844E0,2.311338268E0
1.221558626E1,9.521818161E-1,2.874755859E-2,-2.336670399E0,2.523391604E0
1.222559095E1,8.612941504E-1,5.101966858E-2,-2.289968729E0,2.447118183E0
1.223558522E1,7.436554432E-1,7.383060455E-2,-2.217575312E0,2.340109963E0
1.224558730E1,6.029329300E-1,9.710788727E-2,-2.079166889E0,2.167000926E0
1.225558782E1,-1.107136011E-1,1.087383270E0,-1.307135940E0,1.703896782E0
1.226558548E1,-1.264331102E0,1.171405792E0,-5.825486407E-2,1.724563219E0
1.227558939E1,-1.256526709E0,1.230538368E0,3.962475806E-2,1.759162916E0
1.228558470E1,-1.246271491E0,1.277566910E0,1.349662095E-1,1.789856340E0
1.229558631E1,-1.233196735E0,1.304128647E0,2.277837098E-1,1.809257067E0
1.230560079E1,-1.216040850E0,1.297909737E0,1.239302158E0,2.167762642E0
1.231556881E1,-1.389161348E0,1.262269974E0,1.301526427E0,2.284089705E0
1.232558970E1,-1.335425615E0,1.187146187E0,2.412041724E-1,1.803013338E0
1.233558782E1,-1.244105458E0,1.101407051E0,2.791341245E-1,1.684877367E0
1.234558704E1,-1.155111909E0,8.665657043E-2,3.170850277E-1,1.200972855E0
1.235559017E1,-1.068385482E0,1.010198593E-1,3.534726501E-1,1.129865242E0
1.236558704E1,4.391623735E-1,1.603412628E-2,1.904125661E-1,4.789338460E-1
1.237559277E1,5.201566219E-1,3.139781952E-2,2.273580730E-1,5.685423711E-1
1.238558861E1,7.006946802E-1,1.106885910E0,3.042170107E-1,1.344885661E0
1.239558678E1,8.032616377E-1,1.156395912E0,-1.173275948E0,1.832773094E0
1.240559668E1,9.135813117E-1,1.189418793E0,-1.228323340E0,1.938588689E0
1.241558782E1,9.667736292E-1,1.223139763E0,-1.315231919E0,2.039744379E0
1.242558652E1,1.004540563E0,1.262381554E0,-1.420227528E0,2.149361570E0
1.243558600E1,1.037602305E0,1.316379547E0,-2.035747528E0,2.636994815E0
1.244558913E1,1.061218381E0,1.373481750E0,-2.022257805E0,2.664988405E0
1.245559434E1,1.057173491E0,1.438216209E0,-1.984026432E0,2.668790463E0
1.246558704E1,1.028678060E0,1.521026611E0,-1.879341722E0,2.627475178E0
1.247560736E1,9.736932516E-1,1.598939896E0,-1.756735206E0,2.567256497E0
1.248559303E1,8.764975071E-1,1.657927513E0,-1.622269630E0,2.479663339E0
1.249568032E1,7.493766546E-1,1.685542107E0,-1.462274551E0,2.353904082E0
1.250559204E1,8.642399311E-2,1.651278496E0,-6.059402823E-1,1.761065985E0
1.251558553E1,-1.825571060E-2,1.553179741E0,-4.636925459E-1,1.621021701E0
1.252558782E1,-1.660125256E-1,4.746532440E-2,6.597675085E-1,6.819870094E-1
1.253558418E1,-1.309367180E0,7.398796082E-2,7.420014739E-1,1.506812137E0
1.254558861E1,-1.291185975E0,1.003627777E-1,1.751356363E0,2.178183422E0
1.255559329E1,-1.470833659E0,2.522373199E-2,2.612946749E0,2.998579431E0
1.256558834E1,-1.386953831E0,-1.233568192E0,3.538695812E0,3.995960393E0
1.257558756E1,-1.340768099E0,-1.199696541E0,3.585476637E0,4.011555010E0
1.258558704E1,-1.296743155E0,-1.101012230E0,3.511632681E0,3.901965508E0
1.259558782E1,-1.413559556E0,2.188491821E-2,3.276268244E0,3.568271735E0
1.260547402E1,-1.331780672E0,3.139972687E-2,1.768944263E0,2.214450159E0
1.261558782E1,-1.249899387E0,4.195785522E-2,4.584515095E-1,1.331986008E0
1.262558496E1,-1.169337630E0,5.362606049E-2,4.168484211E-1,1.242573480E0
1.263558444E1,-1.284470558E-1,6.631946564E-2,3.780284524E-1,4.047251271E-1
1.264558730E1,-8.121573925E-2,-1.981258392E-2,-1.083209276E0,1.086430334E0
1.265564460E1,-5.145239830E-2,-5.114555359E-3,-1.107531190E0,1.108737500E0
1.266558637E1,-4.187810421E-2,1.032924652E-2,8.514750749E-2,9.544929008E-2
1.267560184E1,-9.953592420E-1,2.656936646E-2,8.091004193E-2,9.989956890E-1
1.268560678E1,-9.226455092E-1,-1.219895363E0,1.094344139E0,1.880693629E0
1.269560163E1,-1.050741076E0,-1.372470856E0,1.212327600E0,2.111272429E0
1.270562642E1,-9.801451564E-1,-2.272326946E0,2.096191883E0,3.243173552E0
1.271559381E1,-9.109779596E-1,-2.353525639E0,2.108319998E0,3.288461188E0
1.272559746E1,-8.429129720E-1,-2.423654556E0,2.115178823E0,3.325445104E0
1.273559798E1,-7.759307027E-1,-2.484086514E0,2.107780457E0,3.348953973E0
1.274559564E1,-8.729236126E-1,-2.538091183E0,2.117462873E0,3.418706116E0
1.275559303E1,-8.107120991E-1,-2.531757355E0,2.072642565E0,3.370889588E0
1.276559980E1,-7.513553500E-1,-2.509779453E0,2.031691074E0,3.315312412E0
1.277564616E1,-6.925427318E-1,-2.479162216E0,1.990543604E0,3.253939853E0
1.278560085E1,-8.337846994E-1,-2.450739861E0,1.944859982E0,3.237870154E0
1.279559355E1,-7.739865184E-1,-2.424292088E0,1.875785947E0,3.161458552E0
1.280559642E1,-7.145891786E-1,-2.399421215E0,1.767004013E0,3.064337293E0
1.281559824E1,-6.556038857E-1,-2.366065979E0,1.598979712E0,2.929986483E0
1.282560762E1,-5.970761180E-1,-2.320460796E0,8.341132402E-1,2.537081610E0
1.283561308E1,-7.402125597E-1,-2.239595413E0,6.466770768E-1,2.445790974E0
1.284559173E1,-1.642349720E0,-1.566124916E0,-1.048198819E0,2.499756112E0
1.285562038E1,-1.727345943E0,-1.440960884E0,-1.072544456E0,2.492076220E0
1.286558319E1,-2.506865740E0,1.564226151E-1,-1.094909906E0,2.740013061E0
1.287561835E1,-2.599688768E0,1.826581955E-1,-1.115281701E0,2.834713210E0
1.288559824E1,-3.304907560E0,1.091661453E-1,-1.333082676E0,3.565310737E0
1.289560163E1,-3.361261129E0,1.317100525E-1,-1.319275975E0,3.613296696E0
1.290558522E1,-3.421011925E0,1.953239441E0,-1.294878125E0,4.146706677E0
1.291558678E1,-3.448449850E0,1.989703178E0,-1.196840644E0,4.157301124E0
1.292558704E1,-4.128736019E0,1.884242058E0,9.230041504E-1,4.631281238E0
1.293558887E1,-4.084891319E0,8.901691437E-2,1.973245621E0,4.537395661E0
1.294558913E1,-4.006389141E0,1.013278961E-1,2.889301777E0,4.940595718E0
1.295559355E1,-3.908625126E0,1.157255173E-1,3.061672926E0,4.966345122E0
1.296558444E1,-3.774374008E0,-1.338335991E0,3.195535183E0,5.123327774E0
1.297560657E1,-3.568857431E0,-1.463767052E0,3.199600697E0,5.011666586E0
1.298558574E1,-2.761963844E0,-2.147541046E0,3.066377640E0,4.652209008E0
1.299558418E1,-2.475438356E0,-2.099323750E0,2.222600937E0,3.933816237E0
1.300558913E1,-1.273231030E0,-1.943585396E0,1.964047790E0,3.042388069E0
1.301558600E1,-2.797483206E-1,2.268743515E-1,7.220216990E-1,8.068744809E-1
1.302559574E1,8.999120593E-1,1.692628860E-1,4.798719883E-1,1.033812732E0
1.303559282E1,1.048589468E0,2.123374939E-1,-4.989643097E-1,1.180505174E0
1.304557215E1,1.169550538E0,1.528906822E0,-1.574282289E0,2.486718572E0
1.305560277E1,2.653502464E0,1.672899246E0,-1.598419547E0,3.520598282E0
1.306558678E1,2.712669373E0,2.397183418E0,-1.619843245E0,3.965974735E0
1.307560840E1,2.721154213E0,2.417366982E0,-1.831839442E0,4.074798046E0
1.308559017E1,2.664501190E0,2.362734795E0,-1.796783566E0,3.988798502E0
1.309558809E1,2.540029764E0,2.225903511E0,-1.710631371E0,3.785849618E0
1.310559538E1,2.312174082E0,1.253453255E0,-1.591672540E0,3.074201607E0
1.311558496E1,8.317214251E-1,1.580333710E-1,-1.635793924E0,1.841889475E0
1.312558470E1,7.758035660E-1,1.580829620E-1,-1.521822333E0,1.715460466E0
1.313558392E1,7.246656418E-1,1.604375839E-1,-1.411183476E0,1.594465213E0
1.314558704E1,6.778331399E-1,1.646289825E-1,-1.302291155E0,1.477336360E0
1.315559225E1,6.351128817E-1,1.706819534E-1,2.327972651E-1,6.976354838E-1
1.316558652E1,3.973060846E-1,7.900142670E-2,3.106528521E-1,5.104885354E-1
1.317560736E1,4.126754403E-1,9.143447876E-2,3.395596743E-1,5.421826771E-1
1.318558496E1,4.288983941E-1,1.044178009E-1,3.347615004E-1,5.540055701E-1
1.319558366E1,4.475249052E-1,1.179780960E-1,3.198853731E-1,5.626046781E-1
1.320561986E1,4.669966698E-1,1.321506500E-1,3.093434572E-1,5.755371912E-1
1.321558532E1,2.873894572E-1,5.215263367E-2,2.544343472E-1,3.873621488E-1
1.322558137E1,3.101390004E-1,7.219982147E-2,1.959657669E-1,3.739005156E-1
1.323558553E1,3.334923685E-1,9.222221375E-2,1.491168737E-1,3.767730598E-1
1.324558548E1,3.574384749E-1,1.122121811E-1,1.173633337E-1,3.925913766E-1
1.325559095E1,3.803687096E-1,1.321086884E-1,5.487549305E-2,4.063796015E-1
1.326558548E1,2.044218928E-1,5.222511292E-2,-5.893564224E-2,2.190643344E-1
1.327561022E1,2.307128310E-1,7.235622406E-2,-1.128038406E0,1.153661337E0
1.328558548E1,2.576701641E-1,9.201431274E-2,-1.087329865E0,1.121225571E0
1.329558652E1,3.250982761E-1,1.314191818E-1,-1.005154252E0,1.064563272E0
1.330559043E1,1.519710720E-1,5.090427399E-2,-1.161581278E0,1.172585825E0
1.331558782E1,1.795014739E-1,7.012367249E-2,-1.115869761E0,1.132388375E0
1.332558600E1,2.091828734E-1,8.890533447E-2,-1.066138387E0,1.090097561E0
1.333559121E1,2.396096587E-1,1.037492752E-1,-9.799076915E-1,1.014098508E0
1.334558756E1,2.704091668E-1,1.187973022E-1,-8.940146565E-1,9.415392305E-1
1.335559173E1,1.006540209E-1,3.440666199E-2,-1.009420395E0,1.015009647E0
1.336558522E1,1.327765286E-1,5.036544800E-2,-9.266778231E-1,9.374956387E-1
1.337560814E1,1.652477384E-1,6.648159027E-2,-8.441988826E-1,8.627852399E-1
1.338561366E1,1.185065269E0,8.286857605E-2,-7.634347677E-1,1.412118812E0
1.339558996E1,1.967820287E0,9.950733185E-2,-6.843637824E-1,2.085802526E0
1.340559584E1,2.050652504E0,1.659774780E-2,-8.063661456E-1,2.203560196E0
1.341558189E1,2.131470442E0,3.389644623E-2,-7.299196124E-1,2.253241632E0
1.342558371E1,2.210525513E0,5.138397217E-2,-6.549667716E-1,2.306088642E0
1.343558548E1,2.281633139E0,6.902217865E-2,-5.814347267E-1,2.355563665E0
1.344558496E1,2.294938803E0,8.658027649E-2,-5.095387697E-1,2.352417907E0
1.345559642E1,2.266560793E0,4.839897156E-3,-6.386907101E-1,2.354834830E0
1.346559069E1,2.196359158E0,2.389717102E-2,-5.690494776E-1,2.269004613E0
1.347561178E1,1.990050793E0,6.369972229E-2,-4.606826603E-1,2.043670307E0
1.348558652E1,1.810765386E0,8.428764343E-2,-3.935098052E-1,1.854946268E0
1.349558532E1,1.637121439E0,5.765914917E-3,-5.269555449E-1,1.719849411E0
1.350559512E1,8.798335791E-1,2.779579163E-2,-4.615060091E-1,9.939152526E-1
1.351558496E1,7.865666151E-1,5.029010773E-2,-3.971453309E-1,8.825760867E-1
1.352558730E1,6.695721745E-1,7.317543030E-2,-3.338451087E-1,7.517540137E-1
1.353558470E1,5.517321825E-1,9.638690948E-2,-2.715709209E-1,6.224544984E-1
1.354558470E1,4.237815738E-1,2.015781403E-2,-4.112995863E-1,5.909014380E-1
1.355558939E1,3.000417948E-1,4.383277893E-2,-1.410799503E0,1.443018236E0
1.356565902E1,1.614622474E-1,1.643499374E0,-2.253385305E0,2.793726111E0
1.357562434E1,-8.206024170E-1,1.764513969E0,-2.297033072E0,3.010524673E0
1.358557142E1,-7.987369895E-1,2.654113770E0,-2.327926874E0,3.619605533E0
1.359558371E1,-9.737107754E-1,2.767646790E0,-2.326612949E0,3.744477165E0
1.360557741E1,-9.459870458E-1,3.532938004E0,-2.292219400E0,4.316342457E0
1.361558730E1,-9.151767492E-1,3.596190453E0,-2.220697641E0,4.324538388E0
1.362558887E1,-8.760756850E-1,3.673582077E0,-2.079234123E0,4.311140037E0
1.363558808E1,-8.299965858E-1,3.759177208E0,-1.875463128E0,4.282250525E0
1.364558496E1,-9.476819634E-1,4.336066246E0,-1.127844572E0,4.579476495E0
1.365559694E1,-8.255589008E-1,4.317598343E0,-1.043956637E0,4.518080169E0
1.366558496E1,-7.443273664E-1,4.276573181E0,-9.831498265E-1,4.450807228E0
1.367561361E1,-6.654319167E-1,4.220401764E0,-9.104381800E-1,4.368465218E0
1.368558444E1,-7.879423499E-1,4.131401062E0,-8.275837898E-1,4.286516396E0
1.369558496E1,-7.100874782E-1,3.429397583E0,-7.259738445E-1,3.576594754E0
1.370559173E1,-6.343449950E-1,3.286379814E0,-5.858038664E-1,3.397918779E0
1.371558652E1,-5.607915521E-1,2.197966576E0,5.281545520E-1,2.329053770E0
1.372558522E1,-4.890074730E-1,1.422289848E0,5.968707800E-1,1.618113546E0
1.373558470E1,-6.197288632E-1,-1.170415878E-1,4.641095400E-1,7.830455046E-1
1.374567960E1,-5.506017804E-1,-9.678077698E-2,5.292984843E-1,7.698608477E-1
1.375559647E1,-4.829576910E-1,-7.656669617E-2,5.908234715E-1,7.669308735E-1
1.376557876E1,-4.178376794E-1,-5.641746521E-2,6.482300758E-1,7.732874549E-1
1.377561152E1,-3.555387259E-1,-3.818511963E-2,6.718441248E-1,7.610784565E-1
1.378558444E1,-4.950493574E-1,-1.194648743E-1,4.979513884E-1,7.122508741E-1
1.379558861E1,-4.351724982E-1,-1.006345749E-1,-5.390917659E-1,7.000873895E-1
1.380558991E1,-3.777808249E-1,-8.159542084E-2,-5.656540990E-1,6.850844649E-1
1.381558574E1,-3.208510280E-1,-6.254482269E-2,-5.846824050E-1,6.698587550E-1
1.382558939E1,-2.659651637E-1,-4.342937469E-2,-5.873510838E-1,6.462235484E-1
1.383558809E1,-3.713542521E-1,-1.041040421E-1,-5.672958493E-1,6.859782889E-1
1.384559434E1,-3.160209656E-1,-8.481502533E-2,-5.245727897E-1,6.182551665E-1
1.385559043E1,-2.611188889E-1,-6.364345551E-2,-4.633114934E-1,5.356221648E-1
1.386558496E1,7.202986479E-1,-4.246425629E-2,6.631522775E-1,9.800021930E-1
1.387560501E1,7.804600000E-1,-1.210050583E-1,5.266136527E-1,9.492533777E-1
1.388558418E1,8.043209910E-1,-9.956264496E-2,5.891781449E-1,1.001985960E0
1.389558418E1,7.816862464E-1,-1.542432785E0,6.508463621E-1,1.847629095E0
1.390559251E1,-2.106273174E-1,-1.650153160E0,7.116262913E-1,1.809359361E0
1.391559434E1,-1.607034206E-1,-2.463423729E0,7.703238130E-1,2.586055072E0
1.392558298E1,-3.128323555E-1,-2.586944580E0,1.732648253E0,3.129251718E0
1.393557694E1,-2.655235529E-1,-3.478753090E0,2.807065487E0,4.477928368E0
1.394558308E1,-2.175158709E-1,-3.579251766E0,2.920906067E0,4.624937687E0
1.395558788E1,-1.702562273E-1,-4.228879929E0,3.737807751E0,5.646558192E0
1.396559642E1,-1.261497736E-1,-4.280586243E0,3.786119223E0,5.716120285E0
1.397564095E1,-2.821094990E-1,-4.329317570E0,3.835493088E0,5.790818907E0
1.398559251E1,-2.390269041E-1,-4.377318382E0,3.844977856E0,5.831115227E0
1.399559407E1,-1.946356148E-1,-4.410068512E0,3.809542656E0,5.830883514E0
1.400559616E1,-1.511203349E-1,-4.427822113E0,3.734915495E0,5.794656139E0
1.401559538E1,-2.677617371E-1,-4.397736073E0,3.751051664E0,5.786377753E0
1.402559355E1,-1.240782738E0,-4.294101238E0,4.275375843E0,6.185279771E0
1.403560032E1,-1.321561694E0,-3.320768356E0,4.201097012E0,5.515726959E0
1.404560579E1,-1.395901203E0,-2.230201244E0,4.145821571E0,4.910211224E0
1.405559798E1,-1.425449967E0,9.200477600E-2,4.755551815E0,4.965445152E0
1.406560137E1,-1.340772271E0,1.171351433E0,4.707747459E0,5.033152154E0
1.407563861E1,-1.796487570E-1,2.649080276E0,4.669418335E0,5.371533075E0
1.408559355E1,-1.310466230E-1,3.549094200E0,4.550508022E0,5.772379589E0
1.409560006E1,9.180184603E-1,3.595548630E0,4.325984955E0,5.699550304E0
1.410558579E1,1.062404394E0,3.487500191E0,4.007079124E0,5.417383482E0
1.411560272E1,1.724128008E0,2.136776924E0,2.577276707E0,3.765738737E0
1.412559116E1,1.694801331E0,1.081094742E-1,1.625992417E0,2.351146646E0
1.413557954E1,1.571457624E0,-1.133342743E0,1.324812651E0,2.347141538E0
1.414558423E1,-6.073104590E-2,-2.719579697E0,2.681415081E-1,2.733441394E0
1.415558652E1,-1.674235612E-2,-3.610697269E0,1.180553436E-2,3.610755385E0
1.416559121E1,-1.518879414E0,-3.576928616E0,-8.042609692E-1,3.968406317E0
1.417561282E1,-1.651298523E0,-2.479202747E0,-8.925464153E-1,3.109641809E0
1.418558913E1,-2.265212536E0,3.069887161E-1,-8.657262325E-1,2.444363274E0
1.419558600E1,-1.301675916E0,3.072863579E0,-8.292388916E-1,3.438675312E0
1.420559251E1,-1.428714395E-1,4.355328560E0,-9.539015293E-1,4.460854990E0
1.421558861E1,-9.989173710E-2,4.497489929E0,-2.365733624E0,5.082724624E0
1.422558730E1,1.034521699E0,4.521756172E0,-2.284468889E0,5.170620092E0
1.423558548E1,1.151341200E0,4.399065971E0,-2.204948664E0,5.053629051E0
1.424558861E1,1.253524303E0,3.074373245E0,-4.102795601E0,5.277880803E0
1.425559017E1,1.319543123E0,1.582353592E0,-4.132246017E0,4.617412056E0
1.426558548E1,1.328637958E0,1.714744568E-1,-4.098379135E0,4.311773863E0
1.427561204E1,1.283022046E0,-8.997945786E-1,-3.965599060E0,4.264006538E0
1.428560866E1,1.154775739E0,-1.659611702E0,-3.048667431E0,3.658167726E0
1.429558334E1,1.016027927E0,-1.766366005E0,-1.703081489E0,2.655719897E0
1.430560637E1,8.871409893E-1,-1.810426712E0,-1.764685988E0,2.679324663E0
1.431558413E1,-2.399336994E-1,-1.779892445E0,-3.783115149E-1,1.835403197E0
1.432558111E1,-2.344396263E-1,-1.677991867E0,-1.804450750E-1,1.703871788E0
1.433558730E1,-2.289134264E-1,1.341066360E-1,-1.973390579E-2,2.660364142E-1
1.434558756E1,-2.220041901E-1,1.459598541E-1,6.106340885E-2,2.726148920E-1
1.435559434E1,6.647115350E-1,5.901145935E-2,2.747964859E-2,6.678913895E-1
1.436558600E1,6.984496117E-1,7.207489014E-2,-1.320923328E0,1.495949561E0
1.437561465E1,8.329033256E-1,1.058912277E-1,-2.616704702E0,2.748105602E0
1.438558553E1,8.800706863E-1,1.202516556E-1,-3.332118988E0,3.448478190E0
1.439558548E1,9.043188095E-1,3.537273407E-2,-3.410325050E0,3.528365158E0
1.440559538E1,8.988973498E-1,5.095672607E-2,-3.994111061E0,4.094329762E0
1.441558678E1,8.728559017E-1,6.695938110E-2,-3.923477650E0,4.019954956E0
1.442558678E1,8.255632520E-1,-9.481334686E-1,-3.768408060E0,3.972582418E0
1.443558730E1,7.544140816E-1,-1.673269272E0,-2.767118931E0,3.320529753E0
1.444558704E1,6.627415419E-1,-1.730087280E0,-2.499655008E0,3.111382893E0
1.445559147E1,5.606258512E-1,-1.774697781E0,-7.189879417E-1,1.995193529E0
1.446560241E1,4.543980360E-1,-1.797822952E0,-5.775068402E-1,1.942204699E0
1.447561538E1,3.691656590E-1,-1.807044983E0,-4.400915504E-1,1.896147522E0
1.448560569E1,-5.843738317E-1,-1.804100990E0,-3.067007065E-1,1.921025372E0
1.449557491E1,-7.671366930E-1,-1.780481339E0,-3.785310388E-1,1.975322315E0
1.450561334E1,-7.514025569E-1,-1.733974934E0,-2.545281053E-1,1.906845413E0
1.451558678E1,3.164262176E-1,-1.656938553E0,-1.981184185E-1,1.698476325E0
1.452558861E1,3.852047920E-1,-1.574483871E0,-1.438614726E-1,1.627291712E0
1.453558496E1,4.677070975E-1,-1.472484589E0,-9.012049437E-2,1.547605407E0
1.454558704E1,1.105457902E0,4.950428009E-2,-2.363809645E-1,1.131531620E0
1.455559407E1,1.159855962E0,9.056568146E-2,-1.432243735E-1,1.172169448E0
1.456558626E1,1.211066484E0,1.116085052E-1,-9.219054133E-2,1.219687494E0
1.457561152E1,1.278440237E0,1.325845718E-1,-4.147447646E-2,1.285965878E0
1.458558809E1,1.865090847E0,5.406570435E-2,-1.905584484E-1,1.875579774E0
1.459558574E1,1.864470482E0,7.746219635E-2,-1.382621974E-1,1.871194005E0
1.460557809E1,1.893254995E0,1.692123413E0,-8.658389002E-2,2.540707164E0
1.461558496E1,1.946950674E0,1.774529457E0,-3.548211604E-2,2.634545635E0
1.462558600E1,1.977288127E0,1.890762329E0,-1.407038927E0,3.076427972E0
1.463558392E1,1.957235217E0,2.769638062E0,-1.465646744E0,3.694561552E0
1.464559173E1,1.852264285E0,2.889557838E0,-1.515439153E0,3.751930611E0
1.465561324E1,1.669909954E0,3.740864754E0,-1.521678805E0,4.370145850E0
1.466558012E1,6.616883278E-1,3.849381447E0,-1.480365753E0,4.176966810E0
1.467560032E1,-7.959496975E-2,4.477982521E0,-1.418466568E0,4.697947448E0
1.468558387E1,-1.481785178E0,4.530749321E0,-1.361504555E0,4.957526740E0
1.469558678E1,-1.479224563E0,4.595258713E0,-1.313593864E0,5.003002777E0
1.470559147E1,-1.473496795E0,4.641199112E0,-1.324371338E0,5.046373098E0
1.471558496E1,-1.460381031E0,4.631028175E0,-1.382641435E0,5.048844626E0
1.472558574E1,-1.440943003E0,4.542468071E0,-2.107988596E0,5.210945100E0
1.473558600E1,-1.561170220E0,3.818202019E0,-2.112206459E0,4.634364599E0
1.474558522E1,-1.400599241E0,2.647086143E0,-2.089613199E0,3.651742955E0
1.475558991E1,-1.283771276E0,2.518908501E0,-1.959698677E0,3.439969132E0
1.476558756E1,-1.171786547E0,1.841484070E0,-1.088401079E0,2.439008856E0
1.477558678E1,-1.263886213E0,1.775879860E0,4.482465386E-1,2.225327526E0
1.478558496E1,-1.158627033E0,1.708312988E0,5.280111432E-1,2.130620951E0
1.479558444E1,-1.059740782E0,1.639530182E0,6.059008241E-1,2.044070828E0
1.480559303E1,-9.647408128E-1,1.569445610E0,6.816296577E-1,1.964307346E0
1.481558496E1,-8.762611151E-1,1.503506660E0,7.566909194E-1,1.897616127E0
1.482558522E1,-9.913612604E-1,1.416460037E0,6.305042505E-1,1.840296660E0
1.483562340E1,-9.095334411E-1,1.336614609E0,6.521021724E-1,1.743280510E0
1.484559126E1,-8.294813037E-1,-5.440998077E-2,6.743622422E-1,1.070403715E0
1.485557704E1,-7.511954308E-1,-3.834819794E-2,-7.315720916E-1,1.049267785E0
1.486558746E1,5.954048038E-1,-2.189064026E-2,-1.421112418E0,1.540956387E0
1.487558522E1,7.019436955E-1,-1.049909592E-1,-1.540711045E0,1.696330916E0
1.488558704E1,7.973155379E-1,-8.787536621E-2,-1.650623322E0,1.835208843E0
1.489559069E1,8.680612445E-1,-7.056045532E-2,-1.732399702E0,1.938999183E0
1.490559538E1,9.109456539E-1,-5.298328400E-2,-1.755312204E0,1.978320032E0
1.491559173E1,8.639369607E-1,-2.919197083E-2,-1.684564590E0,1.893408858E0
1.492558418E1,6.737385392E-1,-8.332729340E-2,-8.834894896E-1,1.114190619E0
1.493558522E1,-7.176110148E-1,-5.729579926E-2,-7.091975808E-1,1.010549151E0
1.494558496E1,-6.984742880E-1,-2.106869698E0,8.649436831E-1,2.382203566E0
1.495559121E1,-6.791757941E-1,-2.232062817E0,9.557541013E-1,2.521279453E0
1.496558652E1,-8.590386510E-1,-3.079988480E0,8.451902866E-1,3.307358925E0
1.497558496E1,-8.384886384E-1,-3.175776482E0,2.302240849E0,4.011101143E0
1.498558887E1,-8.175795078E-1,-3.889321327E0,3.071466446E0,5.022864000E0
1.499558418E1,-7.942321897E-1,-3.968901634E0,3.231938124E0,5.179614753E0
1.500558965E1,-7.247344851E-1,-4.075040817E0,4.045815468E0,5.787902948E0
1.501564038E1,-8.624699116E-1,-4.773386002E0,4.075585842E0,6.335571657E0
1.502559126E1,-7.997544408E-1,-4.799016953E0,4.096810341E0,6.360347934E0
1.503559470E1,-7.404593229E-1,-4.833673477E0,4.033031940E0,6.338613880E0
1.504558449E1,-6.816784739E-1,-4.874624729E0,3.896497488E0,6.277686235E0
1.505558001E1,-6.253014207E-1,-4.899168968E0,3.717155695E0,6.181432270E0
1.506558782E1,-7.687203884E-1,-4.910747528E0,3.502151489E0,6.080414244E0
1.507558809E1,-7.108634710E-1,-4.874569416E0,3.322782993E0,5.942023282E0
1.508558600E1,-6.551640630E-1,-4.762043476E0,3.194416046E0,5.771532889E0
1.509559121E1,-5.993950367E-1,-3.635944366E0,3.151850700E0,4.849075034E0
1.510559251E1,-7.048844695E-1,3.950977325E-2,4.061102390E0,4.122011131E0
1.511558678E1,-6.503067017E-1,1.186581612E0,4.792048454E0,4.979417949E0
1.512559095E1,-5.939392447E-1,2.894668579E0,4.694089890E0,5.546742278E0
1.513559017E1,-5.375483036E-1,4.215966225E0,4.580361366E0,6.248442977E0
1.514558730E1,-4.780151844E-1,4.951778412E0,4.525174141E0,6.725013677E0
1.515559590E1,-6.162568927E-1,4.968407631E0,5.340901852E0,7.320524540E0
1.516559460E1,-5.467046499E-1,4.260395050E0,5.279480457E0,6.806083004E0
1.517559121E1,-4.753682911E-1,2.689981461E0,5.098344326E0,5.784037529E0
1.518559486E1,-4.024006128E-1,1.051349640E-1,4.822958946E0,4.840858665E0
1.519567079E1,1.412584782E0,-1.888958931E0,3.662168980E0,4.356035267E0
1.520559725E1,1.569017649E0,-3.774518013E0,2.558974266E0,4.822566942E0
1.521557965E1,2.572522402E0,-4.660966873E0,1.479539752E0,5.525533601E0
1.522558657E1,2.705332518E0,-4.562770367E0,6.326469183E-1,5.342091311E0
1.523559694E1,2.807023525E0,-3.200248718E0,3.661054373E-1,4.272587755E0
1.524559434E1,2.811362267E0,-1.588996410E0,-6.879433393E-1,3.301807599E0
1.525559720E1,2.600914478E0,2.381772995E-1,-8.776619434E-1,2.755317593E0
1.526559642E1,1.167090178E0,1.769810677E0,-1.051470518E0,2.366414918E0
1.527559512E1,-5.041812658E-1,2.991113663E0,-1.066618562E0,3.215374760E0
1.528559564E1,-2.132633686E0,3.624350548E0,-1.293253899E-1,4.207228112E0
1.529559199E1,-2.853715181E0,2.648984909E0,-1.330802441E-1,3.895962235E0
1.530559720E1,-2.957810163E0,1.400207520E0,-2.770274878E-1,3.284199490E0
1.531559512E1,-2.979970932E0,2.875070572E-1,-2.232338428E0,3.734464074E0
1.532559199E1,-2.890737534E0,-8.526592255E-1,-2.163246870E0,3.709855558E0
1.533559381E1,-1.795651436E0,-1.016876221E0,-2.072861433E0,2.924919802E0
1.534559460E1,-6.971601248E-1,-1.677912712E0,-2.183682203E0,2.840755406E0
1.535559460E1,-6.227138042E-1,-1.611264706E0,-3.121613503E0,3.567690751E0
1.536559746E1,-5.498405695E-1,-8.173246384E-1,-3.171667576E0,3.321117196E0
1.537570913E1,1.063545465E0,2.607364655E-1,-3.786759377E0,3.941910582E0
1.538557527E1,1.192614555E0,2.640657425E-1,-3.759129524E0,3.952608629E0
1.539557038E1,1.860354185E0,1.686153412E-1,-3.725911140E0,4.167944656E0
1.540558605E1,1.936126590E0,1.206521034E0,-3.668172836E0,4.319695722E0
1.541558527E1,1.997653842E0,1.281493187E0,-3.568082571E0,4.285330663E0
1.542558756E1,2.012136221E0,1.305819511E0,-3.401670933E0,4.162357734E0
1.543558626E1,1.921030402E0,1.259912491E0,-3.202532768E0,3.941313667E0
1.544558444E1,1.755823135E0,1.135180473E0,-2.963367701E0,3.626719967E0
1.545558652E1,1.025309324E0,8.841228485E-2,-1.180188775E0,1.565861261E0
1.546558965E1,7.914913893E-1,1.193847656E-1,-9.823513627E-1,1.267172262E0
1.547558470E1,-6.548308730E-1,1.323509216E-1,-8.289785385E-1,1.064671619E0
1.548558652E1,-8.704793453E-1,4.732704163E-2,-8.794302344E-1,1.238293857E0
1.549558965E1,-8.838049769E-1,6.388759613E-2,-7.342290282E-1,1.150775881E0
1.550558522E1,-8.948205709E-1,8.591365814E-2,-6.562204361E-1,1.112973617E0
1.551558809E1,-8.781009912E-1,1.058359146E-1,-5.814604759E-1,1.058470064E0
1.552558418E1,-8.577728868E-1,-9.604701996E-1,-5.081496239E-1,1.384374722E0
1.553558340E1,-1.032604575E0,-1.005735397E0,-6.373274922E-1,1.576059082E0
1.554558496E1,-9.532933831E-1,-1.049994469E0,-5.681631565E-1,1.527765044E0
1.555570809E1,-8.755701184E-1,-1.098307610E0,-5.002238154E-1,1.491015259E0
1.556557434E1,1.936366558E-1,-1.135567665E0,-4.335289896E-1,1.230835676E0
1.557560157E1,2.696244121E-1,-1.153248787E0,-3.679717779E-1,1.240194871E0
1.558559309E1,3.289818168E-1,-1.168493271E0,-5.030616522E-1,1.314030664E0
1.559558470E1,3.802284598E-1,-1.176357269E0,-4.414760470E-1,1.312741866E0
1.560556475E1,4.127201438E-1,-1.163436890E0,-3.807916343E-1,1.291869027E0
1.561558626E1,4.272018671E-1,-1.151834488E0,-3.209660947E-1,1.269741453E0
1.562560137E1,3.974017501E-1,-1.138658524E0,-2.618370056E-1,1.234111017E0
1.563558548E1,3.736094236E-1,-1.097253799E0,-4.029329419E-1,1.227153152E0
1.564558600E1,4.172143936E-1,-9.893875122E-1,-3.048727512E-1,1.116200203E0
1.565558470E1,4.951100349E-1,1.133003235E-1,-2.475030124E-1,5.650032311E-1
1.566558730E1,1.223538399E0,1.337184906E-1,-1.908057779E-1,1.245525469E0
1.567558782E1,1.312358379E0,5.438709259E-2,-3.342479467E-1,1.355346510E0
1.568558600E1,2.044428825E0,7.504177094E-2,-1.472001910E0,2.520339285E0
1.569558418E1,2.117823839E0,9.567832947E-2,-1.524718761E0,2.611340548E0
1.570558522E1,2.193529606E0,1.163797379E-1,-1.603062391E0,2.719361213E0
1.571558444E1,2.238083363E0,1.536890984E0,-2.295705795E0,3.555462858E0
1.572558496E1,2.195752382E0,1.643380165E0,-2.332396269E0,3.600291550E0
1.573570600E1,2.096345901E0,2.371912003E0,-2.360618830E0,3.948816778E0
1.574558402E1,1.896467209E0,2.478566170E0,-2.382914543E0,3.926596472E0
1.575560163E1,8.613088131E-1,3.180810928E0,-2.352918386E0,4.049152500E0
1.576558762E1,6.490012407E-1,3.278285980E0,-2.322740316E0,4.069826060E0
1.577559121E1,-1.341986537E0,4.077068329E0,-2.305437565E0,4.872212679E0
1.578558913E1,-1.353390455E0,4.192807198E0,-2.265898943E0,4.954351213E0
1.579558652E1,-1.357628942E0,4.855776787E0,-2.217175961E0,5.507957315E0
1.580558704E1,-1.354364634E0,4.886456490E0,-2.142112970E0,5.504580689E0
1.581558939E1,-1.315053582E0,4.878992081E0,-2.057725191E0,5.456020767E0
1.582558470E1,-1.425359488E0,4.678259850E0,-1.971114993E0,5.272860628E0
1.583558444E1,2.992316484E-1,3.585755348E0,-1.875353098E0,4.057601538E0
1.584559173E1,4.387695789E-1,2.818635941E0,-1.750334978E0,3.346774543E0
1.585558939E1,5.695602894E-1,2.020650864E0,-1.597188950E0,2.637885778E0
1.586559121E1,6.679304838E-1,1.306534767E0,-8.856891394E-1,1.713945589E0
1.587558574E1,6.889009476E-1,1.155156136E0,-7.309634686E-1,1.530776863E0
1.588558340E1,6.274417639E-1,2.245807648E-2,9.615397453E-1,1.148366759E0
1.589558496E1,-9.842260480E-1,4.802322388E-2,1.050649405E0,1.440441361E0
1.590558418E1,-9.480243325E-1,7.378959656E-2,1.137802839E0,1.482831865E0
1.591558277E1,-1.113845587E0,-1.392364502E-4,1.021848679E0,1.511564333E0
1.592557720E1,-1.082499027E0,2.379894257E-2,1.083559871E0,1.531820005E0
1.593560038E1,-1.053383350E0,4.773139954E-2,1.143013120E0,1.555112138E0
1.594558345E1,-1.024993181E0,6.542015076E-2,1.148217678E0,1.540550114E0
1.595559694E1,-1.000374794E0,8.409023285E-2,-6.703412533E-2,1.006138395E0
1.596559199E1,-1.121046185E0,-2.757072449E-3,-2.291795015E-1,1.144235725E0
1.597558548E1,-1.042982340E0,1.077842712E-2,-1.227953792E0,1.611148302E0
1.598559355E1,-9.644899964E-1,2.449417114E-2,-1.354584217E0,1.663051208E0
1.599558913E1,-8.872414231E-1,3.854656219E-2,-1.447472930E0,1.698193471E0
1.600558939E1,-9.708631039E-1,-2.687835693E-2,-1.463365078E0,1.756341357E0
1.601558626E1,-8.952786922E-1,-8.269309998E-3,-1.356094837E0,1.624987854E0
1.602558574E1,-8.195014596E-1,1.087093353E-2,-5.910228491E-1,1.010449814E0
1.603558626E1,-7.448555827E-1,3.135108948E-2,-4.177896976E-1,8.545998838E-1
1.604559512E1,-6.714265943E-1,5.196189880E-2,1.150852442E0,1.333407310E0
1.605558496E1,-8.005115986E-1,-2.694129944E-2,1.017212272E0,1.294706708E0
1.606558574E1,-7.296264768E-1,-1.730449677E0,1.082559824E0,2.167659256E0
1.607558366E1,-6.598814726E-1,-1.861432076E0,1.146772742E0,2.283738306E0
1.608558626E1,-5.915738344E-1,-2.772901535E0,3.003965855E0,4.130708581E0
1.609558340E1,-5.250661373E-1,-2.877555370E0,3.119961739E0,4.276702071E0
1.610558694E1,-6.611073613E-1,-3.554990292E0,3.176417351E0,4.812966456E0
1.611559126E1,-5.966562629E-1,-3.618303776E0,3.225383997E0,4.883771374E0
1.612558501E1,-5.333954692E-1,-3.697318077E0,3.228607178E0,4.937466557E0
1.613558678E1,-4.749942720E-1,-3.779613018E0,3.200508833E0,4.975374450E0
1.614558470E1,-4.194806814E-1,-3.852001190E0,3.091765642E0,4.957105203E0
1.615558782E1,-5.657692552E-1,-3.928805828E0,2.974620819E0,4.960239823E0
1.616559069E1,-5.110084414E-1,-3.995230198E0,2.864031315E0,4.942233233E0
1.617559017E1,-4.581735432E-1,-4.066404819E0,2.800150394E0,4.958468855E0
1.618558913E1,-3.658934236E-1,-4.169007301E0,3.885046721E0,5.710349192E0
1.619558418E1,-1.886955261E0,-4.151277065E0,4.579061985E0,6.462314608E0
1.620558809E1,-1.980388284E0,-4.031245232E0,5.362175941E0,6.994698471E0
1.621558991E1,-2.618947744E0,-2.843033791E0,6.012788773E0,7.148101653E0
1.622558392E1,-2.618571520E0,-1.386734009E0,6.038543701E0,6.726362914E0
1.623559043E1,-2.596497059E0,1.247959137E-1,5.999622345E0,6.538565537E0
1.624558756E1,-2.548434973E0,2.132364273E0,5.788696289E0,6.674616313E0
1.625558392E1,-2.452878475E0,3.781132698E0,5.443926811E0,7.067525481E0
1.626558548E1,-2.260485172E0,4.937768936E0,4.221772194E0,6.878569309E0
1.627558637E1,-1.367236733E0,5.049272537E0,3.941035748E0,6.549523052E0
1.628559642E1,-1.179526091E0,4.984215736E0,3.667711496E0,6.299666334E0
1.629560751E1,-6.917205453E-2,3.649093628E0,2.746009350E0,4.567410254E0
1.630558397E1,4.631752521E-2,1.582649231E0,1.723953128E0,2.340713201E0
1.631558684E1,1.564673781E-1,1.279439926E-1,7.534459829E-1,7.800849664E-1
1.632558548E1,2.616245151E-1,-2.851055622E0,5.187242031E-1,2.909646086E0
1.633558678E1,3.472042680E-1,-4.324876308E0,3.892194033E-1,4.356213681E0
1.634558652E1,1.823880523E-1,-4.379129887E0,3.501398563E-1,4.396890024E0
1.635558782E1,2.177622914E-1,-4.204295158E0,3.271394968E-1,4.222622224E0
1.636558418E1,2.915885448E-1,2.713060379E-1,2.324514389E-1,4.611556322E-1
1.637558574E1,3.264947534E-1,2.056294441E0,2.326682806E-1,2.095013170E0
1.638558756E1,1.603669375E-1,4.018835068E0,2.518306971E-1,4.029909621E0
1.639558392E1,1.944152713E-1,5.247474670E0,2.151149511E-1,5.255479251E0
1.640559616E1,2.286475301E-1,5.316645622E0,5.525970459E-2,5.321846860E0
1.641559407E1,2.630326748E-1,5.155122757E0,-1.964402199E0,5.522984051E0
1.642559460E1,2.975553274E-1,3.401522636E0,-1.923520684E0,3.919033968E0
1.643559512E1,1.304483712E-1,1.723300934E0,-3.560239315E0,3.957535454E0
1.644559720E1,1.653127968E-1,1.648931503E-1,-4.301773071E0,4.308105109E0
