"Time (s)","Linear Acceleration x (m/s^2)","Linear Acceleration y (m/s^2)","Linear Acceleration z (m/s^2)","Absolute acceleration (m/s^2)"
9.027953700E-2,0.000000000E0,0.000000000E0,0.000000000E0,0.000000000E0
1.003058390E-1,-4.145026207E-2,3.669643402E-2,-3.831756115E-2,6.732746830E-2
1.102746420E-1,-4.388115406E-1,9.017086029E-2,-1.034988642E0,1.127780050E0
1.202805790E-1,-3.955998421E-1,8.040170670E-1,-8.962414861E-1,1.267356098E0
1.302782350E-1,-3.863878250E-1,6.592130661E-1,-6.849932075E-1,1.026193506E0
1.402795370E-1,-8.559745550E-1,5.660114288E-1,-5.374943018E-1,1.158430620E0
1.502764120E-1,-7.978572845E-1,5.022954941E-1,-4.264236987E-1,1.034753198E0
1.602758920E-1,-8.140152693E-1,3.931522369E-1,-4.857099652E-1,1.026208415E0
1.702837040E-1,-7.473931313E-1,3.718366623E-1,-4.011389613E-1,9.261595232E-1
1.802944850E-1,-6.523714066E-1,-8.329429626E-1,-3.283081651E-1,1.107776459E0
1.902964640E-1,-5.201519728E-1,-7.910909653E-1,-2.642824948E-1,9.829690876E-1
2.003529230E-1,-3.707835674E-1,-7.545223236E-1,-2.070299834E-1,8.658208849E-1
2.102736000E-1,4.273574352E-1,-7.311143875E-1,-3.408135772E-1,9.128617198E-1
2.202777140E-1,4.719276428E-1,-7.137641907E-1,-2.807593346E-1,9.005558416E-1
2.302761520E-1,5.342414379E-1,-7.105417252E-1,-2.257118672E-1,9.171855342E-1
2.402811000E-1,1.092796326E0,-7.004842758E-1,-1.747876406E-1,1.309745299E0
2.502769330E-1,1.076076984E0,-6.894369125E-1,-1.272994280E-1,1.284316969E0
2.602777140E-1,1.071996450E0,-6.729631424E-1,-2.721784115E-1,1.294657047E0
2.702881310E-1,1.078492165E0,-6.660203934E-1,-2.205694914E-1,1.286615488E0
2.802774540E-1,1.089195251E0,-6.624031067E-1,-1.719709337E-1,1.286350720E0
2.902795370E-1,1.098795176E0,-6.194715500E-1,-1.259722412E-1,1.267661171E0
3.002790170E-1,1.102848768E0,-5.531396866E-1,-8.223432302E-2,1.236527963E0
3.102771940E-1,1.107033014E0,-4.767475128E-1,-2.321412265E-1,1.227477020E0
3.202813600E-1,1.101987600E0,-3.873710632E-1,8.293884397E-1,1.432591427E0
3.302787560E-1,1.075120926E0,-2.919864655E-1,8.166446686E-1,1.381321692E0
3.402769330E-1,1.030002594E0,-1.917457581E-1,7.937362194E-1,1.314415827E0
3.502784960E-1,9.601893425E-1,1.065513611E0,7.623562813E-1,1.624336766E0
3.602963600E-1,8.649859428E-1,9.515304565E-1,7.002542019E-1,1.464229094E0
3.702892250E-1,7.390751839E-1,9.391460419E-1,-3.316997290E-1,1.240262926E0
3.802928190E-1,-1.490855217E-2,9.282064438E-1,-2.822900712E-1,9.702974552E-1
3.902746420E-1,-1.175165176E-1,9.185743332E-1,-2.347185016E-1,9.553437667E-1
4.002808390E-1,-8.962364197E-1,9.101333618E-1,-1.888179332E-1,1.291214416E0
4.102813600E-1,-9.671186209E-1,8.057174683E-1,-3.385585546E-1,1.303503341E0
4.202839640E-1,-1.038944483E0,8.021249771E-1,-2.900283039E-1,1.344219675E0
4.302805790E-1,-1.599913359E0,7.992887497E-1,-2.430830747E-1,1.804902945E0
4.402740690E-1,-1.560504198E0,7.971448898E-1,-1.975943446E-1,1.763421916E0
4.502797980E-1,-1.449109435E0,7.182445526E-1,-3.094508946E-1,1.646679461E0
4.602764120E-1,-1.329504251E0,7.197875977E-1,-1.199491382E0,1.929884793E0
4.702857870E-1,-6.642470360E-1,7.217445374E-1,-1.792352915E0,2.043200498E0
4.802764120E-1,-5.779120922E-1,7.240839005E-1,-1.779863715E0,2.006537995E0
4.902758920E-1,-4.931490421E-1,7.267799377E-1,-1.779274702E0,1.984243816E0
5.002774540E-1,-4.147050381E-1,6.320800781E-1,-1.788941979E0,1.942117118E0
5.102769330E-1,-3.466274738E-1,6.375885010E-1,-1.797849417E0,1.938796593E0
5.202826620E-1,-2.971611023E-1,6.432933807E-1,-1.806165099E0,1.940196758E0
5.302792770E-1,-2.637345791E-1,6.491804123E-1,-1.814031601E0,1.944659812E0
5.403478190E-1,-2.441208363E-1,6.552400589E-1,-1.807158828E0,1.937719677E0
5.502769850E-1,-2.171676159E-1,5.635004044E-1,-1.816567659E0,1.914317774E0
5.602989120E-1,-1.839756966E-1,5.718297958E-1,-1.844795704E0,1.940130810E0
5.702947980E-1,-1.262574196E-1,5.802259445E-1,-1.869945168E0,1.961962797E0
5.802764640E-1,-4.278278351E-2,5.886821747E-1,-1.902096629E0,1.991569395E0
5.902782350E-1,5.303311348E-2,5.971984863E-1,-1.916201472E0,2.007806421E0
6.002777140E-1,7.339453697E-1,5.076208115E-1,-1.914845705E0,2.112578701E0
6.102805790E-1,7.859601974E-1,5.180273056E-1,-1.905086994E0,2.124956982E0
6.202844850E-1,8.628616333E-1,5.284204483E-1,-1.897817969E0,2.150690915E0
6.302761520E-1,1.486757517E0,5.586204529E-1,-1.825843334E0,2.419960455E0
6.402771940E-1,1.480622053E0,4.705085754E-1,-1.736422896E0,2.329975206E0
6.502779750E-1,1.453333855E0,4.823331833E-1,-1.646654844E0,2.248621082E0
6.602777140E-1,1.417572498E0,4.940986633E-1,-1.580898046E0,2.180110986E0
6.702834440E-1,1.369780779E0,5.058059692E-1,-1.531126976E0,2.115771462E0
6.802764120E-1,1.297252655E0,5.174598694E-1,-1.485579491E0,2.039013387E0
6.902761520E-1,1.218046427E0,4.306249619E-1,-1.438944578E0,1.933813966E0
7.002779750E-1,1.133233786E0,4.436922073E-1,-1.410798788E0,1.863178684E0
7.102764120E-1,1.043740988E0,4.566669464E-1,-1.398659468E0,1.803936877E0
7.204144850E-1,9.455349445E-1,4.695520401E-1,-1.385867596E0,1.742166594E0
7.302767770E-1,8.448131084E-1,4.823532104E-1,-1.362894297E0,1.674471460E0
7.402879230E-1,2.496316433E-1,3.965225220E-1,-1.316698670E0,1.397584150E0
7.502628710E-1,2.187716961E-1,4.105720520E-1,-1.265074134E0,1.347903197E0
7.602751620E-1,1.966404915E-1,4.245080948E-1,-1.213700771E0,1.300747542E0
7.702811520E-1,1.723995209E-1,4.383335114E-1,-1.148125648E0,1.240987658E0
7.802805790E-1,1.463742256E-1,4.520549774E-1,-1.075245261E0,1.175555821E0
7.902777140E-1,1.285262108E-1,3.670272827E-1,-9.816590548E-1,1.055879971E0
8.002774540E-1,1.226048470E-1,3.818664551E-1,-8.800215721E-1,9.671049092E-1
8.102792770E-1,1.231861115E-1,4.163875580E-1,-1.967490315E-1,4.767217196E-1
8.202844850E-1,1.128084660E-1,4.307937622E-1,8.809879422E-1,9.871417172E-1
8.302811000E-1,9.399294853E-2,3.463535309E-1,7.118615508E-1,7.972090756E-1
8.402790170E-1,5.822324753E-2,3.617734909E-1,7.424632311E-1,8.279623511E-1
8.502758920E-1,1.269316673E-2,3.770608902E-1,7.728031874E-1,8.599772077E-1
8.602790170E-1,-6.544637680E-2,3.922185898E-1,8.028909564E-1,8.959645854E-1
8.702818810E-1,-1.474452019E-1,4.072523117E-1,8.327355981E-1,9.386389664E-1
8.802735480E-1,-2.326822281E-1,3.233566284E-1,6.647268534E-1,7.749595589E-1
8.902777140E-1,-3.109219074E-1,3.393163681E-1,6.964359283E-1,8.347640580E-1
9.002766730E-1,-8.877487183E-1,3.551387787E-1,7.278727293E-1,1.201673853E0
9.102976620E-1,-8.904025555E-1,3.708267212E-1,7.590466142E-1,1.227387848E0
9.202980790E-1,-8.721357584E-1,3.863859177E-1,7.899665236E-1,1.238532182E0
9.302862560E-1,-8.552056551E-1,3.029432297E-1,6.228882670E-1,1.100518562E0
9.402784960E-1,-8.103542328E-1,1.770733833E0,6.555228233E-1,2.054721992E0
9.502756310E-1,-7.462549210E-1,1.895170212E0,6.878797412E-1,2.149824429E0
9.602813600E-1,-6.655795574E-1,2.943519592E0,7.199680209E-1,3.102524406E0
9.702837040E-1,-5.803623199E-1,3.069181442E0,7.517963052E-1,3.212770274E0
9.802774540E-1,3.458547592E-2,4.075576782E0,5.855006576E-1,4.117563999E0
9.902800580E-1,1.476695538E-1,4.248588562E0,2.075077057E0,4.730566125E0
1.000278496E0,2.212839127E-1,4.796381950E0,2.089994907E0,5.236632992E0
1.010279017E0,3.187685013E-1,4.717455864E0,2.090731621E0,5.169831902E0
1.020285006E0,1.135963440E0,4.604716301E0,2.074351311E0,5.176558558E0
1.030277714E0,1.259897709E0,4.467712402E0,2.033469677E0,5.067819578E0
1.040276673E0,2.312549829E0,3.791996956E0,1.976284266E0,4.861360625E0
1.050278756E0,2.988708258E0,3.676434517E0,1.851617575E0,5.086947557E0
1.060276412E0,3.620072126E0,3.523563385E0,5.946999788E-1,5.086657959E0
1.070286829E0,3.706689119E0,2.689461708E0,4.305201769E-1,4.599793053E0
1.080293652E0,4.317444801E0,2.573869705E0,4.660390317E-1,5.048002303E0
1.090284954E0,4.307076454E0,1.866393089E0,5.012650490E-1,4.720762374E0
1.100290735E0,4.230211258E0,1.700088501E0,5.362064838E-1,4.590479887E0
1.110272610E0,4.052072525E0,-1.946935654E-1,5.708712339E-1,4.096717137E0
1.120287923E0,2.798377275E0,-2.721729279E-1,4.071018100E-1,2.840902209E0
1.130289173E0,1.825277090E0,-2.498807907E-1,4.430372417E-1,1.894824230E0
1.140284225E0,7.904489040E-1,-2.278089523E-1,4.786855578E-1,9.517595557E-1
1.150286048E0,-9.536480904E-2,-1.280959129E0,1.795170188E0,2.207393654E0
1.160291777E0,-8.451354504E-1,-2.162374496E0,1.881371498E0,2.988256366E0
1.170286569E0,-1.896889210E0,-3.078680038E0,2.646651268E0,4.481207693E0
1.180288912E0,-1.944124103E0,-3.160817146E0,2.712743282E0,4.596668323E0
1.190290475E0,-1.958830595E0,-3.891249180E0,2.752765656E0,5.153305370E0
1.200287610E0,-1.925860524E0,-3.955979347E0,2.740969181E0,5.183784660E0
1.210287871E0,-1.856434584E0,-4.027694225E0,2.693974018E0,5.189042893E0
1.220281360E0,-1.774913788E0,-4.689551353E0,2.640825987E0,5.667113264E0
1.230287350E0,-1.697581410E0,-4.689770222E0,2.582407475E0,5.616454018E0
1.240288392E0,-1.643429637E0,-4.700032711E0,2.495158434E0,5.569289368E0
1.250294902E0,-1.624054909E0,-4.723903656E0,2.392717123E0,5.538764784E0
1.260325892E0,-1.664091825E0,-4.779064178E0,2.306396484E0,5.561305671E0
1.270275631E0,-1.750808239E0,-5.493424892E0,2.273095131E0,6.197580819E0
1.280287662E0,-2.981487513E0,-5.559031010E0,2.319932222E0,6.721173935E0
1.290267819E0,-2.918326139E0,-6.411765099E0,2.955311537E0,7.639451905E0
1.300292610E0,-2.855839252E0,-6.520402908E0,3.082521439E0,7.757152206E0
1.310280319E0,-2.992460489E0,-7.536159515E0,4.082765102E0,9.078407950E0
1.320281881E0,-2.929749250E0,-7.610372543E0,4.171698093E0,9.159927178E0
1.330277975E0,-2.867690086E0,-9.265920639E0,4.819476604E0,1.083089500E1
1.340279798E0,-2.806268215E0,-9.156027794E0,4.813053608E0,1.071790424E1
1.350289954E0,-1.400163174E0,-9.206803322E0,4.742508888E0,1.045069734E1
1.360278235E0,-1.329396605E0,-8.057397842E0,4.655255795E0,9.400019247E0
1.370277454E0,-1.271642804E0,-7.368031502E0,4.570546150E0,8.763267413E0
1.380279537E0,-1.215506911E0,-7.234621525E0,4.493012428E0,8.602579052E0
1.390278756E0,-1.160829306E0,-7.083296299E0,4.431541920E0,8.435589779E0
1.400283183E0,-1.097728014E0,-6.439113617E0,4.398714066E0,7.875015962E0
1.410278235E0,-1.017623782E0,-6.370987415E0,4.400563240E0,7.809609186E0
1.420276412E0,-9.179462194E-1,-6.291822433E0,4.437434196E0,7.753739552E0
1.430277714E0,-2.988178730E-1,-6.203165531E0,4.480371952E0,7.657825250E0
1.440291256E0,-2.875323296E-1,-6.096621513E0,4.499343395E0,7.582582654E0
1.450279642E0,-2.921044827E-1,-5.989267349E0,4.497498989E0,7.495608419E0
1.460266829E0,-3.250708580E-1,-5.871582031E0,4.472721100E0,7.388259650E0
1.470264850E0,-3.778154850E-1,-5.745039940E0,4.437800407E0,7.269271002E0
1.480275944E0,-4.379651546E-1,-5.077070236E0,4.413606644E0,6.741541312E0
1.490280839E0,-4.850153923E-1,-4.919146538E0,4.501105309E0,6.685296672E0
1.500285787E0,-4.183142185E-1,-3.429848671E0,6.355799198E0,7.234295552E0
1.510280839E0,8.211426735E-1,-1.499749184E0,9.196595192E0,9.354190827E0
1.520277454E0,3.012099266E0,1.332045555E0,9.155558586E0,9.729919854E0
1.530276673E0,7.011300087E0,5.336586952E0,7.990144253E0,1.189453212E1
1.540278496E0,8.344029427E0,6.678668976E0,7.960716724E0,1.332668215E1
1.550286829E0,8.431146622E0,6.773559570E0,7.992373466E0,1.344780191E1
1.560275371E0,8.446817398E0,6.631525040E0,7.891920090E0,1.332697457E1
1.570277454E0,8.298030853E0,4.717777252E0,6.320814610E0,1.144846870E1
1.580275892E0,6.751326561E0,1.168829918E0,4.334031105E0,8.107428651E0
1.590274589E0,4.380421638E0,-1.307209492E0,3.411346197E0,5.703873531E0
1.600281881E0,1.797738075E0,-4.110668659E0,4.112360954E0,6.086129446E0
1.610277714E0,-5.668497086E-2,-6.095563889E0,4.230743885E0,7.420128444E0
1.620276152E0,-1.036506891E0,-6.809655190E0,4.213551998E0,8.074637501E0
1.630294642E0,-1.128294945E0,-6.090570450E0,4.058987141E0,7.405638021E0
1.640293652E0,-1.139032602E0,-3.978900909E0,3.139245033E0,5.194603651E0
1.650280267E0,-1.050021172E0,-1.142542362E0,2.454032421E0,2.903484568E0
1.660274850E0,-3.320624828E-1,1.304416656E0,1.657516122E0,2.135211465E0
1.670279069E0,-1.911315918E-1,3.842949867E0,9.641162157E-1,3.966650356E0
1.680279537E0,7.583348751E-1,5.288416862E0,2.850097418E-1,5.350107966E0
1.690274329E0,8.544239998E-1,5.971814156E0,1.455034018E-1,6.034382812E0
1.700282402E0,9.374053478E-1,5.904097557E0,-1.131056547E0,6.084109274E0
1.710281621E0,1.004055262E0,4.848230362E0,-1.084676147E0,5.068529072E0
1.720282142E0,1.012952328E0,1.183716774E0,-9.988687634E-1,1.850674641E0
1.730276152E0,9.172050953E-1,-2.236890793E-1,-1.152208567E0,1.489592754E0
1.740281881E0,1.944696903E-1,-1.404499054E0,-1.105852962E0,1.798150946E0
1.750284746E0,6.290006638E-2,-2.065630913E0,-1.059797049E0,2.322489455E0
1.760277714E0,-7.263891697E-1,-2.093698502E0,-1.014035463E0,2.437105365E0
1.770274329E0,-8.061494827E-1,-2.024018288E0,-9.685633779E-1,2.384248736E0
1.780278756E0,-8.994019032E-1,-1.187009335E0,-1.122258544E0,1.864773226E0
1.790278235E0,-9.750657082E-1,-2.196702957E-1,-1.076245904E0,1.468779568E0
1.800282402E0,-1.010985613E0,1.189505577E0,-1.030520797E0,1.870558350E0
1.810313339E0,-9.879066944E-1,1.202859879E0,-9.850783944E-1,1.842067037E0
1.820283183E0,-9.135038853E-1,2.424116135E0,-9.399140477E-1,2.755769729E0
1.830297767E0,-8.042449951E-1,2.511342049E0,-1.093936324E0,2.854881010E0
1.840275944E0,-8.579921722E-2,2.551465034E0,-1.048239231E0,2.759735642E0
1.850282714E0,-1.014661789E-2,2.506660461E0,-1.002818584E0,2.699832353E0
1.860280839E0,8.985996246E-2,2.348941803E0,-9.576697946E-1,2.538254093E0
1.870281100E0,1.817226410E-1,1.149625778E0,-9.127886295E-1,1.479136786E0
1.880281621E0,2.518014908E-1,1.063966751E0,-1.067112446E0,1.527795212E0
1.890279798E0,2.882375717E-1,-6.541461945E-1,-1.021706581E0,1.246945259E0
1.900284746E0,2.925674915E-1,-1.595490456E0,-9.368018508E-1,1.873174642E0
1.910278235E0,2.745614052E-1,-2.467835903E0,-8.921552300E-1,2.638472847E0
1.920281621E0,2.635972500E-1,-2.522574425E0,-1.046731710E0,2.743813498E0
1.930279017E0,2.490093708E-1,-2.558904648E0,-1.001569033E0,2.759191764E0
1.940276152E0,2.459187508E-1,-2.564554214E0,-9.566630721E-1,2.748202792E0
1.950284485E0,2.577209473E-1,-2.523973942E0,-9.120099545E-1,2.696039077E0
1.960278756E0,2.727200985E-1,-2.413891792E0,-8.676059246E-1,2.579532880E0
1.970277975E0,3.051381111E-1,-1.546002388E0,-1.973212481E0,2.525232691E0
1.980277975E0,3.673479557E-1,-1.379460335E0,-2.005640507E0,2.461797956E0
1.990370579E0,4.359350204E-1,-2.465724945E-1,-2.037552118E0,2.098203034E0
2.000277662E0,4.758646488E-1,-1.006917953E-1,-2.059237957E0,2.115903345E0
2.010442923E0,5.005846024E-1,1.243494034E0,-2.057368755E0,2.455530198E0
2.020278131E0,4.974031448E-1,1.157791138E0,-2.034996748E0,2.393554255E0
2.030278235E0,4.748120308E-1,1.172045708E0,-1.994790554E0,2.361848209E0
2.040278496E0,4.206876755E-1,1.186259270E0,-1.948847771E0,2.319956208E0
2.050285267E0,3.293721676E-1,1.200431824E0,-1.907705307E0,2.277907401E0
2.060279017E0,-3.923916817E-1,2.522845268E0,-1.856124401E0,3.156567324E0
2.070277714E0,-4.610793591E-1,2.558813095E0,-8.353521228E-1,2.730921420E0
2.080277975E0,-1.275948882E0,2.645520210E0,-6.661034822E-1,3.011729832E0
2.090276152E0,-1.332856655E0,2.652149200E0,-1.626993537E0,3.384894417E0
2.100286048E0,-1.972267628E0,2.617024422E0,-1.659301519E0,3.673137344E0
2.110275839E0,-3.047625780E0,2.534114838E0,-2.456595659E0,4.663113031E0
2.120277714E0,-2.932247400E0,2.388218880E0,-2.487445831E0,4.526483293E0
2.130275892E0,-2.817268372E0,9.739141464E-1,-3.178963184E0,4.357902795E0
2.140278496E0,-2.702498436E0,9.683361053E-1,-3.176605225E0,4.281587715E0
2.150282142E0,-2.565783739E0,9.572477341E-1,-3.144549847E0,4.169863686E0
2.160277454E0,-2.629854918E0,8.485155106E-1,-3.061602354E0,4.124260471E0
2.170397923E0,-2.475312710E0,8.359870911E-1,-2.920996189E0,3.918962384E0
2.180282142E0,-2.292083263E0,8.182935715E-1,-2.706586361E0,3.639898321E0
2.190283496E0,-2.114020348E0,8.048343658E-1,-1.750848413E0,2.860473833E0
2.200278287E0,-1.956394076E0,7.986354828E-1,-1.549218416E0,2.620185894E0
2.210276464E0,-2.002016544E0,6.957483292E-1,-6.427488327E-1,2.214782618E0
2.220283183E0,-1.850360155E0,2.056028366E0,4.637910426E-1,2.804672437E0
2.230278496E0,1.327126026E-1,2.140441895E0,5.727675557E-1,2.219722237E0
2.240282402E0,3.587721586E-1,2.218040466E0,6.768767238E-1,2.346610976E0
2.250285006E0,1.401229382E0,2.264799118E0,7.735240459E-1,2.773282942E0
2.260277975E0,2.504852057E0,2.293194771E0,6.767635345E-1,3.462807382E0
2.270278496E0,2.670920849E0,2.252493858E0,6.990470886E-1,3.563174651E0
2.280279537E0,2.753021240E0,2.190302849E0,7.208974957E-1,3.591134322E0
2.290279277E0,2.806441784E0,2.086386681E0,7.432006001E-1,3.575118460E0
2.300285527E0,2.793841839E0,5.245323181E-1,5.662524700E-1,2.898504482E0
2.310322767E0,2.756143093E0,5.441207886E-1,5.893522501E-1,2.870492685E0
2.320288912E0,2.664343357E0,5.686197281E-1,6.136558056E-1,2.792602257E0
2.330288912E0,2.547370434E0,5.934171677E-1,6.382150650E-1,2.692314716E0
2.340293860E0,2.420244455E0,6.181373596E-1,1.738512278E0,3.043370165E0
2.350274433E0,2.270748615E0,2.187360764E0,1.792285323E0,3.626724840E0
2.360300319E0,1.576026440E0,2.898167610E0,1.876000404E0,3.795077384E0
2.370283183E0,1.478618383E0,3.620678902E0,2.513500214E0,4.649011869E0
2.380273131E0,1.395234108E0,3.776449203E0,2.494069576E0,4.735887441E0
2.390274381E0,1.319182038E0,4.744804382E0,2.433870316E0,5.493371878E0
2.400289694E0,1.263892651E0,4.775670052E0,2.237893105E0,5.423339803E0
2.410333183E0,1.244242907E0,4.756490707E0,3.076579869E-1,4.926154453E0
2.420292819E0,1.248536944E0,4.662800789E0,2.977252603E-1,4.836237797E0
2.430295944E0,1.318922400E0,3.861229897E0,2.895580530E-1,4.090537432E0
2.440290475E0,2.166682005E0,2.548891068E0,1.245733202E-1,3.347667113E0
2.450285527E0,2.231621742E0,2.405257225E0,1.216390058E-1,3.283320570E0
2.460286569E0,2.297392368E0,1.604022026E0,1.219386011E-1,2.804597543E0
2.470286048E0,2.324782848E0,1.546111107E0,1.454777241E0,3.148245808E0
2.480287350E0,2.289105654E0,1.480211258E0,1.611166835E0,3.166526272E0
2.490287089E0,2.186866760E0,3.796176910E-1,2.663799763E0,3.467322453E0
2.500288392E0,1.375453472E0,4.019670486E-1,2.758196354E0,3.108230508E0
2.510327454E0,1.222197771E0,4.261255264E-1,2.820013523E0,3.102873930E0
2.520289694E0,2.948575020E-1,4.503936768E-1,2.859880686E0,2.910105316E0
2.530336569E0,1.396598816E-1,-1.133695602E0,2.832817316E0,3.054443410E0
2.540276048E0,-6.132683754E-1,-1.890696526E0,2.770869970E0,3.410066252E0
2.550278912E0,-6.972595453E-1,-2.768437386E0,2.644062757E0,3.891206021E0
2.560261152E0,-7.627363205E-1,-3.663138866E0,2.508841038E0,4.504956870E0
2.570279589E0,-7.701170444E-1,-4.473247051E0,2.363200188E0,5.117395292E0
2.580283444E0,-7.689344883E-1,-5.139889240E0,2.228736877E0,5.654820043E0
2.590278756E0,-7.457089424E-1,-5.246979237E0,2.118763208E0,5.707541543E0
2.600277975E0,-7.238862514E-1,-6.046738625E0,2.003619432E0,6.411049066E0
2.610306360E0,-6.829240322E-1,-6.115357399E0,1.883048534E0,6.435048806E0
2.620279017E0,-6.990852356E-1,-6.961547852E0,1.754155397E0,7.213108194E0
2.630284746E0,-7.536020279E-1,-6.968462467E0,1.682397366E0,7.208179109E0
2.640279017E0,-8.509653807E-1,-6.973530769E0,1.658834100E0,7.218448867E0
2.650277454E0,-9.467504025E-1,-6.982912064E0,1.668077707E0,7.241538542E0
2.660278235E0,-1.019120455E0,-6.984073639E0,1.696949601E0,7.259168619E0
2.670284485E0,-1.074621797E0,-6.969812870E0,2.438432693E0,7.461840085E0
2.680280579E0,-1.115818858E0,-6.927142620E0,2.453253269E0,7.432954204E0
2.690275631E0,-1.146754861E0,-6.857356071E0,3.021176100E0,7.580625570E0
2.700278756E0,-1.169827819E0,-6.761230469E0,3.010518312E0,7.493060462E0
2.710308964E0,-1.164541364E0,-6.637537956E0,3.567566395E0,7.624998144E0
2.720277454E0,-1.108914256E0,-6.489243984E0,3.557356358E0,7.482964825E0
2.730284537E0,-1.027890205E0,-5.672992706E0,4.063529015E0,7.053486554E0
2.740264329E0,-9.523667097E-1,-5.558975697E0,3.975359917E0,6.900195621E0
2.750276985E0,-8.845617771E-1,-5.410734177E0,3.820394278E0,6.682357840E0
2.760275423E0,-8.392932415E-1,-4.709780693E0,3.634126186E0,6.007771672E0
2.770277194E0,-7.761065960E-1,-4.513727665E0,3.459027052E0,5.739420444E0
2.780283183E0,1.856231689E-2,-3.141777039E0,4.223955154E0,5.264304766E0
2.790278756E0,1.140197515E0,-1.724078178E0,5.151744366E0,5.550942798E0
2.800277714E0,2.933334351E0,1.390714645E-1,4.962305069E0,5.766130668E0
2.810300892E0,6.344301224E0,4.354126930E0,3.564866304E0,8.480380364E0
2.820279277E0,7.527230263E0,5.794670105E0,3.360766172E0,1.007631611E1
2.830284746E0,7.523636341E0,6.020126343E0,3.192082405E0,1.015068545E1
2.840277975E0,7.485980034E0,6.099020004E0,3.029885769E0,1.012018527E1
2.850277194E0,7.391758919E0,5.944982529E0,2.226029634E0,9.743517081E0
2.860278756E0,6.120768547E0,3.962500095E0,9.287614822E-1,7.350361386E0
2.870277194E0,3.914408445E0,1.891792297E0,8.171048164E-1,4.423701149E0
2.880283704E0,1.609988451E0,-1.469373703E-2,8.526601791E-1,1.821896841E0
2.890277975E0,-2.435662746E-1,-1.671160221E0,8.599057198E-1,1.895135579E0
2.900293287E0,-1.550490499E0,-2.334486008E0,7.248253822E-1,2.894687814E0
2.910315787E0,-3.190495968E0,-2.205095291E0,-4.246459007E-1,3.901542503E0
2.920300006E0,-3.437537193E0,-8.827476501E-1,-1.359250069E0,3.800456041E0
2.930280892E0,-3.483401060E0,6.383032799E-1,-2.343100309E0,4.246367045E0
2.940279798E0,-3.488450527E0,2.215279102E0,-3.949406385E0,5.716166493E0
2.950282662E0,-2.393125534E0,3.488300323E0,-3.894545555E0,5.750023830E0
2.960276933E0,-1.505623102E0,4.322659969E0,-3.849268436E0,5.980732199E0
2.970281100E0,-1.307685375E0,4.368248463E0,-5.317575932E0,7.004873265E0
2.980286829E0,-5.615313053E-1,4.308829308E0,-5.315733910E0,6.865737718E0
2.990281621E0,-3.440485001E-1,3.192272663E0,-5.299735069E0,6.196463986E0
3.000275683E0,-1.911108494E-1,1.889504433E0,-5.127952576E0,5.468331370E0
3.010301412E0,-4.535961151E-2,1.713961601E0,-4.931841850E0,5.221377778E0
3.020276673E0,9.393143654E-2,1.645339012E0,-4.744963646E0,5.023011406E0
3.030283704E0,2.138714790E-1,1.574848175E0,-4.523543358E0,4.794614927E0
3.040275892E0,3.207488060E-1,1.512326241E0,-4.299854755E0,4.569328328E0
3.050277975E0,4.160695076E-1,1.457919121E0,-4.096749306E0,4.368294504E0
3.060277194E0,4.861149788E-1,1.311393738E0,-3.912707806E0,4.155158683E0
3.070277454E0,5.193665028E-1,1.279295921E0,-3.741641045E0,3.988259937E0
3.080337819E0,5.334362984E-1,1.252264023E0,-3.562129974E0,3.813330489E0
3.090290527E0,5.447473526E-1,1.230221748E0,-3.381352425E0,3.639194890E0
3.100299433E0,5.294544697E-1,1.212784767E0,-3.181358576E0,3.445607539E0
3.110353964E0,4.858844280E-1,1.099747658E0,-2.974543571E0,3.208338830E0
3.120280892E0,4.245016575E-1,1.089712143E0,-2.771867990E0,3.008475755E0
3.130285787E0,3.575143814E-1,1.082459450E0,-2.554310799E0,2.797148307E0
3.140283444E0,2.953815460E-1,1.077804565E0,-1.332556248E0,1.739143206E0
3.150283964E0,2.373924255E-1,-3.600845337E-1,-1.182047725E0,1.258273761E0
3.160281621E0,1.879756451E-1,-4.916992188E-1,-1.238195777E0,1.345448530E0
3.170279537E0,1.081058979E-1,-1.283866882E0,-1.061692953E0,1.669488839E0
3.180283704E0,1.333222389E-1,-1.361124516E0,-9.329997897E-1,1.655573427E0
3.190281881E0,2.088642120E-1,-1.396363735E0,-2.241328716E0,2.648964015E0
3.200278496E0,3.318727016E-1,-1.388590813E0,-2.217182636E0,2.637086039E0
3.210277714E0,1.062096357E0,-1.352260113E0,-2.211899042E0,2.801634069E0
3.220282923E0,1.134096384E0,-1.280663013E0,-2.194027424E0,2.782090706E0
3.230282142E0,1.216989279E0,-1.200302124E0,-2.166913033E0,2.759945685E0
3.240276673E0,1.820122957E0,-1.100257874E0,-2.114844084E0,2.999330003E0
3.250278496E0,1.837102652E0,-3.720884323E-1,-2.056105614E0,2.782259199E0
3.260329537E0,1.815167189E0,-3.261547089E-1,-1.943827629E0,2.679491494E0
3.270275475E0,1.724936008E0,-2.580652237E-1,-1.850111604E0,2.542619680E0
3.280290944E0,1.581080198E0,-1.914777756E-1,-1.789223313E0,2.395370200E0
3.290275423E0,7.812240124E-1,-1.271533966E-1,-1.747558355E0,1.918447067E0
3.300280319E0,6.546642780E-1,-6.511974335E-2,-1.712321520E0,1.834358440E0
3.310281881E0,-5.643367767E-3,1.647186279E-2,-1.672895789E0,1.672986399E0
3.320283183E0,-1.043467522E-1,1.043722153E0,-1.631161690E0,1.939312413E0
3.330286048E0,-2.098839283E-1,1.065583229E0,-1.582746983E0,1.919532988E0
3.340279537E0,-3.072504997E-1,1.087409019E0,-1.519369006E0,1.893500310E0
3.350279537E0,-3.934788704E-1,1.027340889E0,-1.429419994E0,1.803745116E0
3.360277975E0,-3.941335678E-1,1.046072006E0,-1.333539844E0,1.740096671E0
3.370278235E0,-3.295996189E-1,1.053005219E0,-1.238346338E0,1.658601083E0
3.380282662E0,-2.381138802E-1,1.059892654E0,-1.154919028E0,1.585531022E0
3.390276673E0,-1.372504234E-1,9.668607712E-1,-1.091968894E0,1.464941465E0
3.400279277E0,-4.086613655E-2,9.745941162E-1,-1.027465343E0,1.416752895E0
3.410279537E0,6.081533432E-2,9.831695557E-1,-9.763900042E-1,1.386960100E0
3.420279017E0,1.425468922E-1,9.924860001E-1,-9.324228764E-1,1.369218937E0
3.430281621E0,2.262983322E-1,1.002408981E0,-8.861624599E-1,1.356951954E0
3.440316933E0,3.118662834E-1,9.130954742E-1,-8.379565477E-1,1.277957394E0
3.450274329E0,3.984007835E-1,9.244031906E-1,-7.875333428E-1,1.278066199E0
3.460421308E0,4.691219330E-1,9.368190765E-1,-7.255671620E-1,1.274422644E0
3.470285839E0,5.303668976E-1,9.503421783E-1,-6.633310914E-1,1.274538128E0
3.480284225E0,5.643529892E-1,9.646072388E-1,-5.963487029E-1,1.266725383E0
3.490277714E0,5.642411709E-1,8.799247742E-1,-5.253203511E-1,1.169870582E0
3.500279537E0,5.288887024E-1,8.960742950E-1,-4.556904435E-1,1.135925254E0
3.510279537E0,4.544723034E-1,9.123973846E-1,-3.885810971E-1,1.090875488E0
3.520283444E0,-1.686682701E-1,1.920244217E0,-3.333643675E-1,1.956251170E0
3.530289173E0,-3.189487457E-1,2.886015892E0,-2.437638044E-1,2.913801095E0
3.540287871E0,-3.898730278E-1,4.106086731E0,-1.759608388E-1,4.128306122E0
3.550290475E0,-4.211308956E-1,4.885491371E0,-1.360681057E-1,4.905496071E0
3.560288912E0,-3.981568813E-1,5.677678108E0,-1.555650830E-1,5.693747281E0
3.570285787E0,-2.827696800E-1,6.334869385E0,-2.240184546E-1,6.345133023E0
3.580287089E0,6.098062992E-1,6.437948227E0,-3.297650814E-1,6.475166878E0
3.590289173E0,1.385838747E0,7.153918266E0,-1.014959335E0,7.357257508E0
3.600287871E0,1.583385229E0,7.166864395E0,-1.033067703E0,7.412036355E0
3.610289173E0,2.461573601E0,7.143483162E0,-1.021494031E0,7.624444001E0
3.620320267E0,2.574630022E0,7.078755379E0,-9.549477696E-1,7.592721693E0
3.630275996E0,2.653755426E0,6.958922386E0,-2.738755345E-1,7.452786489E0
3.640290787E0,2.642118931E0,6.251091003E0,9.140977859E-1,6.847810303E0
3.650264069E0,2.521996260E0,6.133477211E0,9.446952343E-1,6.698690687E0
3.660290475E0,1.414457798E0,5.999140739E0,2.750731468E0,6.749585475E0
3.670280839E0,1.280189276E0,5.243368149E0,3.941159964E0,6.683153147E0
3.680290735E0,5.543544292E-1,5.164425850E0,4.976634026E0,7.193433771E0
3.690288912E0,5.447874069E-1,5.075987816E0,5.704195499E0,7.655082751E0
3.700290475E0,5.663602352E-1,4.992053032E0,5.718997955E0,7.612377750E0
3.710288912E0,5.397448540E-1,4.868628502E0,4.904412270E0,6.931675678E0
3.720285787E0,4.854004383E-1,4.814953804E0,3.478847265E0,5.960014431E0
3.730288392E0,3.791924715E-1,4.777507782E0,1.788060188E0,5.115224997E0
3.740286569E0,-4.859918356E-1,4.739614487E0,3.052538037E-1,4.774234329E0
3.750286308E0,-5.900291204E-1,4.710426331E0,-1.752817512E0,5.060496004E0
3.760285267E0,-1.803214788E0,4.664361000E0,-3.480333090E0,6.092664895E0
3.770278235E0,-1.927430511E0,4.579105377E0,-4.697888374E0,6.837642109E0
3.780278496E0,-1.852590561E0,4.444851875E0,-4.888156414E0,6.861696081E0
3.790274329E0,-7.694503069E-1,3.465767860E0,-4.905593872E0,6.055448115E0
3.800331569E0,7.769637108E-1,3.293309212E0,-3.817769766E0,5.101462943E0
3.810275162E0,2.560244322E0,2.136025429E0,-2.666111231E0,4.269145666E0
3.820419381E0,4.047691822E0,1.977384567E0,-1.704501867E0,4.816553273E0
3.830276412E0,5.189265251E0,2.299194336E-1,-1.486950517E0,5.402995339E0
3.840279069E0,5.959955215E0,2.446203232E-1,1.305210963E-2,5.964987479E0
3.850279017E0,6.043905735E0,2.599964142E-1,1.030752808E-1,6.050373475E0
3.860281100E0,5.998717308E0,2.776718140E-1,1.921355724E-1,6.008213300E0
3.870280839E0,4.985971451E0,-1.083169937E0,8.043615520E-2,5.102904898E0
3.880279537E0,3.456448555E0,-1.201921463E0,1.634179950E-1,3.663107596E0
3.890283704E0,3.905787468E-1,-2.853708267E0,2.447576523E-1,2.890693505E0
3.900276933E0,-7.972202301E-1,-3.610736370E0,2.856611311E-1,3.708716693E0
3.910283704E0,-2.215291977E0,-4.345459938E0,1.268276572E-1,4.879203405E0
3.920276673E0,-2.258144140E0,-4.458537102E0,1.692990065E-1,5.000642979E0
3.930277194E0,-2.309324980E0,-5.283071995E0,2.125656009E-1,5.769663396E0
3.940278496E0,-4.007534504E0,-5.341244698E0,1.258154988E0,6.795011530E0
3.950276673E0,-4.100282669E0,-5.421254158E0,1.344356179E0,6.928896604E0
3.960276933E0,-4.135850906E0,-6.137626171E0,1.429174423E0,7.537788619E0
3.970279537E0,-4.127162933E0,-6.185156822E0,1.528372645E0,7.591150225E0
3.980361569E0,-4.100557804E0,-6.262268066E0,1.601089716E0,7.654675951E0
3.990277089E0,-4.065694809E0,-6.903953552E0,1.644554734E0,8.179181451E0
4.000301569E0,-4.010871887E0,-6.984697342E0,1.679860711E0,8.227698479E0
4.010280319E0,-3.862857342E0,-7.625107288E0,2.282781839E0,8.847317160E0
4.020280319E0,-3.686017990E0,-7.717210770E0,2.290633917E0,8.853760468E0
4.030279069E0,-3.520118237E0,-9.259966850E0,2.283843040E0,1.016632468E1
4.040279537E0,-3.372701168E0,-9.214468956E0,2.284095287E0,1.007465347E1
4.050276673E0,-3.226930618E0,-9.168149948E0,2.298355341E0,9.987516806E0
4.060280058E0,-3.058385849E0,-9.319258690E0,2.857254744E0,1.021597823E1
4.070279017E0,-1.590677381E0,-9.228497505E0,3.742293596E0,1.008465082E1
4.080279277E0,-1.471402526E0,-1.023482132E1,3.713021040E0,1.098649708E1
4.090280319E0,-1.365090728E0,-1.024411678E1,3.686917305E0,1.097263690E1
4.100277714E0,-1.458009601E0,-1.025304127E1,3.678381920E0,1.099004735E1
4.110278548E0,-1.351292491E0,-1.025917053E1,4.282817841E0,1.119906693E1
4.120278496E0,-1.304564238E0,-1.024939156E1,4.235433578E0,1.116650405E1
4.130278756E0,-1.257835031E0,-1.019908428E1,4.912774086E0,1.139029492E1
4.140279017E0,-1.209916592E0,-1.009972572E1,4.806753159E0,1.125047705E1
4.150277454E0,-1.371361613E0,-9.040936470E0,5.329021454E0,1.058383837E1
4.160379642E0,-1.331156015E0,-8.934819221E0,5.159913540E0,1.040325327E1
4.170275579E0,-1.287152052E0,-8.810260773E0,4.966673851E0,1.019535700E1
4.180452610E0,-1.240456462E0,-8.671178818E0,5.382553577E0,1.028104846E1
4.190277975E0,-1.190083265E0,-8.501348495E0,5.054481506E0,9.961777337E0
4.200276204E0,-1.335112453E0,-8.509183884E0,4.718282223E0,9.820943069E0
4.210277194E0,-1.259001851E0,-8.290260315E0,4.387094498E0,9.463619809E0
4.220273808E0,-1.178727984E0,-8.049858093E0,4.787460327E0,9.439777082E0
4.230280058E0,-1.089147568E0,-7.767157078E0,5.397472858E0,9.520907769E0
4.240281100E0,-9.986520410E-1,-7.464334488E0,4.988394260E0,9.033143005E0
4.250280839E0,-1.064667463E0,-7.304744720E0,6.836082935E0,1.006105572E1
4.260277714E0,-9.652345181E-1,-4.492790222E0,8.771974564E0,9.902746053E0
4.270279798E0,2.202730179E0,-2.019853592E0,9.911090851E0,1.035188633E1
4.280277454E0,3.909517288E0,2.690453529E-1,9.521395683E0,1.029629480E1
4.290275892E0,4.729732990E0,1.621409416E0,9.124582291E0,1.040467898E1
4.300276152E0,4.850840092E0,2.064612865E0,8.794891357E0,1.025394509E1
4.310276673E0,4.950966835E0,2.523202896E0,8.354516983E0,1.003377195E1
4.320278496E0,4.987251282E0,2.906042576E0,7.052391052E0,9.113395545E0
4.330278235E0,4.802583218E0,3.060381889E0,5.547729492E0,7.950348759E0
4.340358756E0,3.581504345E0,1.705300331E0,3.042943954E0,4.999473022E0
4.350276777E0,1.577683330E0,2.488455772E-1,1.855927944E0,2.448566385E0
4.360302089E0,-1.105542779E0,-8.546297550E-1,2.985620499E-1,1.428900330E0
4.370270475E0,-1.162561059E0,-8.466625214E-1,-4.970293045E-1,1.521651659E0
4.380274121E0,-1.206547260E0,-7.412002087E-1,-1.625387669E0,2.155694578E0
4.390279017E0,-1.439263344E0,2.128839493E-2,-2.368975639E0,2.771998872E0
4.400279017E0,-1.472894788E0,9.151778221E-1,-2.469327450E0,3.017374282E0
4.410281360E0,-1.504983306E0,1.748306751E0,-3.404932976E0,4.112799511E0
4.420283444E0,-1.380072594E0,1.829235077E0,-3.503825188E0,4.186584799E0
4.430281881E0,-1.424046159E0,2.608691216E0,-4.230538845E0,5.170167912E0
4.440276673E0,-1.316766143E0,2.566922665E0,-4.955182552E0,5.733829363E0
4.450285527E0,-1.216280222E0,2.525032043E0,-4.986571312E0,5.720228828E0
4.460277975E0,-1.116486788E0,2.493259907E0,-5.045467854E0,5.737563383E0
4.470278496E0,-1.023923635E0,2.434611320E0,-5.801651001E0,6.374551453E0
4.480275892E0,-1.131262183E0,2.347419262E0,-5.805480003E0,6.363468346E0
4.490274589E0,-1.041173697E0,2.266051292E0,-5.822759628E0,6.334316128E0
4.500275371E0,-9.519618154E-1,2.209608078E0,-7.384765625E0,7.766811604E0
4.510276412E0,-8.670488596E-1,2.765537262E0,-7.228598118E0,7.787977967E0
4.520355892E0,4.975558519E-1,2.717718601E0,-7.069609165E0,7.590318173E0
4.530275423E0,6.747902036E-1,4.115364075E0,-7.107147217E0,8.240334025E0
4.540399121E0,1.832190990E0,3.973752499E0,-6.929612160E0,8.195557176E0
4.550274121E0,2.610137701E0,3.835071087E0,-6.748569012E0,8.189247387E0
4.560285006E0,3.503005028E0,3.698364258E0,-7.760730743E0,9.283204408E0
4.570279277E0,4.370095730E0,3.517295837E0,-7.618067741E0,9.460658688E0
4.580277714E0,5.148500443E0,3.246088982E0,-7.459788322E0,9.627699221E0
4.590279017E0,5.229243755E0,3.055173874E0,-7.239572525E0,9.438775768E0
4.600277714E0,6.039138794E0,2.882615089E0,-6.985401154E0,9.673494529E0
4.610274589E0,5.924531937E0,2.749344826E0,-6.680823803E0,9.343039245E0
4.620277454E0,5.678863525E0,2.493122101E0,-6.356605053E0,8.880967095E0
4.630281100E0,4.832704067E0,2.359977722E0,-6.037247658E0,8.085349883E0
4.640278235E0,4.484415054E0,2.246511459E0,-5.702042103E0,7.594081660E0
4.650280058E0,3.087698936E0,2.151358604E0,-5.345994473E0,6.537727852E0
4.660277714E0,2.039576292E0,2.072141647E0,-3.986015797E0,4.933757634E0
4.670274850E0,1.010771275E0,1.907161236E0,-3.892197847E0,4.450632161E0
4.680277975E0,7.609438896E-2,1.855098724E0,-3.608292818E0,4.057950061E0
4.690276412E0,-7.856637239E-1,1.814753532E0,-3.335739613E0,3.877854643E0
4.700354329E0,-1.073727489E0,1.784916878E0,-3.075609446E0,3.714591827E0
4.710275214E0,-2.646932364E0,1.764512062E0,-2.828978062E0,4.257096502E0
4.720309381E0,-2.857922554E0,1.648023605E0,-2.832962990E0,4.348491972E0
4.730297923E0,-2.831916094E0,1.049289703E-1,-2.648355722E0,3.878730061E0
4.740277975E0,-2.771760702E0,6.668090820E-3,-2.476071596E0,3.716669531E0
4.750276204E0,-2.682371855E0,-8.463382721E-2,-2.313069344E0,3.542960830E0
4.760279017E0,-2.567128420E0,-1.494140625E-1,-2.160116434E0,3.358359108E0
4.770287610E0,-2.648402214E0,-1.949958801E-1,-2.212383747E0,3.456399792E0
4.780291256E0,-2.477514029E0,-2.275056839E-1,-2.073585272E0,3.238763727E0
4.790293600E0,3.467471600E-1,-9.771156311E-2,-1.913186073E0,1.946808181E0
4.800287871E0,1.573380947E0,1.342635155E0,-2.936552048E0,3.591870640E0
4.810294381E0,2.758890867E0,1.219179153E0,-2.940896988E0,4.212689369E0
4.820286048E0,3.901777267E0,1.198720932E0,-3.553313255E0,5.411731036E0
4.830288392E0,4.707494736E0,1.180759430E0,-3.560843229E0,6.019493668E0
4.840293600E0,4.837898254E0,1.178859711E0,-3.567422390E0,6.125477308E0
4.850285267E0,4.916894913E0,-6.284217834E-1,-3.563316822E0,6.104751944E0
4.860290475E0,5.439861298E0,-7.279844284E-1,-3.525073528E0,6.522897795E0
4.870295423E0,5.295273781E0,-1.411082268E0,-3.403580666E0,6.451002940E0
4.880375631E0,5.031077385E0,-1.450166702E0,-3.238625526E0,6.156575218E0
4.890276673E0,3.910349369E0,-1.464643478E0,-3.010905743E0,5.147967181E0
4.900445787E0,3.022852898E0,-1.450784683E0,-2.251259327E0,4.038636452E0
4.910274902E0,2.119773149E0,-1.373297215E0,-2.037830353E0,3.245325252E0
4.920274850E0,1.820742369E0,-1.238802910E0,-1.803156137E0,2.846244452E0
4.930278235E0,6.219325066E-1,-1.085009098E0,-5.368782282E-1,1.360986046E0
4.940290735E0,3.755989075E-1,-2.479343414E-1,-3.899827898E-1,5.955103301E-1
4.950294381E0,-4.322834015E-1,-1.437778473E-1,-2.676082850E-1,5.283514008E-1
4.960296204E0,-5.455546379E-1,-5.189037323E-2,-3.530448079E-1,6.518919467E-1
4.970290996E0,-6.640884876E-1,3.320693970E-2,-2.072690278E-1,6.964744576E-1
4.980290475E0,-7.445220947E-1,6.153202057E-2,-1.479274035E-1,7.615653982E-1
4.990290996E0,-8.170707226E-1,8.089065552E-2,-9.145435691E-2,8.261427015E-1
5.000276464E0,-9.039990902E-1,1.199798584E-1,-2.367793471E-1,9.421645189E-1
5.010277714E0,-1.546955585E0,1.730012894E-1,-1.529938102E0,2.182592867E0
5.020280319E0,-1.544162512E0,2.516040802E-1,-1.594848514E0,2.234118228E0
5.030277975E0,-1.526537418E0,1.475551605E0,-1.660038471E0,2.695050418E0
5.040275892E0,-1.506145477E0,1.477722168E0,-1.710301876E0,2.716112942E0
5.050278756E0,-1.468172550E0,1.380103111E0,-1.731448174E0,2.656713762E0
5.060347506E0,-1.418225050E0,2.512757301E0,-1.746605277E0,3.372823971E0
5.070283079E0,-1.337033749E0,3.257556915E0,-1.792258382E0,3.951142418E0
5.080395892E0,-1.198941827E0,4.118109703E0,-1.821425915E0,4.659815597E0
5.090265110E0,-1.020628810E0,4.937183380E0,-2.463400602E0,5.611221384E0
5.100275423E0,-3.332059383E-1,5.699779510E0,-2.446210861E0,6.211478105E0
5.110276725E0,-2.454633713E-1,6.395328522E0,-2.437059641E0,6.848338401E0
5.120280579E0,-1.530189514E-1,6.479531288E0,-2.441279411E0,6.925863533E0
5.130279537E0,-4.900789261E-2,7.043415070E0,-3.016888857E0,7.662487585E0
5.140277975E0,6.547188759E-2,7.012018204E0,-3.034312248E0,7.640663366E0
5.150282402E0,2.006943226E-1,7.031335831E0,-3.086005688E0,7.681366602E0
5.160276673E0,3.051044941E-1,7.064082146E0,-3.004075766E0,7.682370501E0
5.170279537E0,3.723402023E-1,7.125114441E0,-2.867470264E0,7.689491449E0
5.180281881E0,4.069001675E-1,7.792766571E0,-2.678617239E0,8.250319320E0
5.190278496E0,4.020488262E-1,7.856140137E0,-1.741761804E0,8.056942056E0
5.200276152E0,3.624334335E-1,8.587920189E0,-1.513292193E0,8.727759416E0
5.210275371E0,-3.305191994E-1,8.639488220E0,-2.879703045E-1,8.650602669E0
5.220273808E0,-3.473337889E-1,8.638262749E0,1.166946292E0,8.723645323E0
5.230276933E0,-3.775041103E-1,8.522322655E0,1.267472029E0,8.624324793E0
5.240331360E0,-4.096099138E-1,7.429034233E0,1.161316037E0,7.530404030E0
5.250275631E0,-4.353028536E-1,6.271015167E0,2.519191504E0,6.772107917E0
5.260298235E0,-4.380229712E-1,4.977338791E0,2.613031864E0,5.638590346E0
5.270274121E0,-3.912423849E-1,3.574064255E0,2.645977497E0,4.464101569E0
5.280274902E0,-2.529385090E-1,2.210240364E0,2.601063013E0,3.422669887E0
5.290276412E0,4.747828245E-1,6.336412430E-1,2.500360250E0,2.622731656E0
5.300279277E0,1.266044855E0,6.359748840E-1,2.353320122E0,2.746898109E0
5.310278756E0,2.075827599E0,6.401090622E-1,1.038064480E0,2.407566758E0
5.320281621E0,2.878989697E0,6.482563019E-1,1.036637425E0,3.127848311E0
5.330283444E0,3.781400204E0,5.787448883E-1,8.796448708E-1,3.925265373E0
5.340279277E0,4.656860352E0,5.924787521E-1,8.862859607E-1,4.777330029E0
5.350277454E0,4.625010967E0,6.111822128E-1,8.965082169E-1,4.750578610E0
5.360276673E0,4.474188805E0,2.230010986E0,9.067748785E-1,5.080704197E0
5.370277714E0,3.379170418E0,2.980776787E0,9.172273874E-1,4.598383308E0
5.380279017E0,2.322980165E0,3.730722427E0,7.283455729E-1,4.454774288E0
5.390278235E0,1.051597238E0,3.890008926E0,7.417154312E-1,4.097336693E0
5.400277454E0,-3.635612726E-1,4.794325829E0,7.558537126E-1,4.867140000E0
5.410279017E0,-1.810420036E0,4.858434677E0,7.717663646E-1,5.241911058E0
5.420370892E0,-2.949275970E0,4.906970978E0,7.856712937E-1,5.778743143E0
5.430277350E0,-3.149319172E0,4.903611183E0,5.992045403E-1,5.858554426E0
5.440404850E0,-3.816445827E0,4.835252762E0,6.142571568E-1,6.190495932E0
5.450274433E0,-3.763829708E0,4.690269470E0,6.311197281E-1,6.046763918E0
5.460277506E0,-3.051969051E0,3.600297928E0,6.500070095E-1,4.764364530E0
5.470279329E0,-1.797459960E0,2.901851654E0,1.839726210E0,3.877653653E0
5.480278235E0,-1.855862856E0,2.164792061E0,1.908060193E0,3.430924847E0
5.490278756E0,4.872472286E-1,4.899015427E-1,1.956862092E0,2.075264472E0
5.500280058E0,1.762186050E0,4.922122955E-1,1.988465428E0,2.702141258E0
5.510278756E0,3.731525421E0,5.159740448E-1,1.999747753E0,4.264915270E0
5.520301673E0,3.963522434E0,-1.081177711E0,1.899911284E0,4.526380256E0
5.530277975E0,4.952554226E0,-1.136083603E0,1.738237858E0,5.370283993E0
5.540277194E0,4.989469528E0,-1.174656868E0,3.655573428E-1,5.138896487E0
5.550278496E0,4.941061020E0,-1.191272736E0,3.623047769E-1,5.095535250E0
5.560276933E0,4.813747406E0,-1.175115585E0,3.597518802E-1,4.968146751E0
5.570279277E0,4.594976425E0,-1.164152145E0,1.591487974E-1,4.742824781E0
5.580278756E0,3.492384911E0,-1.179895401E0,1.611722112E-1,3.689834956E0
5.590278496E0,2.621843338E0,-1.246946335E0,1.639383435E-1,2.907888139E0
5.600338079E0,1.644596100E0,-2.097122192E0,1.678066254E-1,2.670351453E0
5.610275319E0,6.555056572E-1,-2.788525581E0,2.124612927E-1,2.872403590E0
5.620471048E0,-2.788479328E-1,-3.587743759E0,5.993305147E-2,3.599062853E0
5.630273339E0,-1.222264767E0,-4.322162151E0,1.072500423E-1,4.492941063E0
5.640274746E0,-2.355796099E0,-5.062295914E0,1.557506919E-1,5.585774204E0
5.650275110E0,-2.397037745E0,-5.766346931E0,2.044600248E-1,6.248067764E0
5.660280839E0,-2.414459705E0,-6.456749916E0,2.538902164E-1,6.898093605E0
5.670277975E0,-2.613011599E0,-6.586644650E0,1.044699997E-1,7.086792740E0
5.680276933E0,-2.574867964E0,-7.576889992E0,1.555901170E-1,8.003962473E0
5.690279277E0,-2.479629278E0,-8.923892975E0,2.475791574E-1,9.265296683E0
5.700276933E0,-2.403502703E0,-8.869740486E0,3.005814552E-1,9.194534830E0
5.710285267E0,-2.535957575E0,-9.012639999E0,1.545547843E-1,9.363901311E0
5.720298808E0,-2.475340366E0,-8.953768730E0,2.081048489E-1,9.291963841E0
5.730278756E0,-2.418148994E0,-1.043622398E1,1.269586325E0,1.078768117E1
5.740276933E0,-2.371887922E0,-1.046051884E1,2.164092302E0,1.094219366E1
5.750274850E0,-2.328469515E0,-1.046791363E1,2.268096924E0,1.096098762E1
5.760275892E0,-2.500923157E0,-1.041758251E1,2.912685394E0,1.110244920E1
5.770274069E0,-2.475514412E0,-1.031529045E1,3.038575888E0,1.103477830E1
5.780348600E0,-2.453249693E0,-1.016239166E1,3.984144688E0,1.118776328E1
5.790274017E0,-2.433356762E0,-8.672183037E0,4.065643311E0,9.882177861E0
5.800301048E0,-2.413029432E0,-8.605161667E0,4.701118469E0,1.009812028E1
5.810265735E0,-2.590290308E0,-8.737492561E0,4.650453568E0,1.023132926E1
5.820299902E0,-1.147015452E0,-8.669504166E0,4.587172508E0,9.875125242E0
5.830281360E0,-1.024160504E0,-8.600229263E0,5.148198605E0,1.007555443E1
5.840281100E0,-9.761261940E-2,-8.526718140E0,5.058586121E0,9.914824456E0
5.850282402E0,2.771139145E-3,-8.444564819E0,5.596617222E0,1.013078511E1
5.860276412E0,1.146900654E-1,-8.553100586E0,5.378159523E0,1.010412209E1
5.870278235E0,1.646463871E-1,-8.389496803E0,6.368181705E0,1.053396902E1
5.880277194E0,1.288232803E-1,-8.243368149E0,7.042687416E0,1.084293133E1
5.890278496E0,5.189204216E-2,-6.485730171E0,7.739359856E0,1.009777597E1
5.900279017E0,-1.196169853E-2,-4.769505024E0,8.357089043E0,9.622331242E0
5.910277975E0,-1.173973083E-2,-3.082498550E0,8.110896111E0,8.676898688E0
5.920301673E0,7.842516899E-1,-1.812386990E0,8.826816559E0,9.045025587E0
5.930278235E0,7.841255665E-1,-1.457637787E0,8.518396378E0,8.677709241E0
5.940277975E0,8.038992882E-1,-1.185997963E0,9.101399422E0,9.213485587E0
5.950279798E0,8.789887428E-1,-1.064209938E0,8.749921799E0,8.858120313E0
5.960344694E0,1.015196800E0,-2.369791508E0,8.404838562E0,8.791350726E0
5.970283704E0,1.722427607E0,-3.554960251E0,8.052890778E0,8.969590243E0
5.980413496E0,1.787573338E0,-4.780848503E0,7.691455841E0,9.230949236E0
5.990273079E0,1.856682539E0,-5.636266232E0,7.403585911E0,9.488300766E0
6.000275944E0,1.951939821E0,-5.533594608E0,7.157181263E0,9.255051701E0
6.010278496E0,2.031244993E0,-5.252042770E0,6.981288910E0,8.969297873E0
6.020331621E0,2.074819326E0,-4.991829395E0,6.803183079E0,8.689449692E0
6.030291517E0,2.030565977E0,-3.521787405E0,6.570491314E0,7.726418369E0
6.040291777E0,1.897090435E0,-1.897314072E0,5.622773170E0,6.230114841E0
6.050296725E0,1.975200176E-1,6.971640587E-1,4.005516052E0,4.070529539E0
6.060290475E0,-7.652196884E-1,1.640606403E0,2.470847130E0,3.063043598E0
6.070289954E0,-1.812294483E0,1.923578739E0,2.389989376E0,3.563231073E0
6.080286569E0,-3.009660006E0,2.181709290E0,2.307467461E-1,3.724399661E0
6.090286308E0,-3.161663055E0,2.393334866E0,-1.082628727E0,4.110504837E0
6.100288912E0,-3.115020037E0,2.464580774E0,-2.206922054E0,4.544008492E0
6.110275735E0,-3.030801535E0,2.412373066E0,-3.087431908E0,4.953537881E0
6.120336829E0,-2.935221195E0,2.271960735E0,-3.870231867E0,5.362464336E0
6.130289954E0,-2.825375080E0,1.487898350E0,-4.004206657E0,5.121548281E0
6.140369850E0,-1.430093646E0,1.373461962E0,-4.871034622E0,5.259139082E0
6.150275267E0,-1.304495454E0,1.246926785E0,-4.941333771E0,5.260543150E0
6.160311569E0,-1.205844164E0,1.137377739E0,-5.530749798E0,5.773809972E0
6.170291985E0,-1.149413824E0,1.076853275E0,-5.561161995E0,5.779903792E0
6.180291517E0,-1.123346806E0,1.075096607E0,-5.614965439E0,5.826283347E0
6.190278235E0,-1.118596077E0,1.908116817E0,-7.450356960E0,7.771742778E0
6.200289954E0,-1.110053062E0,2.554063797E0,-7.328299999E0,7.839607169E0
6.210301152E0,-1.095225453E0,3.272106647E0,-7.193505287E0,7.978265414E0
6.220297246E0,-1.038035750E0,4.119243145E0,-7.047248840E0,8.228572083E0
6.230277194E0,4.059290886E-2,4.944016457E0,-7.057750225E0,8.617237652E0
6.240277194E0,7.812504768E-1,5.905334949E0,-6.902376175E0,9.117353236E0
6.250279277E0,1.553078890E0,6.542835712E0,-6.699783325E0,9.492515462E0
6.260277714E0,2.294147015E0,6.331967831E0,-6.475008011E0,9.342518711E0
6.270288652E0,2.459219456E0,6.027050018E0,-6.225948811E0,9.007526344E0
6.280276412E0,3.432923317E0,5.644281387E0,-6.152018547E0,9.027192647E0
6.290276673E0,3.487133980E0,3.633924484E0,-5.865845203E0,7.731342089E0
6.300278496E0,3.511239529E0,3.444268703E0,-6.574537754E0,8.210745192E0
6.310277194E0,3.476498842E0,3.278095245E0,-5.277852058E0,7.119527722E0
6.320410839E0,3.385224342E0,3.135087967E0,-4.982798100E0,6.790934936E0
6.330272037E0,3.251730204E0,2.909901619E0,-4.893921375E0,6.556808917E0
6.340442037E0,3.040405512E0,2.808845520E0,-5.583090782E0,6.950149748E0
6.350273548E0,2.273642302E0,2.720526695E0,-5.392591476E0,6.453739819E0
6.360277767E0,2.059254885E0,2.644415379E0,-5.224350452E0,6.207036412E0
6.370285787E0,1.065752268E0,2.579242229E0,-5.062377453E0,5.780656005E0
6.380276152E0,8.402776718E-1,2.423949718E0,-4.906067848E0,5.536343607E0
6.390279537E0,-1.912710667E-1,2.364838123E0,-4.724757195E0,5.287000522E0
6.400279798E0,-3.802082539E-1,2.315527916E0,-4.555994034E0,5.124774091E0
6.410279017E0,-1.468914270E0,2.286038876E0,-4.380681515E0,5.155002755E0
6.420320423E0,-2.462032080E0,2.142377853E0,-4.140146732E0,5.271830782E0
6.430280579E0,-3.593719721E0,5.081253052E-1,-3.886083126E0,5.317391731E0
6.440276673E0,-3.540629864E0,-3.642835617E-1,-3.631958246E0,5.085261355E0
6.450275892E0,-3.454534531E0,-1.305209637E0,-3.378783703E0,5.005353167E0
6.460279798E0,-3.365376711E0,-2.212020874E0,-3.113710642E0,5.090578623E0
6.470282662E0,-3.446998596E0,-2.972054482E0,-1.933776140E0,4.945138757E0
6.480275631E0,-3.326476574E0,-3.114451408E0,-1.744619012E0,4.879441512E0
6.490276412E0,-3.175576687E0,-3.213098049E0,-1.564725995E0,4.780863291E0
6.500376569E0,-3.014819860E0,-3.214828968E0,-1.405169845E0,4.625880065E0
6.510279433E0,-2.865991116E0,-2.536413670E0,-1.257672071E0,4.028528071E0
6.520335267E0,-1.492077947E0,-1.707267284E0,-1.321988106E0,2.624635352E0
6.530265892E0,-6.684308052E-1,-6.411552429E-1,-1.229500890E0,1.539334994E0
6.540274902E0,1.198775768E-1,4.810590744E-1,-1.137956142E0,1.241262522E0
6.550283444E0,8.889675140E-1,1.522741318E0,-2.333228588E0,2.924544410E0
6.560278235E0,1.120862722E0,1.506789207E0,-2.345154285E0,3.004412685E0
6.570285319E0,2.092567921E0,3.124575615E0,-2.392452240E0,4.457088848E0
6.580282142E0,2.192991018E0,3.211026192E0,-3.060437679E0,4.948350998E0
6.590280319E0,2.335429430E0,3.269797325E0,-3.072323322E0,5.058159326E0
6.600275371E0,2.381150007E0,3.189008713E0,-2.958384514E0,4.959000994E0
6.610279537E0,2.419265032E0,3.027241707E0,-2.741206408E0,4.746709198E0
6.620316777E0,2.417097092E0,1.356225967E0,-1.889434814E0,3.354351076E0
6.630276152E0,2.386437178E0,1.374268532E0,-1.693619251E0,3.232961888E0
6.640278496E0,2.320959091E0,1.394218445E0,-1.472353458E0,3.081967047E0
6.650277454E0,2.220747232E0,1.415602684E0,-1.550229639E-1,2.638120799E0
6.660277975E0,2.110403061E0,1.338200569E0,-2.286931574E-1,2.509358963E0
6.670284485E0,1.982937813E0,1.361117363E0,-1.085160971E-1,2.407583558E0
6.680380787E0,1.315644026E0,1.384233475E0,6.029466167E-3,1.909727172E0
6.690275006E0,1.251885176E0,1.413725853E0,-1.394108772E0,2.347206116E0
6.700426360E0,1.198120594E0,1.443053246E0,-1.480410218E0,2.389458106E0
6.710276204E0,1.148232222E0,3.042426109E0,-2.345922470E0,4.009756364E0
6.720344381E0,1.097343206E0,3.848062515E0,-2.355367899E0,4.643221422E0
6.730277714E0,1.052854538E0,4.778774261E0,-2.344127178E0,5.425874892E0
6.740278496E0,1.000128031E0,5.750392914E0,-2.300259590E0,6.273632833E0
6.750277454E0,9.381673336E-1,6.675872803E0,-2.203222752E0,7.092363930E0
6.760280319E0,8.461325169E-1,7.456887245E0,-1.998313546E0,7.766232333E0
6.770285787E0,-1.269726753E-1,8.541725159E0,5.415409803E-1,8.559816434E0
6.780280058E0,-9.762494564E-1,8.599551201E0,6.307501197E-1,8.677741041E0
6.790281881E0,-1.020669341E0,8.623748779E0,1.990148067E0,8.909068315E0
6.800278235E0,-1.055504918E0,8.584684372E0,2.916127682E0,9.127688484E0
6.810279537E0,-1.067898154E0,8.480957031E0,3.764175415E0,9.340024368E0
6.820313912E0,-1.022429228E0,8.321847916E0,3.946313858E0,9.266709628E0
6.830276412E0,-8.835561275E-1,7.359749794E0,4.767291546E0,8.813265975E0
6.840278496E0,-6.911097765E-1,7.206562996E0,4.753863335E0,8.660912166E0
6.850278496E0,2.576766014E-1,6.491366386E0,4.621937275E0,7.972862658E0
6.860350162E0,4.903934002E-1,6.393902779E0,3.823829651E0,7.466200615E0
6.870278652E0,1.466593742E0,6.291110992E0,3.552937269E0,7.372403812E0
6.880304277E0,1.609598398E0,6.189887047E0,2.043702602E0,6.714330122E0
6.890283392E0,1.704667330E0,6.075373650E0,2.978816628E-1,6.317023759E0
6.900273339E0,1.721882463E0,5.393840790E0,5.833430588E-2,5.662314065E0
6.910280839E0,1.636898756E0,5.304545403E0,2.407531440E-2,5.551415953E0
6.920322767E0,7.677136660E-1,5.172449112E0,-1.152342200E0,5.354578101E0
6.930277454E0,6.840987206E-1,4.290891647E0,-1.272735000E0,4.527648017E0
6.940281881E0,9.124183655E-2,4.138025284E0,-1.335261941E0,4.349080681E0
6.950278235E0,2.177052498E-1,3.003358841E0,-1.213903785E0,3.246709458E0
6.960276933E0,1.395431280E0,2.106458664E0,-3.686859086E-2,2.527005313E0
6.970285787E0,2.417168856E0,1.989315033E0,2.713694423E-2,3.130625495E0
6.980279277E0,3.406781197E0,7.708883286E-1,9.052613378E-2,3.494083845E0
6.990278496E0,4.155102730E0,6.920127869E-1,-4.750810564E-2,4.212602214E0
7.000278756E0,4.254957676E0,7.134046555E-1,1.490537077E-2,4.314375180E0
7.010276673E0,4.322614193E0,7.361297607E-1,7.561944425E-2,4.385498693E0
7.020319381E0,4.321561813E0,-6.803712845E-1,1.356047988E-1,4.376892762E0
7.030275371E0,4.186118126E0,-8.310899734E-1,1.941983700E-1,4.272236945E0
7.040326360E0,3.213027000E0,-1.918853283E0,5.107510090E-2,3.742746197E0
7.050280371E0,2.122263670E0,-2.055957794E0,1.065575555E-1,2.956741458E0
7.060399642E0,1.065621853E0,-3.166665554E0,1.623607725E-1,3.345098158E0
7.070279850E0,1.647486687E-1,-3.817823410E0,2.182513475E-1,3.827603867E0
7.080280058E0,-7.146091461E-1,-4.518882275E0,2.723293900E-1,4.583135012E0
7.090280319E0,-2.502819777E0,-5.221106052E0,1.256817281E-1,5.791360042E0
7.100278756E0,-2.547173500E0,-5.864402294E0,1.807383299E-1,6.396246825E0
7.110273964E0,-2.599681616E0,-5.974486351E0,2.345817387E-1,6.519805231E0
7.120321464E0,-2.611862421E0,-6.945319176E0,2.867700756E-1,7.425733690E0
7.130280579E0,-4.138130188E0,-8.797784805E0,1.775932163E-1,9.724025827E0
7.140278235E0,-4.221165657E0,-8.724946976E0,1.745180845E0,9.848278805E0
7.150282662E0,-4.259368896E0,-8.662405968E0,1.792948484E0,9.818053005E0
7.160277194E0,-4.283137321E0,-8.598153114E0,1.842530489E0,9.781023510E0
7.170282402E0,-4.297018528E0,-8.533112526E0,1.888347626E0,9.738800458E0
7.180274850E0,-4.293770790E0,-8.665019035E0,1.923353672E0,9.859934677E0
7.190276673E0,-4.241874695E0,-8.608488083E0,1.971113324E0,9.797186113E0
7.200277194E0,-4.188917160E0,-8.551751137E0,1.983553648E0,9.726970729E0
7.210276673E0,-4.098440647E0,-8.496994972E0,1.993463635E0,9.642097104E0
7.220395319E0,-3.974925518E0,-8.443786621E0,2.544454098E0,9.673252402E0
7.230276517E0,-2.644665241E0,-8.591550827E0,2.558619976E0,9.346418353E0
7.240414850E0,-2.559376478E0,-8.540451050E0,3.416815519E0,9.548001905E0
7.250282194E0,-2.466693401E0,-8.490296364E0,3.471889973E0,9.498617197E0
7.260286829E0,-2.366844177E0,-8.440662384E0,4.388582706E0,9.803386711E0
7.270284746E0,-2.261860847E0,-8.390579224E0,4.378569603E0,9.730863578E0
7.280289954E0,-2.352160692E0,-8.536906242E0,4.904853821E0,1.012269821E1
7.290289433E0,-2.298712730E0,-8.460325241E0,4.797710896E0,9.993958837E0
7.300290996E0,-2.244483709E0,-8.377791405E0,4.685636520E0,9.858006165E0
7.310291256E0,-2.145763159E0,-8.241840363E0,5.184827328E0,9.970690373E0
7.320329017E0,-2.285744667E0,-6.793356895E0,5.933291435E0,9.304744695E0
7.330289173E0,-2.221598864E0,-5.283981800E0,7.783329010E0,9.666238961E0
7.340291517E0,-4.580889940E-1,-3.458714485E0,9.812284470E0,1.041409996E1
7.350288131E0,1.068635702E0,-1.899652481E0,1.151250648E1,1.171701615E1
7.360288392E0,2.625482321E0,-9.951076508E-1,1.211879063E1,1.243979433E1
7.370289433E0,3.633346319E0,-8.608641624E-1,1.177098465E1,1.234902313E1
7.380290735E0,3.739935637E0,-1.624328613E0,1.139697266E1,1.210440200E1
7.390293079E0,3.849994183E0,-2.459385872E0,1.098155975E1,1.189393495E1
7.400312871E0,3.892740726E0,-3.201400757E0,1.043054390E1,1.158441381E1
7.410276985E0,3.768703461E0,-3.996508121E0,8.473163605E0,1.009800497E1
7.420392819E0,2.720257759E0,-4.776454926E0,6.313291073E0,8.370900077E0
7.430281412E0,1.419641972E0,-4.629899979E0,3.876194954E0,6.202922252E0
7.440281464E0,1.665623188E-1,-4.377439499E0,3.653141022E0,5.703959931E0
7.450279277E0,-6.754899025E-2,-3.912293911E0,3.469331264E0,5.229423098E0
7.460277714E0,-8.306527138E-1,-1.452122927E0,3.316929340E0,3.714924653E0
7.470278235E0,-9.416818619E-1,4.935750961E-1,3.095099449E0,3.272616950E0
7.480276673E0,-2.650746822E0,1.771025181E0,3.033685207E0,4.400708448E0
7.490277714E0,-2.597811699E0,1.999334335E0,1.510080814E0,3.609197622E0
7.500277714E0,-2.535598040E0,2.006527901E0,7.614979744E-1,3.321940818E0
7.510280319E0,-2.667784691E0,1.936130524E0,1.290655136E-2,3.296337838E0
7.520279017E0,-2.569583893E0,1.025545597E0,-1.850051880E-1,2.772856302E0
7.530276933E0,-2.471607924E0,8.903546333E-1,-1.293933392E0,2.928453640E0
7.540277454E0,-2.318341255E0,-1.677427292E-1,-1.466504574E0,2.748359413E0
7.550279277E0,-2.170502901E0,-2.805099487E-1,-2.363378048E0,3.221075049E0
7.560275892E0,-1.080318570E0,-4.032788277E-1,-2.454660416E0,2.712025033E0
7.570276412E0,-2.640163898E-1,-4.942693710E-1,-2.558398247E0,2.619047242E0
7.580294954E0,-1.321492195E-1,-5.242924690E-1,-3.235693932E0,3.280558067E0
7.590296517E0,-2.180790901E-2,-4.731459618E-1,-3.263746977E0,3.297936782E0
7.600320423E0,7.183015347E-2,2.501525879E-1,-3.326521397E0,3.336687053E0
7.610275683E0,1.628936529E-1,8.872632980E-1,-4.051593781E0,4.150805062E0
7.620274433E0,2.084126472E-1,1.519352913E0,-4.121171951E0,4.397263622E0
7.630280579E0,2.440097332E-1,2.137159348E0,-4.897336960E0,5.348915790E0
7.640280839E0,2.896704674E-1,2.225443363E0,-4.949494362E0,5.434519443E0
7.650279537E0,3.445004225E-1,3.172505856E0,-5.555088043E0,6.406440284E0
7.660275892E0,9.120949507E-1,3.207441330E0,-5.542009830E0,6.467879873E0
7.670282142E0,9.903458357E-1,4.336420536E0,-6.472026825E0,7.853181468E0
7.680275110E0,1.047580481E0,4.223548889E0,-6.301673889E0,7.658125351E0
7.690280579E0,1.659655094E0,4.096782684E0,-6.111847878E0,7.542729471E0
7.700280579E0,1.685318947E0,3.851371288E0,-6.097786903E0,7.406508345E0
7.710277714E0,1.708499432E0,3.702486515E0,-5.862166405E0,7.140894318E0
7.720276673E0,1.760139465E0,3.537448883E0,-5.600858212E0,6.854286852E0
7.730277975E0,2.416008234E0,3.367459774E0,-5.317399502E0,6.741781558E0
7.740286829E0,2.410714388E0,3.212199211E0,-5.035281181E0,6.440793756E0
7.750278235E0,2.384056568E0,2.975802898E0,-4.951065063E0,6.249173855E0
7.760296152E0,2.354598522E0,2.853834152E0,-4.671949387E0,5.959497851E0
7.770295475E0,2.307882547E0,2.744538307E0,-4.397102833E0,5.673916257E0
7.780289173E0,2.234881878E0,2.648851395E0,-4.128975868E0,5.390691277E0
7.790275944E0,2.107923031E0,2.571499825E0,-3.864188194E0,5.097832996E0
7.800278808E0,1.947448492E0,2.405090332E0,-3.806968927E0,4.906121436E0
7.810281881E0,1.764347315E0,2.347495079E0,-3.557214260E0,4.612746241E0
7.820277714E0,8.743171692E-1,2.298279285E0,-3.316126347E0,4.128342541E0
7.830277714E0,7.093231678E-1,2.256556034E0,-3.083786726E0,3.886505508E0
7.840277714E0,-1.401386261E-1,2.222239494E0,-2.861598969E0,3.625842779E0
7.850278756E0,-1.078427911E0,2.113839626E0,-2.807449341E0,3.676016394E0
7.860278235E0,-1.211514592E0,2.090622425E0,-2.600679874E0,3.549930357E0
7.870279537E0,-1.354546189E0,2.070835590E0,-2.402704954E0,3.449079083E0
7.880274589E0,-2.126896381E0,2.045434952E0,-3.923282862E0,4.909138496E0
7.890277975E0,-3.212298393E0,1.922890186E0,-3.816966057E0,5.346550057E0
7.900279537E0,-3.137509346E0,1.894653320E0,-3.721250296E0,5.223158035E0
7.910276673E0,-3.058873892E0,3.963899612E-1,-3.645281076E0,4.775134408E0
7.920276673E0,-2.955482483E0,2.074937820E-1,-3.546963215E0,4.621566663E0
7.930277454E0,-2.849550486E0,-8.174891472E-1,-3.446209908E0,4.545832069E0
7.940288600E0,-2.941792250E0,-9.612812996E-1,-3.337872028E0,4.551877970E0
7.950295319E0,-2.811841011E0,-1.121032715E0,-3.183080196E0,4.392626066E0
7.960341673E0,-2.652669430E0,-1.784627438E0,-3.034821510E0,4.408139267E0
7.970276725E0,-5.918486118E-1,-1.832017899E0,-2.870366573E0,3.456237640E0
7.980278496E0,-3.642866611E-1,-1.839448452E0,-2.721048832E0,3.304600146E0
7.990279798E0,6.289632320E-1,-1.797290325E0,-2.582296371E0,3.208442272E0
8.000279017E0,7.969915867E-1,-1.180705070E0,-2.473298311E0,2.854201217E0
8.010282142E0,9.677746296E-1,-1.098196983E0,-2.384599686E0,2.798024305E0
8.020278235E0,1.060977221E0,-3.828458786E-1,-2.292262793E0,2.554743106E0
8.030279798E0,1.210472822E0,1.393958092E0,-2.206760645E0,2.877178507E0
8.040278756E0,1.244346619E0,1.415194511E0,-2.112643957E0,2.830978365E0
8.050284485E0,1.272951126E0,1.438465118E0,-2.024369240E0,2.790637434E0
8.060280579E0,1.306021929E0,1.463799477E0,-1.936122179E0,2.756260379E0
8.070278756E0,1.346159697E0,1.488802910E0,-1.831776142E0,2.717367084E0
8.080275892E0,1.401562452E0,1.415376663E0,-1.725177288E0,2.635129045E0
8.090276152E0,1.473572731E0,1.438086510E0,-1.634091854E0,2.628643298E0
8.100277975E0,2.047799349E0,1.462138176E0,-1.561527133E0,2.961367455E0
8.110274277E0,2.035814047E0,1.487374306E0,-1.505057096E0,2.936327302E0
8.120289589E0,2.002036333E0,1.513708115E0,-1.462910175E0,2.905093444E0
8.130283912E0,1.949376345E0,1.441185951E0,-1.418983221E0,2.809020908E0
8.140287923E0,1.860169172E0,1.469494820E0,-1.374641657E0,2.740307293E0
8.150279850E0,1.738759041E0,1.498599052E0,-1.364390612E0,2.670326546E0
8.160277246E0,9.104683399E-1,1.527565956E0,-1.364242315E0,2.241331623E0
8.170275892E0,7.846779823E-1,1.556381226E0,-1.367652059E0,2.215516691E0
8.180275371E0,-4.171395302E-2,1.485428810E0,-1.354291916E0,2.010558479E0
8.190279017E0,-2.054383755E-1,2.900384903E0,-1.306496620E0,3.187690532E0
8.200277454E0,-1.316460848E0,3.701841354E0,-1.256981850E0,4.125130537E0
8.210279017E0,-2.522229671E0,5.388807297E0,-1.364743710E0,6.104376462E0
8.220270683E0,-2.673360348E0,6.075714111E0,-2.092070580E0,6.959735399E0
8.230279277E0,-2.620798111E0,6.213708878E0,-2.071200371E0,7.054688634E0
8.240276933E0,-2.527755260E0,7.154271126E0,-2.019027710E0,7.851726873E0
8.250279017E0,-2.423803091E0,7.228161812E0,-1.926575899E0,7.863385994E0
8.260277454E0,-2.278827667E0,7.272747993E0,-1.847738266E0,7.842197116E0
8.270275371E0,-2.325905085E0,7.276349068E0,-1.737008929E0,7.834046862E0
8.280276673E0,-2.140222788E0,7.204323769E0,-1.575999022E0,7.678971771E0
8.290275892E0,-1.961169362E0,7.060144424E0,-5.547366142E-1,7.348439104E0
8.300282246E0,-1.782314062E0,6.162060738E0,-3.652240038E-1,6.425031091E0
8.310267194E0,-1.613002181E0,5.974538803E0,5.973156691E-1,6.217208051E0
8.320295787E0,-1.651004672E0,4.792639732E0,7.277112007E-1,5.121013144E0
8.330288183E0,-1.497407675E0,4.616077423E0,8.432878256E-1,4.925599951E0
8.340277194E0,-3.188095093E-1,3.649449348E0,1.927073717E0,4.139291384E0
8.350280058E0,3.771275282E-1,3.522639275E0,1.967448831E0,4.052415025E0
8.360281881E0,5.233105421E-1,2.880846977E0,2.002899170E0,3.547497472E0
8.370277714E0,6.817603111E-1,2.804412842E0,1.811219454E0,3.407351526E0
8.380281621E0,1.475121021E0,2.659343719E0,1.863579392E0,3.566653782E0
8.390279017E0,1.540297508E0,2.577639580E0,1.847379804E0,3.525557311E0
8.400281621E0,1.583205104E0,2.482968330E0,1.834882140E0,3.469648772E0
8.410276933E0,1.609664679E0,2.384211540E0,1.623712182E0,3.303320496E0
8.420277975E0,1.613579154E0,2.297545433E0,1.616220474E0,3.239524861E0
8.430279017E0,1.565596938E0,2.220829010E0,1.609918714E0,3.158324481E0
8.440275892E0,1.446072221E0,2.174283981E0,1.604672432E0,3.064899560E0
8.450290214E0,6.144268513E-1,2.152234077E0,1.600742698E0,2.751728378E0
8.460289433E0,4.805257320E-1,2.141662598E0,1.397508979E0,2.602048233E0
8.470291517E0,-1.099342585E0,2.122037888E0,4.225255251E-1,2.426958330E0
8.480290423E0,-1.071698308E0,2.084538460E0,-2.351222038E-1,2.355657085E0
8.490279902E0,-1.043746352E0,2.006938934E0,-2.797204256E-1,2.279353823E0
8.500308392E0,-1.015731215E0,9.874906540E-1,-2.921202183E-1,1.446437664E0
8.510279850E0,-2.522021770E0,9.022846222E-1,-2.750551701E-1,2.692650497E0
8.520288652E0,-2.517576694E0,9.144821167E-1,-2.316595316E-1,2.688519312E0
8.530291517E0,-2.464485645E0,9.265699387E-1,-1.519991159E-1,2.637295031E0
8.540287350E0,-2.333689451E0,-7.254552841E-1,1.269221783E0,2.753782082E0
8.550290214E0,-2.153278828E0,-8.435020447E-1,1.283082247E0,2.644693831E0
8.560289173E0,-9.623847604E-1,-1.480034828E0,1.100358248E0,2.080258588E0
8.570287610E0,-8.314614296E-1,-1.566454887E0,1.158902168E0,2.118528560E0
8.580287610E0,-7.425835729E-1,-1.591222286E0,1.178218007E0,2.114619682E0
8.590287350E0,-6.555091739E-1,-1.607754230E0,1.198143244E0,2.109529136E0
8.600287871E0,-7.760485411E-1,-1.616390228E0,1.020587087E0,2.063144859E0
8.610288392E0,-6.967349052E-1,-1.638452530E0,1.043532133E0,2.063716437E0
8.620286048E0,-6.206250191E-1,-1.667014599E0,1.067625880E0,2.074593480E0
8.630287871E0,-5.468444228E-1,-1.711318970E0,1.090674758E0,2.101719027E0
8.640289694E0,-4.738464355E-1,-1.774190426E0,1.113921285E0,2.147813479E0
8.650289694E0,1.060184240E0,-1.863100052E0,9.364611506E-1,2.339250289E0
8.660299173E0,1.173198342E0,-2.579493046E0,9.601724744E-1,2.992007671E0
8.670299589E0,1.307893515E0,-2.667761803E0,9.837515354E-1,3.129745288E0
8.680312767E0,2.178590775E0,-3.298317432E0,1.007549882E0,4.079253904E0
8.690276725E0,2.296335220E0,-3.377008915E0,1.030165792E0,4.211720102E0
8.700279537E0,2.405744314E0,-3.479086399E0,8.536617756E-1,4.315134564E0
8.710276412E0,2.453970194E0,-4.209573269E0,8.778277040E-1,4.951066380E0
8.720284485E0,2.469188213E0,-4.234904766E0,9.023020864E-1,4.984521829E0
8.730279277E0,2.415896893E0,-4.253142834E0,9.273759723E-1,4.978534720E0
8.740279017E0,2.339171410E0,-4.251643181E0,9.522883296E-1,4.945204312E0
8.750277975E0,2.210888863E0,-4.177353382E0,2.574497938E0,5.382039620E0
8.760279017E0,2.089166641E0,-4.071936131E0,2.669345617E0,5.298177718E0
8.770285527E0,1.993387699E0,-3.342926979E0,3.373701572E0,5.150788057E0
8.780279017E0,1.928362370E0,-3.229844570E0,3.441686153E0,5.098595979E0
8.790276933E0,1.903906822E0,-3.098873615E0,3.526866436E0,5.066227959E0
8.800275892E0,1.905616641E0,-2.322182655E0,4.197078705E0,5.161334781E0
8.810275371E0,2.442883492E0,-2.247282505E0,4.166804790E0,5.327308943E0
8.820282923E0,2.410264492E0,-2.169199944E0,4.149833679E0,5.266490566E0
8.830277714E0,2.406277418E0,-2.090601921E0,4.102939129E0,5.195661354E0
8.840290735E0,2.408970833E0,-2.018588543E0,4.059898853E0,5.134259331E0
8.850288339E0,2.403660536E0,-1.942438602E0,4.024107933E0,5.073864046E0
8.860365631E0,2.389873505E0,-1.848531246E0,4.535757542E0,5.449922900E0
8.870290267E0,2.330612183E0,-1.189478874E0,4.429179668E0,5.144341131E0
8.880275162E0,2.258940935E0,-1.092398643E0,4.323817730E0,4.999154799E0
8.890281881E0,2.175992489E0,-9.720869064E-1,4.234732628E0,4.859306195E0
8.900279798E0,2.083214760E0,-2.498121262E-1,4.150441647E0,4.650629602E0
8.910274069E0,1.967155933E0,-1.527147293E-1,4.036728859E0,4.493128547E0
8.920288392E0,1.851655722E0,-5.368423462E-2,3.915390253E0,4.331488398E0
8.930283183E0,1.690774202E0,7.335662842E-3,3.778998375E0,4.139999992E0
8.940277454E0,1.568099022E0,-2.509593964E-2,3.609052181E0,3.935075856E0
8.950282142E0,1.445840359E0,-1.293802261E-1,3.442808628E0,3.736325044E0
8.960277975E0,1.331120729E0,-1.120681763E0,3.256322145E0,3.692078537E0
8.970281621E0,1.208396435E0,-1.222798347E0,3.069728374E0,3.518336260E0
8.980279277E0,1.078644037E0,-2.118721008E0,2.893606186E0,3.745051192E0
8.990277194E0,3.131945133E-1,-2.183087349E0,2.741388321E0,3.518404625E0
9.000279798E0,1.831974983E-1,-2.230504990E0,2.615370750E0,3.442219922E0
9.010278496E0,-6.426653862E-1,-2.165552139E0,2.532386780E0,3.393466910E0
9.020311569E0,-8.172533512E-1,-1.251732826E0,2.481587648E0,2.897070135E0
9.030276517E0,-2.810336590E0,5.795946121E-1,2.474807501E0,3.789273523E0
9.040362662E0,-2.792821169E0,3.270602226E0,3.273527145E0,5.404874557E0
9.050292298E0,-2.770578146E0,6.484045982E0,3.857278585E0,8.037260332E0
9.060276725E0,-2.720571995E0,9.221703529E0,3.844202995E0,1.035467163E1
9.070282975E0,-2.667138577E0,1.091915703E1,3.687559366E0,1.182961168E1
9.080279798E0,-2.783941269E0,1.165665627E1,2.616593361E0,1.226680582E1
9.090277714E0,-1.546472192E0,1.156259060E1,1.372570753E0,1.174602180E1
9.100277454E0,-4.982409477E-1,1.021675205E1,-2.261161804E-3,1.022889396E1
9.110279225E0,-1.949777603E-1,5.025391579E0,-2.563993931E0,5.645054625E0
9.120281621E0,-7.212090492E-2,1.480225563E0,-4.897130013E0,5.116458883E0
9.130302975E0,-8.829331398E-2,-1.891248703E0,-6.427277565E0,6.700336877E0
9.140281100E0,-2.026919127E0,-4.021860123E0,-7.286505222E0,8.566032824E0
9.150275892E0,-1.867843986E0,-5.180310249E0,-7.300897598E0,9.144810614E0
9.160276933E0,-1.721394062E0,-5.315046310E0,-7.193208218E0,9.107972291E0
9.170283964E0,-1.785358548E0,-5.300230980E0,-6.980739594E0,8.944868856E0
9.180278756E0,-1.678901196E0,-4.340150833E0,-6.758225441E0,8.205439025E0
9.190278496E0,-1.603173494E0,-2.920846939E0,-6.484388351E0,7.290322653E0
9.200305631E0,-1.553063869E0,-1.130446911E0,-5.586164951E0,5.907212241E0
9.210285839E0,-1.469043732E0,1.259534836E0,-5.309030533E0,5.650692231E0
9.220379694E0,-3.257571459E-1,2.908662796E0,-4.408880711E0,5.291943509E0
9.230298860E0,-1.157660484E-1,4.481397629E0,-4.122014523E0,6.089936798E0
9.240278548E0,9.733607769E-1,5.502382278E0,-3.823965311E0,6.770993475E0
9.250281621E0,1.094288468E0,5.557435989E0,-2.964725018E0,6.393133540E0
9.260280319E0,1.168943882E0,5.495553970E0,-2.716153622E0,6.240595624E0
9.270284225E0,1.175886393E0,5.291827202E0,-2.457928658E0,5.952105277E0
9.280277714E0,1.107957840E0,3.725368500E0,-1.629358768E0,4.214350606E0
9.290278756E0,1.748814583E-1,9.740858078E-1,-1.456832290E0,1.761189089E0
9.300279798E0,-1.099225998E0,9.863204956E-1,-1.390165091E0,2.028222102E0
9.310279537E0,-1.222930193E0,-8.859252930E-2,-1.367288589E0,1.836541581E0
9.320283444E0,-1.148555517E0,-9.266157150E-1,-1.387986422E0,2.025907887E0
9.330299850E0,-1.075019121E0,-9.550633430E-1,-2.086472511E0,2.534004665E0
9.340277454E0,-1.002725363E0,-9.303398132E-1,-2.091208458E0,2.498828353E0
9.350279017E0,-9.385270476E-1,-8.340244293E-1,-2.126588345E0,2.469576432E0
9.360278756E0,-1.078018665E0,-5.897045135E-2,-2.153665066E0,2.409123279E0
9.370281360E0,-9.736430645E-1,9.189929962E-1,-2.167444229E0,2.547615244E0
9.380317402E0,-8.719823956E-1,9.333639145E-1,-2.169613838E0,2.517686577E0
9.390283756E0,1.376962543E0,9.483079910E-1,-2.166923761E0,2.736945830E0
9.400287142E0,2.176884174E0,9.657459259E-1,-2.114220381E0,3.184559266E0
9.410279173E0,2.379298449E0,8.844299316E-1,-2.064142227E0,3.271690778E0
9.420277246E0,3.324442387E0,9.041080475E-1,-2.015697002E0,3.991536415E0
9.430299069E0,3.428681374E0,9.247665405E-1,-1.963784456E0,4.058016573E0
9.440278756E0,3.493081570E0,9.463167191E-1,-1.929464102E0,4.101215174E0
9.450277454E0,3.389051914E0,9.751644135E-1,-1.906286001E0,4.008808405E0
9.460279798E0,3.219095945E0,9.053316116E-1,-1.886971116E0,3.839643737E0
9.470285267E0,2.211967945E0,9.557342529E-1,-1.966280937E0,3.110062841E0
9.480277454E0,1.263279438E0,9.863595963E-1,-1.980468988E0,2.547751480E0
9.490281881E0,1.100206137E0,1.017126083E0,-1.976886153E0,2.480539836E0
9.500277454E0,3.712735176E-1,9.484138489E-1,-1.952071190E0,2.201798080E0
9.510279017E0,2.749456763E-1,9.797925949E-1,-1.894544601E0,2.150555254E0
9.520281881E0,2.069935799E-1,1.011363983E0,-1.788444400E0,2.065002862E0
9.530299850E0,1.785830259E-1,1.043180466E0,-1.624957204E0,1.939227500E0
9.540276933E0,1.799958944E-1,1.074673653E0,-8.054516315E-1,1.355018196E0
9.550276152E0,2.438008785E-1,1.002367973E0,-6.518312693E-1,1.220272275E0
9.560297089E0,3.471716642E-1,1.029456139E0,-5.130033493E-1,1.201449351E0
9.570289173E0,1.065173864E0,1.053996086E0,-4.072048664E-1,1.552842205E0
9.580277662E0,1.148773909E0,1.078478813E0,-3.449630737E-1,1.613008855E0
9.590277767E0,1.252746582E0,1.102825165E0,-3.357712030E-1,1.702451069E0
9.600276204E0,1.373916864E0,1.021780014E0,-4.130336046E-1,1.761328676E0
9.610282402E0,2.096837282E0,1.040810585E0,-1.185746193E0,2.624120290E0
9.620282142E0,2.161378860E0,-3.553600311E-1,-1.298035026E0,2.546121415E0
9.630305319E0,2.226531029E0,-4.103250504E-1,-2.114114285E0,3.097625910E0
9.640282402E0,2.318541765E0,-4.527378082E-1,-2.154831409E0,3.197484299E0
9.650277194E0,3.197769642E0,-4.348630905E-1,-2.154265881E0,3.880167274E0
9.660280579E0,3.232174397E0,-3.572044373E-1,-2.103584766E0,3.872933670E0
9.670289173E0,3.237623692E0,-2.487840652E-1,-2.005554676E0,3.816588822E0
9.680289433E0,3.178399801E0,1.155904770E0,-1.869514942E0,3.864379284E0
9.690287350E0,3.059779167E0,1.097068787E0,-1.159453392E0,3.451107162E0
9.700287089E0,2.849378347E0,1.142225266E0,-1.001705170E0,3.229094110E0
9.710289694E0,1.729463816E0,1.187697411E0,-8.281593323E-1,2.255552728E0
9.720287089E0,9.437475204E-1,2.356513977E0,-1.649773121E-1,2.543822914E0
9.730335006E0,1.855179071E-1,2.522851944E0,-8.596754074E-2,2.531124107E0
9.740299798E0,-1.828086376E-2,3.590346336E0,1.119852066E-3,3.590393051E0
9.750294642E0,-1.666165471E0,3.758330345E0,9.301567078E-2,4.112153484E0
9.760325058E0,-1.672058344E0,4.860997200E0,2.110843658E-1,5.144864380E0
9.770279850E0,-1.675635099E0,5.007664680E0,9.130955935E-1,5.358936658E0
9.780288652E0,-1.633548021E0,5.835132599E0,9.499363899E-1,6.133484387E0
9.790284746E0,-1.765975237E0,5.852286339E0,1.003671288E0,6.194778445E0
9.800285006E0,-1.668005228E0,5.831538200E0,1.073671103E0,6.159695517E0
9.810288652E0,-1.558406591E0,5.749775887E0,2.423609018E0,6.431363349E0
9.820287871E0,-1.404551625E0,5.612396240E0,2.396601439E0,6.262224467E0
9.830329798E0,-1.416673779E0,4.708432198E0,2.210823298E0,5.391107308E0
9.840286829E0,-1.273795009E0,3.738764763E0,2.185669661E0,4.514207299E0
9.850288912E0,-1.136886597E0,3.574650764E0,2.160052776E0,4.328564106E0
9.860286829E0,-1.005899191E0,2.777696609E0,2.094138384E0,3.621166553E0
9.870285267E0,-8.798381686E-1,2.668370247E0,2.031361818E0,3.467094722E0
9.880288392E0,-9.592601061E-1,2.556802750E0,1.772522330E0,3.255649807E0
9.890279798E0,-1.996545792E0,2.423710823E0,1.717746377E0,3.579276724E0
9.900276152E0,-1.923226357E0,8.027276993E-1,1.666907072E0,2.668660819E0
9.910277714E0,-1.818648577E0,8.017539978E-1,1.624645472E0,2.567053764E0
9.920285058E0,-1.668580174E0,8.026618958E-1,1.585057378E0,2.437382368E0
9.930272402E0,-6.156645417E-1,7.059440613E-1,1.350673199E0,1.643690340E0
9.940286777E0,-5.222400427E-1,7.109746933E-1,1.320864916E0,1.588365135E0
9.950281673E0,-4.315627515E-1,7.172145844E-1,1.292986751E0,1.540278516E0
9.960278235E0,1.187994480E0,7.247724533E-1,1.268545389E0,1.883038342E0
9.970277975E0,1.369040728E0,7.343225479E-1,1.251889586E0,1.995176597E0
9.980279798E0,2.367423534E0,6.448163986E-1,1.037325382E0,2.663930616E0
9.990285527E0,2.506999731E0,6.561641693E-1,1.026207805E0,2.787239051E0
1.000027594E1,3.243615150E0,6.880683899E-1,1.056922197E0,3.480166933E0
1.001027667E1,3.210051775E0,7.019519806E-1,1.049163580E0,3.449335182E0
1.002028110E1,3.129079580E0,6.165332794E-1,8.423534632E-1,3.298607534E0
1.003028266E1,2.998782158E0,-3.948631287E-1,8.371616006E-1,3.138383480E0
1.004028084E1,2.850965977E0,-4.767990112E-1,8.351333737E-1,3.008785810E0
1.005027928E1,2.702455044E0,-5.670833588E-1,8.346822858E-1,2.884708186E0
1.006027850E1,2.551696777E0,-1.220996857E0,8.356891870E-1,2.949638314E0
1.007027798E1,2.423039198E0,-1.263208866E0,6.372635961E-1,2.805872500E0
1.008027745E1,2.318861961E0,-1.323276997E0,6.416048408E-1,2.745876832E0
1.009029490E1,2.231490612E0,-1.413693905E0,6.472409964E-1,2.719742950E0
1.010027766E1,2.168226004E0,-2.130323887E0,6.568939090E-1,3.109822097E0
1.011058714E1,2.100985765E0,-2.173299313E0,6.677126288E-1,3.095676217E0
1.012029922E1,2.025492430E0,-2.228702545E0,4.803091288E-1,3.049660879E0
1.013027594E1,1.937156677E0,-2.280045986E0,4.955582321E-1,3.032616635E0
1.014028605E1,1.835673928E0,-2.313547134E0,1.590348721E0,3.354311877E0
1.015027673E1,1.731934071E0,-2.326501846E0,1.615581989E0,3.319986691E0
1.016028058E1,1.635387659E0,-2.321478367E0,1.658386469E0,3.288464730E0
1.017027693E1,1.559840918E0,-2.280336857E0,1.724073887E0,3.256604157E0
1.018028292E1,1.578757048E0,-2.117968082E0,2.344578981E0,3.532040942E0
1.019028214E1,1.629271507E0,-1.433450699E0,2.327487946E0,3.182217260E0
1.020027902E1,2.335346699E0,-1.359381199E0,2.298766136E0,3.547687584E0
1.021027798E1,2.350534916E0,-1.258682728E0,2.264180660E0,3.497972364E0
1.022027146E1,2.401661873E0,-6.117696762E-1,2.238024712E0,3.339310782E0
1.023027928E1,3.079326630E0,-5.342016220E-1,2.194331408E0,3.818732014E0
1.024028214E1,3.094523907E0,-4.350852966E-1,2.144886732E0,3.790239639E0
1.025027850E1,3.160503387E0,8.808698654E-1,2.119732141E0,3.906146149E0
1.026027850E1,3.915373802E0,8.142395020E-1,2.097334385E0,4.515744623E0
1.027028839E1,3.928144455E0,8.488140106E-1,2.038713455E0,4.506346262E0
1.028027683E1,4.525015831E0,8.835372925E-1,1.943872809E0,5.003503564E0
1.029028490E1,4.515788555E0,9.248619080E-1,1.817776918E0,4.955000378E0
1.030030714E1,4.497936249E0,9.671230316E-1,1.655287504E0,4.889451317E0
1.031027516E1,4.459488392E0,9.073696136E-1,1.494119644E0,4.789859063E0
1.032027490E1,4.331298828E0,-4.173765182E-1,1.363003731E0,4.559839018E0
1.033028136E1,4.091053009E0,-5.266304016E-1,1.228909969E0,4.303983505E0
1.034028318E1,2.849225760E0,-1.631909370E0,1.116931438E0,3.468249048E0
1.035027745E1,1.877497196E0,-1.755098343E0,1.063688517E0,2.781510233E0
1.036027902E1,-1.147270203E-2,-2.551214218E0,1.172838688E0,2.807913139E0
1.037027824E1,-2.483823299E-1,-2.506091118E0,1.871002674E0,3.137329673E0
1.038028318E1,-1.228674293E0,-2.442430019E0,1.880536079E0,3.318361171E0
1.039028605E1,-1.339424491E0,-2.377172470E0,1.875824571E0,3.311151573E0
1.040028735E1,-1.394507051E0,-2.299992561E0,1.853555560E0,3.266540052E0
1.041027902E1,-1.354063034E0,-2.222552299E0,1.802937150E0,3.166039765E0
1.042027824E1,-6.009457111E-1,-2.159665108E0,1.717297673E0,2.823898090E0
1.043027928E1,-4.541504383E-1,-2.103107452E0,1.587043405E0,2.673578191E0
1.044028292E1,4.946908951E-1,-2.051998138E0,1.448368430E0,2.559919247E0
1.045027954E1,6.042432785E-1,-2.019774437E0,1.314119935E0,2.484252386E0
1.046027995E1,1.226647139E0,-1.994159698E0,1.198456526E0,2.630139569E0
1.047026917E1,1.268954277E0,-1.984243870E0,1.119197369E0,2.607694660E0
1.048029219E1,1.292261600E0,-1.997951031E0,1.081656575E0,2.613757700E0
1.049028376E1,1.289218903E0,-2.017662048E0,1.100570917E0,2.635204331E0
1.050027980E1,1.215206623E0,-2.021091938E0,1.746625304E0,2.934661771E0
1.051028110E1,1.095642805E0,-2.033721924E0,1.786248326E0,2.920126898E0
1.052028136E1,3.348650932E-1,-2.011861324E0,2.471061945E0,3.204039287E0
1.053027954E1,1.957249641E-1,-1.896907806E0,2.485137463E0,3.132487142E0
1.054028292E1,-7.567210197E-1,1.532233238E0,2.540563107E0,3.061833813E0
1.055027667E1,-1.511677504E0,3.270295143E0,2.454104185E0,4.359200219E0
1.056028110E1,-1.618276715E0,6.165414810E0,2.337155581E0,6.789216119E0
1.057028136E1,-1.694190741E0,9.013567924E0,2.221269608E0,9.436563340E0
1.058027745E1,-1.689218640E0,1.116350460E1,2.101285696E0,1.148445454E1
1.059028292E1,-1.579689503E0,1.228704548E1,1.895825386E0,1.253240039E1
1.060027745E1,-1.364981771E0,1.228263664E1,7.863249779E-1,1.238324049E1
1.061027693E1,-5.346560478E-1,1.141772747E1,-1.315088272E-1,1.143099524E1
1.062027798E1,-3.964240551E-1,9.422126770E0,-1.090906143E0,9.493350363E0
1.063028292E1,-2.532155514E-1,6.518383026E0,-2.679611683E0,7.052216259E0
1.064029735E1,-1.678383350E-1,2.848981857E0,-2.821350813E0,4.013089550E0
1.065026948E1,-6.685167551E-1,-8.624582291E-1,-4.203469276E0,4.342798960E0
1.066027350E1,-6.908216476E-1,-3.869524956E0,-5.537029266E0,6.790371936E0
1.067027688E1,-2.146609306E0,-5.918828964E0,-6.567718029E0,9.098098039E0
1.068028136E1,-1.984652877E0,-6.978990555E0,-7.183672905E0,1.021030424E1
1.069028735E1,-2.034298658E0,-7.062716484E0,-7.141150951E0,1.024774961E1
1.070028631E1,-1.914127707E0,-6.912742615E0,-7.025133610E0,1.004003972E1
1.071027485E1,-1.827691555E0,-4.746118546E0,-6.916311264E0,8.584955397E0
1.072028162E1,-1.787234545E0,-2.345712662E0,-6.757145405E0,7.372624311E0
1.073027798E1,-2.140501738E-1,2.727109909E0,-6.505905151E0,7.057602126E0
1.074028318E1,7.704284191E-1,4.555680275E0,-5.608692646E0,7.266719749E0
1.075028318E1,1.557757258E0,5.716909409E0,-4.686373711E0,7.554585324E0
1.076027641E1,1.712899446E0,5.811488152E0,-3.788373709E0,7.145571664E0
1.077027355E1,1.844852567E0,5.765089989E0,-3.460234165E0,6.972299768E0
1.078027954E1,1.970963836E0,5.011696815E0,-2.504846573E0,5.939365266E0
1.079028475E1,1.985824704E0,3.494638443E0,-2.200769424E0,4.582508447E0
1.080027902E1,1.845656872E0,1.793634415E0,-1.917268872E0,3.209282417E0
1.081027980E1,5.192106962E-1,7.306337357E-1,-1.693249464E0,1.915854679E0
1.082029256E1,-5.101149082E-1,-5.039882660E-1,-1.558891177E0,1.715914652E0
1.083029824E1,-1.614944339E0,-6.069936752E-1,-1.522009254E0,2.300651800E0
1.084029480E1,-1.581488252E0,-6.566925049E-1,-1.613139629E0,2.352566598E0
1.085027094E1,-1.547422886E0,-6.749134064E-1,-2.605818987E0,3.104886195E0
1.086027464E1,-1.512768626E0,-6.509933472E-1,-2.668399811E0,3.135700688E0
1.087027980E1,-1.490731716E0,-5.831403732E-1,-3.276973486E0,3.647038384E0
1.088027824E1,-1.635526061E0,-4.844741821E-1,-3.223638058E0,3.647122572E0
1.089029282E1,-1.547467947E0,7.033815384E-1,-3.132331371E0,3.563832552E0
1.090028761E1,-1.429755807E0,7.112150192E-1,-3.023303032E0,3.419121187E0
1.091029360E1,1.067323923E0,7.416486740E-1,-2.781225204E0,3.069924551E0
1.092028448E1,1.287137985E0,6.539201736E-1,-2.602620602E0,2.976234161E0
1.093028969E1,2.172366619E0,6.683053970E-1,-1.882249832E0,2.951046130E0
1.094028761E1,2.297863245E0,6.840600967E-1,-1.770092130E0,2.980157690E0
1.095028396E1,2.388510704E0,7.010097504E-1,-1.703299761E0,3.016227466E0
1.096028579E1,2.367373943E0,7.256813049E-1,-1.681813002E0,2.993253701E0
1.097029282E1,2.285645962E0,6.537303925E-1,-1.686710596E0,2.914881391E0
1.098028839E1,2.167660713E0,6.826591492E-1,-1.703545690E0,2.840219076E0
1.099028969E1,1.434036374E0,7.133998871E-1,-1.716612577E0,2.347798642E0
1.100029475E1,1.303115606E0,7.441558838E-1,-1.727768660E0,2.288462978E0
1.101029672E1,1.160208464E0,7.747392654E-1,-1.728614330E0,2.221353666E0
1.102034548E1,4.986174107E-1,7.055025101E-1,-1.719672680E0,1.924481031E0
1.103030225E1,4.356570244E-1,7.360610962E-1,-1.698026657E0,1.901283122E0
1.104026568E1,4.066370726E-1,7.662811279E-1,-1.646547914E0,1.861091214E0
1.105028422E1,3.877545595E-1,7.962379456E-1,-1.558823466E0,1.792841059E0
1.106029360E1,3.913158178E-1,8.224649429E-1,-1.441855431E0,1.705439455E0
1.107029542E1,4.009473324E-1,7.481727600E-1,-1.321903586E0,1.570971144E0
1.108029048E1,4.352897406E-1,7.701225281E-1,-1.213084459E0,1.501379290E0
1.109028631E1,5.149983168E-1,8.119926453E-1,-1.103500009E0,1.463648725E0
1.110029074E1,5.318853855E-1,8.338203430E-1,-1.039939046E0,1.435141682E0
1.111027678E1,5.328413248E-1,7.557306290E-1,-1.001363873E0,1.363003400E0
1.112027850E1,5.198097229E-1,7.774982452E-1,-9.992820024E-1,1.368674611E0
1.113027589E1,5.140217543E-1,7.986145020E-1,-1.031950355E0,1.402471041E0
1.114027980E1,5.038878918E-1,8.196582794E-1,-1.092880845E0,1.456067047E0
1.115027771E1,5.054392815E-1,8.405227661E-1,-1.144096375E0,1.506951858E0
1.116027954E1,5.124150515E-1,7.615079880E-1,-1.191428661E0,1.503983330E0
1.117027771E1,5.335810184E-1,7.823343277E-1,-1.250501037E0,1.568600824E0
1.118029339E1,5.818824768E-1,8.029146194E-1,-1.310448766E0,1.643330481E0
1.119029527E1,6.485099792E-1,8.234291077E-1,-1.365808964E0,1.721637248E0
1.120030386E1,7.460734844E-1,8.437995911E-1,-1.422219515E0,1.814202784E0
1.121027230E1,8.457566500E-1,7.649230957E-1,-1.447376132E0,1.842636513E0
1.122026860E1,1.546274543E0,7.864055634E-1,-1.440427661E0,2.254823833E0
1.123027412E1,1.588633657E0,8.082923889E-1,-1.424648404E0,2.281823077E0
1.124027745E1,1.630592108E0,8.306283951E-1,-1.400784612E0,2.304554552E0
1.125027954E1,1.652144074E0,8.541049957E-1,-1.370292068E0,2.310146259E0
1.126027745E1,1.662506580E0,7.793140411E-1,-1.325835943E0,2.264751521E0
1.127028240E1,1.608086824E0,8.280019760E-1,-1.294736147E0,2.224381307E0
1.128027589E1,1.531394482E0,2.180027962E0,-1.297809601E0,2.963444066E0
1.129027850E1,1.431765437E0,2.323321342E0,-1.327326298E0,3.034727241E0
1.130027954E1,1.322532177E0,3.351393700E0,-1.360159636E0,3.851099236E0
1.131027719E1,1.205104113E0,3.517157555E0,-1.367287636E0,3.961331678E0
1.132027667E1,4.980640411E-1,4.574088097E0,-1.336547852E0,4.791316089E0
1.133027693E1,4.027571678E-1,4.671866417E0,-1.258370876E0,4.855105191E0
1.134027615E1,2.834547758E-1,4.732595444E0,-1.135102987E0,4.875065644E0
1.135027902E1,-4.907683134E-1,4.754687309E0,-2.373063564E-1,4.785835272E0
1.136029037E1,-5.705626011E-1,4.724553108E0,-8.662343025E-2,4.759668830E0
1.137027824E1,-1.602166057E0,4.617480278E0,1.020932078E0,4.993031394E0
1.138028485E1,-1.549252629E0,3.800858498E0,1.148921847E0,4.262244765E0
1.139027464E1,-1.474679947E0,3.631848335E0,2.291709661E0,4.540587677E0
1.140027824E1,-1.599255085E0,2.556941032E0,2.122902393E0,3.688126739E0
1.141027824E1,-1.524125814E0,2.394145966E0,2.125631332E0,3.545871256E0
1.142028136E1,-1.426394939E0,7.192239761E-1,2.126362801E0,2.659568463E0
1.143027798E1,-1.331492543E0,7.127771378E-1,2.088391781E0,2.577266744E0
1.144027980E1,-1.210265040E0,6.976165771E-1,2.022893906E0,2.458355164E0
1.145027876E1,-1.253297091E0,6.063089371E-1,1.803281069E0,2.278198134E0
1.146027928E1,-1.144664288E0,5.996456146E-1,1.753637671E0,2.178319599E0
1.147027980E1,-2.100837708E0,5.954771042E-1,1.708042264E0,2.772277120E0
1.148027902E1,-2.062184334E0,1.945673943E0,1.674296021E0,3.292646122E0
1.149027719E1,-1.989002705E0,2.070789337E0,1.441687346E0,3.212905638E0
1.150027876E1,-9.507538676E-1,2.941291809E0,1.409977436E0,3.397523627E0
1.151027563E1,-8.599914908E-1,3.000010490E0,1.380034804E0,3.412351736E0
1.152027615E1,-7.709410787E-1,3.034969330E0,1.351884842E0,3.410715703E0
1.153027745E1,5.127609968E-1,3.039593697E0,1.325712800E0,3.355527992E0
1.154029277E1,1.291157007E0,3.006281853E0,1.092567086E0,3.449423116E0
1.155029001E1,2.053185940E0,2.907445908E0,1.062991977E0,3.714669050E0
1.156031350E1,2.243086815E0,2.175981522E0,1.035220146E0,3.292114031E0
1.157027568E1,3.239682198E0,2.023849487E0,1.010286808E0,3.951226003E0
1.158027725E1,3.365963221E0,4.033107758E-1,9.863671660E-1,3.530621499E0
1.159028110E1,3.416569471E0,3.171892166E-1,7.650499344E-1,3.515516655E0
1.160027928E1,3.414907932E0,3.333005905E-1,7.475057840E-1,3.511616489E0
1.161028292E1,3.351190329E0,3.519544601E-1,7.319738269E-1,3.448207396E0
1.162028058E1,3.227675438E0,-7.896003723E-1,7.177285552E-1,3.399484043E0
1.163027771E1,2.997082233E0,-1.603309631E0,5.453381538E-1,3.442455140E0
1.164027745E1,2.803148508E0,-1.687759399E0,5.409053564E-1,3.316436635E0
1.165028110E1,2.068104744E0,-2.383956909E0,5.396779776E-1,3.201805756E0
1.166027693E1,1.945515871E0,-2.462359905E0,5.400537252E-1,3.184321958E0
1.167028006E1,1.810868144E0,-3.084648132E0,5.419794917E-1,3.617739530E0
1.168027980E1,1.669079900E0,-3.156024456E0,3.477040529E-1,3.587090212E0
1.169027745E1,1.526379466E0,-3.254459858E0,3.562657833E-1,3.612238717E0
1.170027641E1,1.386091471E0,-3.984776974E0,3.678168356E-1,4.234971820E0
1.171027850E1,1.262633204E0,-4.020547390E0,3.804833591E-1,4.231289580E0
1.172027730E1,1.168674707E0,-4.071086407E0,3.963224888E-1,4.254011826E0
1.173026896E1,1.095382214E0,-4.112618923E0,2.120412141E-1,4.261274232E0
1.174027980E1,1.041943312E0,-4.150411129E0,2.319666147E-1,4.285483277E0
1.175028115E1,1.019303679E0,-4.166094303E0,2.526214421E-1,4.296410051E0
1.176027620E1,1.028385639E0,-4.167347908E0,2.738887966E-1,4.301090639E0
1.177028162E1,1.057910085E0,-4.149560452E0,2.960601449E-1,4.292514100E0
1.178027928E1,1.691971540E0,-4.101421833E0,1.190066636E-1,4.438309513E0
1.179027876E1,1.714455366E0,-4.012039661E0,1.563603163E0,4.634724835E0
1.180028058E1,2.418418407E0,-3.012266159E0,2.747241735E0,4.740235454E0
1.181027876E1,3.030174971E0,-2.869400978E0,2.875906229E0,5.068161300E0
1.182027798E1,3.059647322E0,-1.965030670E0,3.823796511E0,5.276761035E0
1.183027693E1,3.070243835E0,-1.819988251E0,3.896176815E0,5.283838398E0
1.184027824E1,3.603627920E0,-1.004009247E0,3.920285702E0,5.418746048E0
1.185027771E1,3.504995346E0,-8.718471527E-1,3.911511660E0,5.324005381E0
1.186027589E1,3.394351482E0,-7.323665619E-1,3.817319632E0,5.160417806E0
1.187027563E1,3.228894234E0,8.495435715E-1,3.670948029E0,4.962191218E0
1.188027251E1,3.044009924E0,9.103164673E-1,3.434181213E0,4.678490472E0
1.189029074E1,2.842531681E0,9.743623734E-1,3.154340267E0,4.356515915E0
1.190027594E1,2.041499138E0,1.042299271E0,2.340936899E0,3.276292427E0
1.191026902E1,1.879980326E0,4.393005371E-2,2.148778677E0,2.855434411E0
1.192028339E1,1.695247173E0,1.021099091E-2,1.969988227E0,2.599003820E0
1.193027725E1,8.856759071E-1,-5.978145599E-1,1.828189492E0,2.117564847E0
1.194027693E1,6.998229027E-1,-5.618524551E-1,1.723835588E0,1.943460679E0
1.195027719E1,-2.256770134E-1,-4.412078857E-1,1.647829890E0,1.720737592E0
1.196027928E1,-4.332170486E-1,1.361778259E0,1.565022707E0,2.119295428E0
1.197027876E1,-1.566747904E0,1.300563812E0,1.498656988E0,2.528267785E0
1.198028318E1,-2.399823666E0,5.926939964E0,1.475183845E0,6.562311966E0
1.199027876E1,-3.589305401E0,7.540607452E0,1.520662904E0,8.488597627E0
1.200027798E1,-3.520804167E0,8.592770576E0,1.545271873E0,9.413800153E0
1.201027876E1,-2.075017691E0,8.654784203E0,1.471768379E0,9.020925128E0
1.202028006E1,-1.889028072E0,8.562344551E0,1.284895182E0,8.861891835E0
1.203027902E1,-1.033089638E0,7.249838829E0,2.469475269E-1,7.327238247E0
1.204027667E1,-8.352084160E-1,5.178103447E0,-4.821567535E-1,5.267143774E0
1.205027641E1,-6.396479607E-1,2.691243172E0,-2.103727579E0,3.475285463E0
1.206027745E1,-4.859743118E-1,1.015704155E0,-2.281351805E0,2.544089625E0
1.207029725E1,-4.230859280E-1,-1.922897339E0,-3.687687635E0,4.180379884E0
1.208027386E1,-1.077696085E0,-3.362064838E0,-4.921021461E0,6.056513936E0
1.209026771E1,-2.568805933E0,-4.110502720E0,-5.793422699E0,7.553723790E0
1.210028053E1,-2.418635130E0,-4.150680542E0,-5.895182610E0,7.604677696E0
1.211027777E1,-2.482159376E0,-4.080480099E0,-6.488785744E0,8.057032545E0
1.212027516E1,-2.378024578E0,-2.948463440E0,-6.451617241E0,7.481430517E0
1.213028396E1,-2.292296410E0,-1.711598873E0,-6.434970856E0,7.042232845E0
1.214028891E1,-2.221938848E0,-2.273473740E-1,-6.382803440E0,6.762313127E0
1.215029438E1,-2.154418230E0,8.747520447E-1,-6.283654213E0,6.700076068E0
1.216028865E1,-4.383087158E-3,3.015313148E0,-6.121092796E0,6.823482221E0
1.217028943E1,7.282903194E-1,3.062570572E0,-5.859357834E0,6.651452437E0
1.218028683E1,8.737866879E-1,3.073452950E0,-5.543805599E0,6.398702738E0
1.219028787E1,1.526785851E0,2.994682312E0,-4.490596771E0,5.609336551E0
1.220028475E1,1.583320379E0,2.825368881E0,-4.169126511E0,5.279320846E0
1.221028683E1,1.596045256E0,1.688344002E0,-3.060073853E0,3.842124140E0
1.222028292E1,1.475895166E0,5.904884338E-1,-2.763956070E0,3.188478679E0
1.223028813E1,2.040061951E-1,6.038370132E-1,-1.798686147E0,1.908273964E0
1.224033527E1,-5.918986797E-1,6.199293137E-1,-1.572752476E0,1.791146770E0
1.225030584E1,-2.091108322E0,5.385017395E-1,-1.394391179E0,2.570417262E0
1.226027756E1,-2.045595407E0,5.582027435E-1,-1.244118094E0,2.458430537E0
1.227026745E1,-2.001053810E0,5.782098770E-1,-1.172837973E0,2.390416684E0
1.228029313E1,-1.959712148E0,5.991067886E-1,-1.157631516E0,2.353616658E0
1.229028324E1,-1.927613378E0,6.213045120E-1,-1.199319720E0,2.353737543E0
1.230027850E1,-2.071843863E0,5.387105942E-1,-1.252116442E0,2.480028564E0
1.231028344E1,-1.989829302E0,5.505428314E-1,-1.824850082E0,2.755466545E0
1.232028709E1,-1.863710284E0,5.535449982E-1,-1.839663625E0,2.676600519E0
1.233028761E1,-1.739233494E0,5.576162338E-1,-1.864452362E0,2.609990732E0
1.234033188E1,-1.114724874E-1,4.831323624E-1,-1.976963162E0,2.038191929E0
1.235027667E1,2.950716019E-2,4.897842407E-1,-2.008010626E0,2.067091180E0
1.236027902E1,1.689369678E-1,4.975738525E-1,-2.036351681E0,2.103056729E0
1.237028084E1,3.169667721E-1,5.076236725E-1,-2.041538715E0,2.127446839E0
1.238027954E1,4.511640072E-1,5.189828873E-1,-2.034770966E0,2.147832647E0
1.239027667E1,5.645103455E-1,4.316034317E-1,-2.022359610E0,2.143569883E0
1.240027693E1,6.154270172E-1,4.528007507E-1,-2.000104427E0,2.141073715E0
1.241027667E1,6.434180737E-1,4.746351242E-1,-1.973644257E0,2.129445226E0
1.242027798E1,6.508467197E-1,4.970760345E-1,-1.929497480E0,2.096102708E0
1.243029360E1,6.595593691E-1,5.201492310E-1,-1.864720106E0,2.045178442E0
1.244029485E1,6.647567749E-1,4.440021515E-1,-1.791886687E0,1.962115537E0
1.245027360E1,6.609722376E-1,4.682865143E-1,-1.704173803E0,1.886898225E0
1.246028527E1,6.748961210E-1,4.927539825E-1,-1.613661408E0,1.817194101E0
1.247027751E1,6.948635578E-1,5.172672272E-1,-1.526076198E0,1.754796088E0
1.248027928E1,7.114164829E-1,5.416860580E-1,-1.445664167E0,1.699847665E0
1.249027693E1,7.149026394E-1,4.662990570E-1,-1.356967092E0,1.603084615E0
1.250027928E1,6.920589209E-1,4.908685684E-1,-1.271064997E0,1.528235495E0
1.251027589E1,6.311540604E-1,5.153570175E-1,-1.193277478E0,1.444942713E0
1.252027928E1,4.351921082E-1,5.594387054E-1,-1.140402913E0,1.342714653E0
1.253027719E1,-2.660187483E-1,-6.446132660E-1,-1.115937114E0,1.315905726E0
1.254027745E1,-2.960835695E-1,-6.706285477E-1,-1.088514090E0,1.312353250E0
1.255027615E1,-3.088644743E-1,-6.732664108E-1,-1.064167380E0,1.296586726E0
1.256028240E1,-3.107833862E-1,-6.261796951E-1,-1.066496968E0,1.275187479E0
1.257027719E1,-2.740606070E-1,-5.159645081E-1,-1.091162562E0,1.237725465E0
1.258027824E1,-1.859376431E-1,5.122470856E-1,-1.134892821E0,1.258948609E0
1.259027798E1,5.209445953E-1,5.338535309E-1,-1.175307274E0,1.392023725E0
1.260027641E1,6.043745279E-1,5.553359985E-1,-1.203686357E0,1.456889662E0
1.261029594E1,7.015520334E-1,5.766487122E-1,-1.231593370E0,1.530203001E0
1.262027506E1,1.297125340E0,2.354869843E0,-1.268986940E0,2.972923473E0
1.263029235E1,1.310117245E0,2.457579613E0,-1.304368615E0,3.075301974E0
1.264026146E1,1.321056962E0,2.566565514E0,-1.307337761E0,3.168845540E0
1.265029626E1,1.305973530E0,3.224303246E0,-1.257064581E0,3.698906547E0
1.266027537E1,1.264553785E0,3.265872002E0,-1.165307641E0,3.690929166E0
1.267027876E1,1.198799491E0,3.326552391E0,-1.010681868E0,3.677573775E0
1.268028449E1,1.110923052E0,3.431204796E0,2.685487270E-2,3.606665713E0
1.269027850E1,1.024354577E0,4.253995895E0,1.638700962E-1,4.378656961E0
1.270027589E1,2.794835567E-1,4.456995964E0,1.657143116E0,4.763302152E0
1.271027667E1,2.073253393E-1,5.223188400E0,1.689039469E0,5.493408340E0
1.272028136E1,9.462881088E-2,5.250802040E0,1.520733118E0,5.467403945E0
1.273027902E1,-1.619407773E0,5.262423515E0,1.516841650E0,5.711076202E0
1.274027876E1,-1.578467965E0,5.224180222E0,1.504679680E0,5.661067129E0
1.275027980E1,-1.535760403E0,5.132534027E0,1.448536992E0,5.549749992E0
1.276027902E1,-1.489548802E0,4.976587296E0,1.395733476E0,5.378963532E0
1.277027850E1,-3.062736511E0,3.959690094E0,1.144199252E0,5.135045521E0
1.278027954E1,-3.146462440E0,3.822565079E0,1.096711040E0,5.070996428E0
1.279027813E1,-3.778989792E0,3.691333771E0,1.053293228E0,5.386662740E0
1.280029225E1,-3.713302135E0,3.621906281E0,2.561616659E0,5.785213718E0
1.281027881E1,-3.586023331E0,3.682348251E0,2.372938633E0,5.661279867E0
1.282026355E1,-3.365486145E0,4.527553558E0,7.432055473E-1,5.690131167E0
1.283027386E1,-1.192509532E0,5.291231155E0,7.147716880E-1,5.470841315E0
1.284028058E1,-1.088328838E0,5.934401512E0,6.900684834E-1,6.072707426E0
1.285027798E1,5.701905489E-1,6.017132759E0,6.685190797E-1,6.080947431E0
1.286027798E1,2.308003187E0,6.097350121E0,-7.674123645E-1,6.564562357E0
1.287027928E1,4.193370342E0,6.136032104E0,-8.970762491E-1,7.485986282E0
1.288027798E1,7.579802513E0,5.981971741E0,-9.781596661E-1,9.705369049E0
1.289028006E1,8.930070877E0,4.747391701E0,-8.687853813E-1,1.015079711E1
1.290027615E1,8.925189972E0,3.547739029E0,4.582896233E-1,9.615378185E0
1.291027824E1,8.770397186E0,2.244622231E0,2.535884976E-1,9.056627567E0
1.292027824E1,6.690020084E0,4.864788055E-2,2.524457574E-1,6.694958118E0
1.293028006E1,5.121214867E0,8.534336090E-2,2.547470033E-1,5.128257134E0
1.294027798E1,3.406910181E0,-1.450531006E0,2.580653429E-1,3.711829051E0
1.295027667E1,1.685112476E0,-2.597844124E0,2.634782791E-1,3.107703164E0
1.296027824E1,1.355041265E-1,-3.625446796E0,7.321745157E-2,3.628716941E0
1.297029021E1,-1.836740136E0,-4.493868828E0,1.784188032E0,5.172214062E0
1.298028173E1,-1.913752198E0,-4.620702267E0,1.801374793E0,5.315852524E0
1.299028818E1,-1.999425888E0,-5.526087284E0,1.841136575E0,6.158338123E0
1.300026370E1,-2.063414574E0,-5.570371151E0,1.931990862E0,6.246543296E0
1.301029548E1,-2.287394285E0,-5.646490097E0,2.616640806E0,6.630371946E0
1.302027954E1,-2.273055315E0,-6.353268623E0,2.619210482E0,7.238167324E0
1.303027876E1,-2.224407673E0,-6.398439407E0,2.577709436E0,7.247937795E0
1.304028240E1,-2.130918741E0,-6.460719109E0,2.523831606E0,7.256130653E0
1.305028396E1,-2.035694599E0,-6.528790474E0,2.484001160E0,7.275948001E0
1.306028058E1,-3.111532211E0,-6.692067146E0,2.440067768E0,7.772986949E0
1.307027876E1,-3.167947769E0,-6.759595394E0,2.347829819E0,7.825619964E0
1.308027693E1,-3.744866371E0,-6.834601402E0,2.239985466E0,8.108843034E0
1.309027954E1,-3.725192308E0,-7.414236069E0,2.148353815E0,8.571078015E0
1.310027745E1,-3.701323271E0,-7.449866772E0,2.069637060E0,8.572263787E0
1.311027615E1,-3.623658657E0,-7.526930809E0,2.011714697E0,8.592588986E0
1.312027641E1,-3.482075691E0,-8.211265564E0,1.976476669E0,9.135436131E0
1.313028162E1,-1.628624320E0,-8.293226242E0,1.994719505E0,8.683831216E0
1.314027693E1,-1.505414486E0,-9.197268486E0,2.706236839E0,9.704624578E0
1.315029990E1,-1.582377315E0,-9.335168839E0,2.679291725E0,9.840116837E0
1.316028230E1,-1.464362860E0,-9.270046234E0,2.672342777E0,9.758049584E0
1.317029417E1,-1.346368432E0,-9.202548027E0,3.276314259E0,9.860721742E0
1.318028933E1,-1.228831530E0,-9.132161140E0,3.242233753E0,9.768238006E0
1.319027360E1,-1.162160277E0,-9.050938606E0,3.828921318E0,9.895996394E0
1.320027928E1,-1.295143723E0,-9.158727646E0,3.758871317E0,9.984428022E0
1.321027954E1,-1.238338828E0,-9.058337212E0,4.232872963E0,1.007492777E1
1.322027563E1,-1.181521773E0,-8.951083183E0,4.140385151E0,9.932807914E0
1.323028136E1,-1.126544476E0,-8.825440407E0,4.677474976E0,1.005168011E1
1.324027745E1,-1.231646657E0,-8.838132858E0,5.210055351E0,1.033316131E1
1.325027719E1,-1.175320625E0,-8.676774025E0,4.961693764E0,1.006410409E1
1.326028188E1,-1.114808798E0,-8.488256454E0,4.652149200E0,9.743499806E0
1.327028240E1,-1.051273704E0,-6.978495121E0,4.362675667E0,8.296837321E0
1.328027824E1,-9.824329019E-1,-6.627861023E0,5.634173870E0,8.754292167E0
1.329028240E1,-1.111594439E0,-5.025514603E0,5.163626671E0,7.290711873E0
1.330027850E1,-1.031822920E0,-3.543834209E0,7.385452271E0,8.256411126E0
1.331027902E1,6.725076437E-1,-2.131875038E0,8.783618927E0,9.063615127E0
1.332027902E1,2.622616768E0,-1.699468136E0,9.730076790E0,1.021962352E1
1.333030480E1,4.757900715E0,-1.362890720E0,9.538906097E0,1.074643289E1
1.334027600E1,6.324040890E0,-1.087960720E0,9.234079361E0,1.124479317E1
1.335027907E1,7.153613567E0,-9.926762581E-1,8.987434387E0,1.152968213E1
1.336026407E1,7.351778030E0,-1.960756779E0,8.587539673E0,1.147340599E1
1.337028751E1,7.949082375E0,-2.430769205E0,7.033786774E0,1.088901767E1
1.338028683E1,7.745051861E0,-2.813568354E0,5.316974640E0,9.806743319E0
1.339028891E1,6.130176544E0,-2.610852957E0,3.511786461E0,7.531816632E0
1.340028475E1,3.955895901E0,-2.307060719E0,1.869810581E0,4.946497058E0
1.341029256E1,1.415126562E0,-1.246714115E0,1.772459030E0,2.588144178E0
1.342028735E1,-1.450130939E0,1.499861717E0,1.716604233E0,2.701702242E0
1.343029178E1,-1.715714931E0,2.806419849E0,5.487842560E-1,3.334791486E0
1.344028865E1,-2.878096104E0,3.064693928E0,-1.027611732E0,4.328021710E0
1.345028943E1,-2.982700825E0,3.190034151E0,-2.194417000E0,4.887564635E0
1.346028683E1,-3.009811401E0,3.190961123E0,-3.080728531E0,5.360231883E0
1.347028787E1,-1.844464302E0,3.105239630E0,-3.928706169E0,5.336599468E0
1.348029282E1,-1.883301020E0,2.275916100E0,-4.667980194E0,5.524188258E0
1.349028579E1,-1.728744984E0,2.166590929E0,-4.812168121E0,5.553344713E0
1.350029048E1,-1.586127639E0,2.029902935E0,-5.622384548E0,6.184457520E0
1.351030740E1,-1.460387230E0,1.860608101E0,-5.648683548E0,6.123905551E0
1.352027558E1,-1.347685218E0,1.691397667E0,-5.650339127E0,6.050075517E0
1.353026615E1,-1.444461465E0,1.534757614E0,-5.646225929E0,6.026758424E0
1.354027917E1,-1.346618772E0,1.411444664E0,-5.650527000E0,5.977793367E0
1.355028037E1,-1.255529284E0,1.352356911E0,-5.666345119E0,5.959252471E0
1.356031027E1,-1.169399023E0,1.381971359E0,-6.239183903E0,6.496518659E0
1.357029126E1,-1.091260672E0,2.415220737E0,-6.212291241E0,6.754013882E0
1.358028891E1,4.297683239E-1,2.950027943E0,-6.229672909E0,6.906242844E0
1.359028058E1,1.183850884E0,2.979136467E0,-7.668686390E0,8.311769243E0
1.360028006E1,2.759348392E0,4.685081959E0,-7.491585732E0,9.256773373E0
1.361027876E1,3.577111006E0,4.571790218E0,-7.352207661E0,9.367600890E0
1.362027902E1,3.751386166E0,4.317243576E0,-7.378475189E0,9.335597805E0
1.363028344E1,4.673445702E0,4.153467655E0,-7.182126522E0,9.522359459E0
1.364027355E1,4.676405907E0,3.994997025E0,-6.976905346E0,9.300859188E0
1.365027693E1,4.627859116E0,3.770211220E0,-6.698485374E0,8.972250495E0
1.366027928E1,4.502812862E0,3.565262318E0,-6.414211273E0,8.609792409E0
1.367027771E1,4.323304176E0,1.774704933E0,-6.325673103E0,7.864774428E0
1.368028266E1,4.104667187E0,1.521549702E0,-6.038485050E0,7.458331443E0
1.369028657E1,3.782338619E0,1.306354046E0,-5.748618126E0,7.004231341E0
1.370028334E1,2.638640404E0,1.164681435E0,-5.463680267E0,6.178244742E0
1.371026709E1,2.318474531E0,1.127092361E0,-5.185037136E0,5.790532915E0
1.372028860E1,1.117937565E0,2.575186729E0,-5.113511562E0,5.833469944E0
1.373028350E1,8.502912521E-1,2.495316505E0,-4.849868298E0,5.520038241E0
1.374027798E1,-1.565027237E-2,2.426877022E0,-4.594609737E0,5.196192418E0
1.375027902E1,-2.216467857E-1,2.368765354E0,-4.348056316E0,4.956386822E0
1.376027850E1,-4.323563576E-1,2.319848061E0,-4.110097408E0,4.739359424E0
1.377027928E1,-1.192764521E0,2.167727470E0,-4.086139679E0,4.776846979E0
1.378028631E1,-1.252395988E0,2.107977390E0,-3.876765490E0,4.587087861E0
1.379027928E1,-1.375237465E0,2.073177338E0,-3.635435104E0,4.405193612E0
1.380027771E1,-1.428400993E0,8.009300232E-1,-3.444555283E0,3.814024042E0
1.381028136E1,-1.503281713E0,5.739498138E-2,-3.459934950E0,3.772837122E0
1.382027824E1,-3.062341213E0,-1.341857910E-1,-3.281932831E0,4.490770829E0
1.383028162E1,-2.966107130E0,-8.419942856E-1,-3.112716198E0,4.381295244E0
1.384027824E1,-2.870437622E0,-9.092116356E-1,-2.949035406E0,4.214604106E0
1.385027798E1,-2.775177479E0,-9.464807510E-1,-2.790721655E0,4.047908498E0
1.386027693E1,-2.878872395E0,-9.669246674E-1,-2.838912010E0,4.157195085E0
1.387027771E1,-2.794772863E0,-9.707069397E-1,-2.701451540E0,4.006353422E0
1.388030730E1,-2.715714931E0,-9.484777451E-1,-2.573973417E0,3.860059167E0
1.389029256E1,-2.584797621E0,-8.878755569E-1,-2.454277754E0,3.673279330E0
1.390031282E1,-2.455807447E0,-7.573318481E-2,-2.336582661E0,3.390625940E0
1.391028558E1,-2.527018547E0,-1.515483856E-2,-2.420461416E0,3.499240757E0
1.392028219E1,-1.319053650E0,1.340117455E0,-2.306349754E0,2.975746379E0
1.393027959E1,-1.122791529E0,1.317594528E0,-2.194226503E0,2.794878549E0
1.394027771E1,-2.567660809E-1,1.297749519E0,-3.536829948E0,3.776142042E0
1.395027771E1,-7.499742508E-2,1.278697014E0,-3.539359093E0,3.764007632E0
1.396028032E1,6.401603222E-1,1.161626816E0,-3.541516781E0,3.781735475E0
1.397028162E1,7.698142529E-1,2.230694771E0,-3.595574856E0,4.300787334E0
1.398028006E1,8.285646439E-1,2.246238708E0,-3.572729826E0,4.300756458E0
1.399028136E1,8.515994549E-1,2.250174522E0,-3.510675192E0,4.255977833E0
1.400027798E1,8.610391617E-1,2.253193855E0,-3.345757008E0,4.124604338E0
1.401027641E1,8.396676779E-1,2.313807487E0,-3.128391743E0,3.980650926E0
1.402028006E1,8.070197105E-1,3.012383461E0,-2.885902882E0,4.249019931E0
1.403028396E1,7.897689342E-1,3.095780373E0,-1.167797565E0,3.401667567E0
1.404027954E1,7.881567478E-1,3.814686775E0,-1.013699651E0,4.024998538E0
1.405027824E1,8.001334667E-1,3.878278732E0,-1.065733194E0,4.100859267E0
1.406029798E1,8.242897987E-1,3.972251892E0,-9.240049720E-1,4.160772038E0
1.407029782E1,8.550190926E-1,4.750257492E0,-7.880402207E-1,4.890502150E0
1.408029428E1,8.873338699E-1,4.783665657E0,-6.569656730E-1,4.909421800E0
1.409027506E1,9.021320343E-1,4.815482140E0,-5.890575051E-1,4.934541436E0
1.410027646E1,8.859748840E-1,4.820741653E0,-7.212449312E-1,4.954260372E0
1.411027771E1,8.176376820E-1,4.809236526E0,-6.567094326E-1,4.922250971E0
1.412027771E1,7.291426659E-1,4.787679672E0,-5.936756134E-1,4.879136850E0
1.413028839E1,6.439974308E-1,4.770607948E0,1.180823445E0,4.956589240E0
1.414027589E1,5.744268894E-1,4.734691620E0,1.264181852E0,4.934108505E0
1.415027928E1,4.310214520E-1,4.644244194E0,1.364293814E0,4.859637974E0
1.416027589E1,4.085664749E-1,4.616428375E0,1.399518967E0,4.841176597E0
1.417027980E1,4.512262344E-1,4.605639458E0,1.362159491E0,4.824002322E0
1.418028084E1,5.481815338E-1,4.602911949E0,1.164401770E0,4.779449015E0
1.419027615E1,6.700127125E-1,4.584098816E0,-7.019929290E-1,4.685688110E0
1.420027641E1,1.451694727E0,4.527266502E0,-7.006751895E-1,4.805674280E0
1.421027876E1,1.566388845E0,4.466809273E0,-6.968386769E-1,4.784510762E0
1.422028292E1,2.556085825E0,4.422677994E0,-6.907300949E-1,5.154683642E0
1.423028214E1,3.352319956E0,4.378061295E0,-6.824536324E-1,5.556186889E0
1.424029568E1,3.478767395E0,4.288987160E0,-8.716669083E-1,5.590799285E0
1.425029813E1,3.544752359E0,3.496031761E0,-8.586632013E-1,5.052208414E0
1.426028657E1,3.491919279E0,2.822692871E0,4.574281573E-1,4.513350841E0
1.427027412E1,3.342164755E0,2.016576767E0,1.443568230E0,4.161794846E0
1.428028063E1,2.316276789E0,7.671756744E-1,2.417658806E0,3.434933883E0
1.429027954E1,1.369659901E0,6.962728500E-1,2.533958673E0,2.963395128E0
1.430027485E1,2.536408901E-1,-1.017887115E0,2.584300756E0,2.789092734E0
1.431027798E1,-9.266152382E-1,-2.012657166E0,2.553125620E0,3.380511070E0
1.432028266E1,-2.266489029E0,-2.946106911E0,2.446615458E0,4.449993893E0
1.433028423E1,-2.424777746E0,-3.888584614E0,2.288136244E0,5.122128941E0
1.434028214E1,-2.427623987E0,-4.930470467E0,2.122994900E0,5.891519718E0
1.435027771E1,-2.402859211E0,-5.025938511E0,1.945864081E0,5.900862422E0
1.436027693E1,-2.359419107E0,-5.774237156E0,1.792176485E0,6.490036195E0
1.437027537E1,-2.287939548E0,-5.868506432E0,1.620150924E0,6.503762306E0
1.438028136E1,-2.385769606E0,-6.757691860E0,1.460353613E0,7.313749282E0
1.439027798E1,-2.289810419E0,-6.896949768E0,1.341627359E0,7.389933141E0
1.440027641E1,-2.193741083E0,-8.815271378E0,1.255699039E0,9.170511953E0
1.441027771E1,-2.104984522E0,-8.746773720E0,1.177211165E0,9.073193290E0
1.442030282E1,-2.016944408E0,-8.677662849E0,1.138887048E0,8.981478775E0
1.443029271E1,-3.582871675E0,-8.805130959E0,1.111611962E0,9.570944666E0
1.444029922E1,-3.556014299E0,-8.731494904E0,1.070138454E0,9.488384333E0
1.445026657E1,-3.519394159E0,-8.653517723E0,1.035100222E0,9.398985940E0
1.446027771E1,-3.459006310E0,-8.573582649E0,9.798576832E-1,9.296836299E0
1.447027589E1,-3.382571697E0,-8.484570503E0,8.778605461E-1,9.176075798E0
1.448028318E1,-3.297034740E0,-8.592745781E0,8.047461510E-1,9.238686839E0
1.449027719E1,-3.173833847E0,-8.498333931E0,1.346521139E0,9.171042474E0
1.450028318E1,-1.834954262E0,-8.400098801E0,1.353626490E0,8.704080749E0
1.451027667E1,-1.735035896E0,-8.257632256E0,2.350729227E0,8.759267545E0
1.452027667E1,-1.875956178E0,-8.350589752E0,3.122498751E0,9.110519153E0
1.453028553E1,-1.813070178E0,-8.239566803E0,3.075779200E0,8.979872062E0
1.454027876E1,-5.570660830E-1,-8.112181664E0,3.001525164E0,8.667581397E0
1.455028006E1,-5.114848614E-1,-7.976453781E0,2.884650230E0,8.497448949E0
1.456027771E1,-4.747039080E-1,-7.813612938E0,2.671285868E0,8.271254991E0
1.457027615E1,-4.793221951E-1,-7.838308811E0,2.434099197E0,8.221537185E0
1.458028813E1,-4.999741316E-1,-7.631287098E0,2.169755459E0,7.949487761E0
1.459028891E1,-5.182938576E-1,-7.410691261E0,1.961997986E0,7.683515445E0
1.460030433E1,-5.622420311E-1,-7.167362213E0,2.576339722E0,7.637062495E0
1.461029428E1,-5.518099070E-1,-6.913016796E0,3.151294708E0,7.617411223E0
1.462034678E1,-4.917551279E-1,-6.849170685E0,4.311077595E0,8.107919104E0
1.463027777E1,-3.929481506E-1,-6.578229427E0,4.071588516E0,7.746311619E0
1.464027646E1,5.081974268E-1,-4.457110882E0,7.080457211E0,8.381943471E0
1.465028553E1,1.900141954E0,-2.141258240E0,9.000961304E0,9.445254400E0
1.466028787E1,4.042850494E0,2.570948601E-1,9.487670898E0,1.031632866E1
1.467028813E1,5.600221634E0,2.320873737E0,9.152019501E0,1.097763172E1
1.468029256E1,6.496627331E0,4.604903698E0,8.917579651E0,1.195552306E1
1.469028995E1,6.357326984E0,4.978714943E0,8.535806656E0,1.175002996E1
1.470028709E1,4.940451622E0,5.286721706E0,7.203881741E0,1.021045546E1
1.471028943E1,3.916498661E0,3.358993530E0,5.132313251E0,7.277529705E0
1.472028709E1,2.154498816E0,1.798211098E0,2.106526375E0,3.508971597E0
1.473028422E1,-2.264850140E-1,3.307728767E-1,2.092581749E0,2.130634772E0
1.474028839E1,-2.118866920E0,-6.817858219E-1,2.083759308E0,3.049013248E0
1.475028761E1,-2.130235672E0,-7.091882229E-1,-7.921648026E-2,2.246581226E0
1.476029230E1,-3.367693663E0,-6.298968792E-1,-1.302350998E0,3.665276089E0
1.477029048E1,-3.427324772E0,1.176366806E-1,-2.185611725E0,4.066606951E0
1.478030948E1,-3.397785902E0,1.206480026E0,-2.957707882E0,4.663537177E0
1.479029469E1,-2.319924593E0,2.155385733E0,-3.104057789E0,4.434288278E0
1.480032907E1,-2.222644567E0,2.986685276E0,-4.094797134E0,5.534239007E0
1.481027568E1,-2.267104149E0,3.115675688E0,-4.194046021E0,5.695368139E0
1.482027876E1,-2.134125948E0,3.929692268E0,-4.267602921E0,6.181376026E0
1.483027980E1,-2.013668060E0,3.912875175E0,-4.306787968E0,6.157424282E0
1.484027954E1,-1.902189970E0,3.881383419E0,-4.327434063E0,6.116383694E0
1.485027902E1,-1.795633435E0,3.788471222E0,-4.362577438E0,6.050528534E0
1.486028787E1,-1.896780372E0,3.637108326E0,-5.103805542E0,6.547912932E0
1.487027954E1,-7.317146063E-1,3.400025845E0,-5.860564709E0,6.814822134E0
1.488027771E1,8.873760700E-2,3.207097530E0,-5.884932518E0,6.702669593E0
1.489027850E1,2.396560907E-1,3.082482338E0,-7.153528690E0,7.793080593E0
1.490027928E1,1.040219903E0,3.012883663E0,-7.206321716E0,7.879758759E0
1.491028214E1,1.202573419E0,3.510234356E0,-7.057121277E0,7.973135442E0
1.492027667E1,2.132837772E0,4.390361309E0,-6.893202305E0,8.446331002E0
1.493027798E1,2.254461288E0,4.256897449E0,-6.722190380E0,8.269922315E0
1.494027667E1,3.061269760E0,4.117291927E0,-6.533062935E0,8.306887303E0
1.495027798E1,3.106227636E0,3.882472515E0,-6.539659500E0,8.215192593E0
1.496030719E1,3.119883776E0,3.730010509E0,-6.313189507E0,7.968877896E0
1.497029485E1,3.124954700E0,3.573248863E0,-6.072635651E0,7.707811172E0
1.498030230E1,3.079709530E0,3.412234306E0,-5.807356834E0,7.406304554E0
1.499027568E1,3.003054142E0,3.264878750E0,-5.542567730E0,7.099142517E0
1.500028032E1,2.862077951E0,3.037414551E0,-5.476051331E0,6.885093720E0
1.501028266E1,2.673214674E0,2.922787189E0,-5.212234020E0,6.546460504E0
1.502028058E1,2.434944868E0,2.819792271E0,-6.333203793E0,7.347765323E0
1.503027798E1,1.448340178E0,2.728377819E0,-6.123682499E0,6.858660375E0
1.504027928E1,1.249485493E0,2.647410870E0,-5.909275055E0,6.594659201E0
1.505027693E1,3.950572014E-1,2.496547699E0,-5.642814159E0,6.183055251E0
1.506029516E1,-3.590321541E-1,2.434322834E0,-5.376109123E0,5.912476727E0
1.507028032E1,-5.296957493E-1,5.256638527E-1,-5.071522236E0,5.126132837E0
1.508027928E1,-1.270231485E0,3.228688240E-1,-3.626256704E0,3.855835835E0
1.509027928E1,-1.399641752E0,-5.581426620E-1,-3.581321239E0,3.885406296E0
1.510027824E1,-1.549554944E0,-7.005572319E-1,-3.344770908E0,3.752251776E0
1.511027865E1,-2.936878681E0,-8.343043327E-1,-3.118721962E0,4.364372439E0
1.512027537E1,-2.891575575E0,-9.491586685E-1,-4.093214035E0,5.100638452E0
1.513027798E1,-2.821474314E0,-1.034491062E0,-4.017107010E0,5.016775637E0
1.514029423E1,-2.968242645E0,-1.083797932E0,-3.963759899E0,5.069169054E0
1.515028334E1,-2.891956091E0,-1.101743698E0,-3.910633802E0,4.987013730E0
1.516029449E1,-2.822030067E0,-1.066602707E0,-3.847720385E0,4.889421969E0
1.517027490E1,-2.747774363E0,-9.957609177E-1,-3.739932060E0,4.746461373E0
1.518028787E1,-2.624710083E0,-1.767039299E-1,-3.606433868E0,4.463932408E0
1.519028266E1,-1.385802507E0,-9.859752655E-2,-3.461922169E0,3.730291566E0
1.520027876E1,-1.159018397E0,1.582567215E0,-3.304186344E0,3.842588975E0
1.521029256E1,-6.057739258E-3,1.551146507E0,-3.125124931E0,3.488910721E0
1.522027146E1,2.140326500E-1,1.523034096E0,-2.960534096E0,3.336196182E0
1.523027980E1,1.334637403E0,2.701305389E0,-2.805798531E0,4.117136529E0
1.524027641E1,1.437098265E0,2.693427086E0,-2.702402592E0,4.077104445E0
1.525030610E1,1.512199402E0,2.621270180E0,-2.610102654E0,3.996303323E0
1.526028631E1,1.508434772E0,2.499718666E0,-2.512784958E0,3.852019875E0
1.527027954E1,1.450406313E0,1.378935814E0,-2.388027430E0,3.115737065E0
1.528027824E1,1.332503557E0,1.295078278E0,-2.249927759E0,2.918041877E0
1.529027798E1,1.189589500E0,1.313468933E0,-2.097517014E0,2.745888097E0
1.530027824E1,4.603471756E-1,3.320751190E-1,-1.937491417E0,2.018927041E0
1.531028448E1,3.739778996E-1,-4.420614243E-1,-1.801084280E0,1.891872711E0
1.532032230E1,2.815132141E-1,-4.854683876E-1,-1.700294256E0,1.790511045E0
1.533028042E1,1.936593056E-1,-4.975333214E-1,-1.625990748E0,1.711399792E0
1.534041386E1,1.051056385E-1,-4.872145653E-1,-1.574851036E0,1.651841704E0
1.535031110E1,1.550340652E-2,-4.229841232E-1,-1.578358889E0,1.634127506E0
1.536028298E1,-9.062767029E-2,3.235893250E-1,-2.141480923E0,2.167686317E0
1.537028110E1,-1.795375347E-1,1.406265259E0,-2.164588928E0,2.587520228E0
1.538027902E1,-8.529367447E-1,1.320974350E0,-2.203750134E0,2.707210552E0
1.539027954E1,-8.985776901E-1,2.613562584E0,-2.222861052E0,3.546725603E0
1.540028084E1,-9.726595879E-1,2.767612457E0,-2.195375443E0,3.664071331E0
1.541029048E1,-2.460765123E0,3.875238419E0,-2.003921986E0,5.008846286E0
1.542027928E1,-2.599693298E0,3.958800316E0,-1.211701870E0,4.888632386E0
1.543028058E1,-2.535201550E0,3.975821495E0,-1.033400536E0,4.827247676E0
1.544028162E1,-2.435125351E0,3.925316811E0,3.241867721E-1,4.630663516E0
1.545030532E1,-2.334567308E0,3.854398727E0,4.247962534E-1,4.526261805E0
1.546028631E1,-2.224473715E0,3.792535782E0,5.202159286E-1,4.427441200E0
1.547027693E1,-5.991356373E-1,3.780088425E0,4.121540785E-1,3.849402940E0
1.548027667E1,-4.377200603E-1,3.849898338E0,4.807691276E-1,3.904414812E0
1.549027798E1,2.918419838E-1,4.692132950E0,5.435003042E-1,4.732512646E0
1.550032990E1,4.355030060E-1,5.401556015E0,5.611848235E-1,5.448063753E0
1.551028923E1,5.696320534E-1,6.114459038E0,5.784943700E-1,6.168123356E0
1.552040678E1,6.949549913E-1,6.248010635E0,3.974226117E-1,6.299090734E0
1.553028985E1,7.976061106E-1,7.144609451E0,4.173020422E-1,7.201094411E0
1.554027928E1,8.914495707E-1,7.158349991E0,4.367178977E-1,7.226851282E0
1.555030402E1,9.595038891E-1,7.126994133E0,4.557292163E-1,7.205718715E0
1.556028370E1,1.026800156E0,7.033053398E0,4.749422669E-1,7.123463260E0
1.557028084E1,1.092113376E0,6.349388123E0,2.947872281E-1,6.449367462E0
1.558027850E1,1.167879820E0,6.193248749E0,1.385726929E0,6.452946029E0
1.559028110E1,1.938895464E0,5.182277679E0,2.536640644E0,6.086859890E0
1.560027876E1,1.992076159E0,5.068661690E0,3.243743658E0,6.338893568E0
1.561028475E1,2.012401342E0,4.997493744E0,3.254274845E0,6.294045412E0
1.562028032E1,1.979515433E0,4.978051186E0,3.230859518E0,6.256031344E0
1.563027589E1,1.865284085E0,4.998289108E0,3.129983187E0,6.185383859E0
1.564027589E1,9.567720890E-1,5.053673744E0,2.918323040E0,5.913682483E0
1.565030350E1,8.072906733E-1,5.111845016E0,1.765893817E0,5.468186050E0
1.566028292E1,-2.619951963E-1,5.132344246E0,-1.043703482E-1,5.140086780E0
1.567027641E1,-4.240136147E-1,5.090450287E0,-1.296872497E-1,5.109725086E0
1.568034110E1,-1.844668627E0,4.989202499E0,-1.514889151E-1,5.321455892E0
1.569027527E1,-1.804474115E0,4.183974266E0,-1.217770934E0,4.716432289E0
1.570029787E1,-1.764414668E0,4.024941444E0,-1.409079671E0,4.615064276E0
1.571027959E1,-1.914981365E0,2.967382431E0,-2.112098455E0,4.115030013E0
1.572027438E1,-5.834716558E-1,2.826446533E0,-2.104299545E0,3.571738478E0
1.573027928E1,4.603430033E-1,2.071139336E0,-1.995766759E0,2.912836896E0
1.574027928E1,1.536533117E0,2.028782845E0,-2.628098726E-1,2.558507940E0
1.575030271E1,2.529244423E0,2.025185585E0,-2.081356794E-1,3.246809891E0
1.576028214E1,3.317088127E0,2.017251015E0,-3.533496261E-1,3.898362638E0
1.577028110E1,4.067020416E0,1.933926582E0,-2.601721287E-1,4.510921927E0
1.578028136E1,4.000030518E0,1.800410271E0,-2.077313066E-1,4.391454609E0
1.579027745E1,3.209080696E0,7.697200775E-1,-1.560653001E-1,3.303789383E0
1.580027850E1,2.388307095E0,6.996574402E-1,-3.052374721E-1,2.507329501E0
1.581028553E1,1.518393993E0,-6.615648270E-1,-2.537766993E-1,1.675586749E0
1.582028448E1,6.650710106E-1,-1.615579605E0,-2.028034776E-1,1.758847964E0
1.583029048E1,-8.020401001E-2,-2.670809746E0,-1.534614563E-1,2.676416971E0
1.584028891E1,-2.811762094E-1,-3.735969067E0,-1.044351757E-1,3.747990346E0
1.585032407E1,-2.242844343E0,-4.706812382E0,-2.566302419E-1,5.220181283E0
1.586038245E1,-2.252694845E0,-5.510422230E0,1.005519509E0,6.037421362E0
1.587027542E1,-2.260901690E0,-5.645633221E0,1.112933397E0,6.182513377E0
1.588045818E1,-2.254829407E0,-6.570123672E0,1.214654803E0,7.051678312E0
1.589026454E1,-3.726897717E0,-6.634831429E0,1.283142924E0,7.717331821E0
1.590028475E1,-3.830596924E0,-6.696536064E0,1.340935469E0,7.830400755E0
1.591029100E1,-3.945064545E0,-6.746826649E0,1.420178533E0,7.943557840E0
1.592028761E1,-4.525214195E0,-6.814217091E0,2.060332775E0,8.435406879E0
1.593029230E1,-4.468974113E0,-7.404494286E0,2.071657658E0,8.893257598E0
1.594029074E1,-4.382825851E0,-7.455297470E0,2.066920757E0,8.891725605E0
1.595032902E1,-4.119040489E0,-8.819437981E0,2.036612272E0,9.944685535E0
1.596028370E1,-3.227510214E0,-8.771790504E0,1.990088820E0,9.556232749E0
1.597029594E1,-3.048139572E0,-8.722311020E0,1.949546337E0,9.443018336E0
1.598028683E1,-1.804852366E0,-8.671635628E0,1.938489914E0,9.067110878E0
1.599028683E1,-1.887458086E0,-8.818145752E0,1.941812277E0,9.224577359E0
1.600027824E1,-1.768041849E0,-8.763316154E0,2.517748594E0,9.287666014E0
1.601028761E1,-1.646743417E0,-9.881769180E0,2.485224962E0,1.032169895E1
1.602028891E1,-1.546358705E0,-9.903832436E0,3.021682739E0,1.046936907E1
1.603029542E1,-1.447952986E0,-9.951307297E0,3.056070328E0,1.051021649E1
1.604040568E1,-1.081055403E-1,-1.001294613E1,4.006383896E0,1.078526258E1
1.605034594E1,-8.857643604E-2,-1.058808422E1,3.991830826E0,1.131592182E1
1.606028704E1,-8.984875679E-2,-1.053111649E1,4.443517685E0,1.143054402E1
1.607028271E1,-1.105244160E-1,-1.043000126E1,4.287204266E0,1.127728967E1
1.608028271E1,-1.282440424E-1,-1.026762104E1,4.085937500E0,1.105148739E1
1.609027693E1,-1.287990808E-1,-9.560209274E0,3.888007164E0,1.032137541E1
1.610027824E1,-1.879304647E-1,-9.352121353E0,3.658219814E0,1.004390680E1
1.611027110E1,-2.222685814E-1,-9.069828987E0,3.370724916E0,9.678480647E0
1.612027928E1,-2.318209410E-1,-7.792516232E0,3.090125799E0,8.386055546E0
1.613028370E1,6.189197302E-1,-7.715592384E0,3.463454485E0,8.479914177E0
1.614027771E1,6.546221972E-1,-7.456930161E0,3.205885410E0,8.143220426E0
1.615027980E1,1.296223760E0,-7.177335262E0,3.737773418E0,8.195443102E0
1.616027798E1,1.298530221E0,-6.880380154E0,3.514577389E0,7.834415487E0
1.617027798E1,1.318322420E0,-6.591805935E0,4.775338173E0,8.245831320E0
1.618028318E1,2.004145384E0,-4.822690487E0,5.854166985E0,7.845139472E0
1.619027719E1,2.875602961E0,-3.275555611E0,7.578865528E0,8.742857636E0
1.620027667E1,3.933393717E0,-1.943897247E0,9.269901276E0,1.025579798E1
1.621027928E1,4.820656776E0,-1.476882458E0,1.020876694E1,1.138590514E1
1.622043225E1,4.774526119E0,-1.111073971E0,9.993780136E0,1.113131737E1
1.623029532E1,4.626439571E0,-8.306455612E-1,9.730350494E0,1.080618508E1
1.624029011E1,4.440151215E0,-6.012954712E-1,9.528682709E0,1.052959131E1
1.625026438E1,4.289431572E0,-3.999090195E-1,9.178520203E0,1.013924965E1
1.626027350E1,3.476965427E0,-1.145932913E0,7.260884285E0,8.131598331E0
1.627027980E1,2.723488808E0,-1.879028082E0,5.568484306E0,6.477357122E0
1.628028292E1,1.696936369E0,-2.342257500E0,3.942087650E0,4.889357655E0
1.629027589E1,4.996814728E-1,-2.162393570E0,2.149538517E0,3.089683376E0
1.630028240E1,-3.279366493E-1,-1.832564473E0,2.108176708E0,2.812515605E0
1.631028006E1,-1.223431826E0,1.402376175E0,2.097590923E0,2.804163342E0
1.632027771E1,-1.388384700E0,2.581523657E0,1.984553814E0,3.539820660E0
1.633028527E1,-3.095663309E0,3.396591187E0,4.549169540E-1,4.618107020E0
1.634027615E1,-3.047307253E0,3.560809374E0,-5.410346985E-1,4.717855809E0
1.635027928E1,-2.978712797E0,4.367258072E0,-1.647657871E0,5.537187865E0
1.636027667E1,-2.883946657E0,4.410822868E0,-2.582794189E0,5.868844224E0
1.637027563E1,-2.986450195E0,4.405584335E0,-3.343208313E0,6.285308260E0
1.638028214E1,-2.860826492E0,4.308306694E0,-3.476591110E0,6.231574483E0
1.639027850E1,-2.731401205E0,4.137919426E0,-4.193600178E0,6.493782578E0
1.640039646E1,-2.567115307E0,3.368619442E0,-4.262917042E0,6.009171295E0
1.641028162E1,-2.416089535E0,3.141863346E0,-4.348950863E0,5.884060463E0
1.642028313E1,-2.479501486E0,2.908876419E0,-4.977458954E0,6.275714085E0
1.643028334E1,-2.352811337E0,2.690030813E0,-4.992021561E0,6.139402758E0
1.644027568E1,-2.235036850E0,2.513755083E0,-5.053266048E0,6.070407902E0
1.645027980E1,-9.845851660E-1,2.432127476E0,-5.880806923E0,6.439607292E0
1.646028266E1,-8.151704073E-1,2.979836702E0,-5.931155205E0,6.687490683E0
1.647028136E1,3.540802002E-2,3.635572910E0,-7.491274834E0,8.326934775E0
1.648028475E1,2.139543295E-1,4.396519661E0,-7.350903988E0,8.568019084E0
1.649027902E1,1.283085585E0,5.393587589E0,-7.167532921E0,9.061491261E0
1.650027876E1,2.083640575E0,5.241163731E0,-7.011931419E0,8.998807561E0
1.651028136E1,2.153538704E0,6.575813770E0,-7.040126801E0,9.871293788E0
1.652027693E1,2.200699329E0,6.391380787E0,-6.845754623E0,9.620664336E0
1.653028188E1,2.239325047E0,6.089047909E0,-6.603118896E0,9.257011411E0
1.654027980E1,2.247514009E0,4.335446835E0,-6.325938702E0,7.991552974E0
1.655027928E1,2.261330128E0,4.116963387E0,-6.045424938E0,7.655727539E0
1.656027850E1,2.252537489E0,3.821728230E0,-5.958432674E0,7.428489196E0
1.657027798E1,2.747764826E0,2.432126522E0,-5.671498299E0,6.755097624E0
1.658028037E1,2.660562992E0,2.130953789E0,-5.387188911E0,6.375057949E0
1.659028699E1,2.571808577E0,1.298006058E0,-5.106955528E0,5.863447267E0
1.660029771E1,2.467563629E0,1.159240246E0,-4.832008362E0,5.548063898E0
1.661027881E1,2.345064640E0,1.102727890E0,-4.762603283E0,5.421967078E0
1.662027568E1,2.192002296E0,1.770675659E0,-4.499907970E0,5.309363248E0
1.663029672E1,1.998097897E0,2.826922894E0,-4.243249416E0,5.476226243E0
1.664028006E1,1.049135685E0,2.751610756E0,-3.994873047E0,4.962968678E0
1.665027693E1,8.759574890E-1,2.685939789E0,-3.754975796E0,4.699086858E0
1.666028240E1,1.075131893E-1,3.801283360E0,-3.723237753E0,5.322012179E0
