"Time (s)","Linear Acceleration x (m/s^2)","Linear Acceleration y (m/s^2)","Linear Acceleration z (m/s^2)","Absolute acceleration (m/s^2)"
8.675631200E-2,0.000000000E0,0.000000000E0,0.000000000E0,0.000000000E0
9.675761400E-2,1.999999955E-2,-1.655292511E-2,-2.634263039E-2,3.698558486E-2
1.067594370E-1,3.999999911E-2,-1.726388931E-2,-1.231789589E-2,4.527441178E-2
1.167651660E-1,5.999999866E-2,-6.823539734E-4,4.743599892E-2,7.648947273E-2
1.267531870E-1,-7.999999821E-2,1.129455566E-1,1.222429276E-1,1.846619393E-1
1.367508430E-1,-3.333333135E-2,2.162791729E0,1.746113300E-1,2.170084858E0
1.467477180E-1,5.714286584E-3,1.870964527E0,1.772892475E-1,1.879354249E0
1.567435520E-1,1.432509303E0,3.489987373E0,1.454596519E-1,3.775348101E0
1.667542290E-1,1.388520241E0,4.385829926E0,1.817548275E-1,4.603968659E0
1.767458960E-1,1.951229095E0,6.514854431E0,1.028295517E0,6.878082212E0
1.867492810E-1,1.787734151E0,6.834468842E0,9.666018486E-1,7.130236804E0
1.967566770E-1,1.563386917E0,6.426365852E0,8.952783346E-1,6.674120168E0
2.067451660E-1,4.312018752E-1,5.920543671E0,8.431084156E-1,5.995798880E0
2.167693330E-1,-9.086846709E-1,4.775443077E0,8.796801567E-1,4.940081132E0
2.267518850E-1,-8.143919110E-1,3.731828690E0,1.993309975E0,4.308487462E0
2.367524060E-1,-7.288393974E-1,2.787354469E0,1.913703442E0,3.458729921E0
2.467487600E-1,-6.505705118E-1,1.768360138E0,1.845164299E0,2.637227874E0
2.567477180E-1,-5.784352422E-1,9.258337021E-1,1.785945177E0,2.093168782E0
2.667513640E-1,-7.015134692E-1,7.576360703E-1,1.544647813E0,1.857974819E0
2.767485000E-1,-6.300128698E-1,-2.032470703E-2,5.593597889E-1,8.427411722E-1
2.867487600E-1,-5.631940961E-1,-8.514499664E-2,4.842025042E-1,7.475890083E-1
2.967482390E-1,-5.004464984E-1,-1.437807083E-1,4.617785215E-1,6.959590453E-1
3.067469370E-1,-4.412612915E-1,-2.488574982E-1,4.789474010E-1,6.971600926E-1
3.167550100E-1,-5.772108436E-1,-1.111828804E0,1.393736601E0,1.873989690E0
3.267485000E-1,5.186955929E-1,-1.170498848E0,1.378592968E0,1.881390773E0
3.367487600E-1,5.730256438E-1,-1.234929085E0,1.366052508E0,1.928602522E0
3.467469370E-1,6.028050780E-1,-2.136815071E0,1.355836272E0,2.601469701E0
3.567500620E-1,6.165654063E-1,-2.043821335E0,1.347704053E0,2.524611804E0
3.667678230E-1,6.594744325E-1,-2.053027153E0,1.148113847E0,2.442947487E0
3.769210520E-1,6.937914491E-1,-1.967446327E0,1.149787664E0,2.382058626E0
3.867368850E-1,7.160500288E-1,-1.886588097E0,1.152606726E0,2.323885659E0
3.967451660E-1,7.233217359E-1,-1.810025215E0,1.156467080E0,2.266451350E0
4.067446460E-1,6.988498569E-1,-1.737377167E0,1.161276937E0,2.203505086E0
4.167557910E-1,6.474876404E-1,-1.765452385E0,9.726689458E-1,2.117108227E0
4.267492810E-1,5.781604648E-1,-1.696968079E0,9.845392108E-1,2.045308691E0
4.367521460E-1,4.698425531E-1,-1.631644249E0,9.968490005E-1,1.968939539E0
4.467529270E-1,-6.486353278E-1,-1.550832748E0,1.049237490E0,1.981592620E0
4.567477180E-1,-7.884194255E-1,-1.590062141E0,8.670065999E-1,1.975247642E0
4.667578750E-1,-7.301653028E-1,-1.531768799E0,8.848844767E-1,1.913760058E0
4.767464160E-1,-6.737327576E-1,-1.475773811E0,9.028634429E-1,1.856606196E0
4.867498020E-1,-6.189947724E-1,-1.421918869E0,9.209364057E-1,1.803643995E0
4.967479790E-1,-5.658358335E-1,-1.370056152E0,9.390969276E-1,1.754744167E0
5.067482390E-1,-7.097061276E-1,-1.417832375E0,7.617837191E-1,1.759046863E0
5.167534480E-1,-6.551473141E-1,-1.367444992E0,7.843536139E-1,1.707142174E0
5.267485000E-1,6.054559946E-1,-1.318775177E0,8.068141937E-1,1.660329507E0
5.367662080E-1,6.290840507E-1,-1.271718025E0,8.291722536E-1,1.643332013E0
5.467482910E-1,6.383593082E-1,-1.226172447E0,8.514339924E-1,1.623558228E0
5.569019890E-1,6.209105849E-1,-1.280049324E0,6.776053309E-1,1.575818902E0
5.667419890E-1,5.805891752E-1,-1.235342979E0,7.035346031E-1,1.535616165E0
5.767365210E-1,5.159165859E-1,-1.191970825E0,7.292358875E-1,1.489546693E0
5.867474580E-1,4.304657578E-1,-1.149858475E0,7.547219992E-1,1.441208027E0
5.967503230E-1,3.273280263E-1,-1.108934402E0,7.800048590E-1,1.394735360E0
6.067505830E-1,-7.695950866E-1,-1.167317390E0,6.087321043E-1,1.524946315E0
6.167578750E-1,-7.165666223E-1,-1.126830101E0,6.371475458E-1,1.479584670E0
6.267485000E-1,-6.255912781E-1,-1.068091393E0,7.047829628E-1,1.424395554E0
6.367458960E-1,-5.756660104E-1,-1.030326843E0,7.321594954E-1,1.388892467E0
6.467557910E-1,-7.234048843E-1,-1.091821671E0,5.626235604E-1,1.425459385E0
6.567513640E-1,-6.722015738E-1,-1.054251671E0,5.927444696E-1,1.383707898E0
6.667552710E-1,-6.220047474E-1,-1.017569542E0,6.225389242E-1,1.345322411E0
6.767505830E-1,5.056755543E-1,-9.817352295E-1,6.520224810E-1,1.282437189E0
6.867482390E-1,5.752344131E-1,-9.467077255E-1,6.812095642E-1,1.300460156E0
6.967492810E-1,6.631615162E-1,-1.010911942E0,5.131909847E-1,1.313427248E0
7.067474580E-1,7.378134727E-1,-9.758987427E-1,5.448092818E-1,1.339240169E0
7.167893850E-1,7.960981131E-1,-9.416313171E-1,5.760807991E-1,1.360996264E0
7.267467810E-1,8.160361052E-1,-9.080781937E-1,6.070207953E-1,1.363449734E0
7.368481350E-1,8.174006939E-1,-8.752069473E-1,6.376436353E-1,1.356731551E0
7.467594890E-1,7.834172249E-1,-9.415607452E-1,4.708201885E-1,1.312231243E0
7.567503230E-1,7.093296051E-1,-9.085817337E-1,5.036255121E-1,1.257898212E0
7.667565730E-1,5.959169865E-1,-8.762397766E-1,5.360751748E-1,1.187556228E0
7.767485000E-1,-6.777340174E-1,-8.445110321E-1,5.681837797E-1,1.222847124E0
7.867498020E-1,-6.291159987E-1,-8.133687973E-1,5.999650359E-1,1.190509884E0
7.967451140E-1,-7.785944343E-1,-8.814573288E-1,4.340988398E-1,1.253641942E0
8.067479790E-1,-6.869512200E-1,-8.274326324E-1,5.055305362E-1,1.188321448E0
8.167573540E-1,-6.361686587E-1,-7.939758301E-1,5.364383459E-1,1.150162719E0
8.267508430E-1,-5.886222720E-1,-7.641782761E-1,-5.669141412E-1,1.118854888E0
8.367485000E-1,-7.392644882E-1,-8.336257935E-1,-1.177663803E0,1.621214354E0
8.467518850E-1,-6.906316280E-1,-8.035812378E-1,-1.176837087E0,1.583559402E0
8.567479790E-1,-6.426970959E-1,-7.740249634E-1,-1.159947395E0,1.535464803E0
8.667552710E-1,7.700123191E-1,-7.449407578E-1,-1.138904095E0,1.563636224E0
8.767474580E-1,8.177840710E-1,-7.163105011E-1,-1.128855348E0,1.567222357E0
8.867474580E-1,8.919289112E-1,5.524797440E-1,-1.104101419E0,1.523092576E0
8.967525100E-1,9.742585421E-1,5.995292664E-1,-1.066675901E0,1.564101188E0
9.067642810E-1,1.588422179E0,6.200361252E-1,-1.013500333E0,1.983611036E0
9.167536040E-1,1.607277632E0,6.224155426E-1,-9.710281491E-1,1.978291728E0
9.267472500E-1,1.621514916E0,5.945653915E-1,-9.524317980E-1,1.972294339E0
9.367560520E-1,1.636612654E0,5.308961868E-1,-9.302717447E-1,1.955954309E0
9.467495410E-1,1.652458549E0,4.363098145E-1,-9.147694707E-1,1.938501662E0
9.567513640E-1,1.668955088E0,-7.931594849E-1,-8.807957768E-1,2.047025709E0
9.667547500E-1,1.690870285E0,-7.648468018E-1,-8.502956629E-1,2.041331836E0
9.767479790E-1,1.732033253E0,-7.369222641E-1,-8.277010322E-1,2.056230194E0
9.867482390E-1,1.853537440E0,-7.886209488E-1,-8.059483171E-1,2.169579852E0
9.967487600E-1,1.927022338E0,-7.606964111E-1,-7.971324921E-1,2.219796011E0
1.006750583E0,2.508776188E0,-7.331390381E-1,-8.128342032E-1,2.737179251E0
1.016761000E0,2.518424988E0,-7.059354782E-1,-8.303384781E-1,2.744133981E0
1.026749281E0,2.543287277E0,-7.780761719E-1,-8.251103759E-1,2.784693850E0
1.036746156E0,2.571615934E0,-7.505712509E-1,-7.904878259E-1,2.793105211E0
1.046747718E0,2.588371992E0,-7.234086990E-1,-7.401579022E-1,2.787619672E0
1.056747198E0,2.595109463E0,-6.965799332E-1,-6.762774587E-1,2.770770277E0
1.066753708E0,2.573749065E0,-6.700735092E-1,-6.104449034E-1,2.728704040E0
1.076746573E0,2.513507366E0,-7.429294586E-1,-5.332758427E-1,2.674704953E0
1.086769177E0,2.414791584E0,-7.161102295E-1,-4.366454482E-1,2.556304266E0
1.096747927E0,2.277988434E0,-6.896038055E-1,7.549627423E-1,2.496948829E0
1.106745948E0,1.487591147E0,-6.634044647E-1,7.876020074E-1,1.809240124E0
1.116757614E0,1.392367244E0,-6.375007629E-1,8.200092912E-1,1.737097868E0
1.126758135E0,1.274294853E0,-7.109775543E-1,6.540092230E-1,1.599076146E0
1.136759437E0,5.967175961E-1,-6.847534180E-1,6.877568364E-1,1.139284249E0
1.146758656E0,5.580950975E-1,-6.588172913E-1,7.212590575E-1,1.125044439E0
1.156747562E0,5.434710979E-1,-6.331644058E-1,7.545222640E-1,1.124971931E0
1.166758135E0,5.878994465E-1,-6.871366501E-1,6.290046573E-1,1.101557712E0
1.176755010E0,6.168465614E-1,-6.613855362E-1,6.632373333E-1,1.121523191E0
1.186760218E0,6.559320688E-1,-1.860871315E0,6.972267628E-1,2.092657184E0
1.196758656E0,6.940534115E-1,-1.903361320E0,7.309790850E-1,2.153793137E0
1.206756312E0,7.313085794E-1,-1.972400665E0,7.645002604E-1,2.238221899E0
1.216758916E0,7.580535412E-1,-2.054699898E0,5.994628072E-1,2.270637025E0
1.226758396E0,7.659288645E-1,-2.733836174E0,6.341779232E-1,2.909070107E0
1.236759698E0,7.574270964E-1,-2.788664341E0,6.686518788E-1,2.966047867E0
1.246791468E0,7.347251177E-1,-2.867640972E0,7.028905153E-1,3.042571416E0
1.256784281E0,6.899911165E-1,-3.566451550E0,7.368994355E-1,3.706573239E0
1.266866416E0,6.310445070E-1,-3.590160370E0,-6.052407622E-1,3.695102845E0
1.276773396E0,5.549497604E-1,-3.617113590E0,-6.236391068E-1,3.712196883E0
1.286749593E0,5.029774904E-1,-3.646885872E0,-6.682352424E-1,3.741564012E0
1.296757093E0,4.573930502E-1,-3.683972359E0,-7.258061767E-1,3.782546146E0
1.306758396E0,4.027935266E-1,-3.717666626E0,-7.799936533E-1,3.819905479E0
1.316757093E0,3.647567034E-1,-3.738674641E0,-8.117294312E-1,3.843128958E0
1.326762041E0,3.606102467E-1,-3.768147945E0,-8.288167119E-1,3.875037526E0
1.336759698E0,4.005055428E-1,-3.804971695E0,-8.477810025E-1,3.918794064E0
1.346805271E0,1.143530607E0,-4.474085808E0,-8.037469983E-1,4.687335629E0
1.356759437E0,1.191108823E0,-4.484004021E0,-7.612937093E-1,4.701552977E0
1.366768552E0,1.265485287E0,-4.483842850E0,-7.237570286E-1,4.714883238E0
1.376749802E0,1.358215570E0,-4.474954128E0,-7.100065947E-1,4.730124031E0
1.386752666E0,2.000061989E0,-4.458517075E0,-7.071928978E-1,4.937483596E0
1.396747458E0,1.993438482E0,-4.411210060E0,-6.992745399E-1,4.890966782E0
1.406746156E0,1.990865946E0,-4.337147713E0,-7.258989811E-1,4.827144790E0
1.416752927E0,2.006439209E0,-4.225310802E0,-8.117440343E-1,4.747418041E0
1.426748500E0,2.018291950E0,-3.390076637E0,-8.953934312E-1,4.045720134E0
1.436762979E0,2.022042274E0,-2.511005878E0,-8.747698665E-1,3.340513104E0
1.446830375E0,2.018760681E0,9.530735016E-2,-6.904841065E-1,2.135707489E0
1.456789698E0,1.994765162E0,1.820802689E0,6.791997552E-1,2.784909835E0
1.466768239E0,1.952798963E0,5.184605598E0,7.142736912E-1,5.586031320E0
1.476745948E0,1.861149549E0,8.084929466E0,2.401629686E0,8.637001058E0
1.486750062E0,1.145146608E0,1.008290100E1,3.214895248E0,1.064480177E1
1.496747718E0,1.049611568E0,1.119751549E1,4.270813942E0,1.203020737E1
1.506749541E0,9.901086092E-1,1.122679710E1,5.385395527E0,1.249094765E1
1.516759698E0,9.814683199E-1,1.114105034E1,5.448757648E0,1.244086985E1
1.526751104E0,1.094091177E0,8.085256577E0,4.642672539E0,9.387375443E0
1.536751885E0,1.818525434E0,5.370685577E0,4.493305206E0,7.234714231E0
1.546755010E0,1.971602798E0,3.283551216E0,4.359993935E0,5.803315715E0
1.556750062E0,3.134010792E0,2.314208031E0,3.662496090E0,5.347098284E0
1.566755271E0,3.218625546E0,2.297918320E0,3.543831110E0,5.310246505E0
1.576750062E0,3.241014481E0,2.399016380E0,2.537709713E0,4.764391361E0
1.586749281E0,3.194670439E0,3.234004021E0,2.405286551E0,5.142966518E0
1.596747979E0,3.054482460E0,3.272101402E0,2.307845831E0,5.036135727E0
1.606747198E0,2.021515131E0,3.215042114E0,2.216526270E0,4.397272783E0
1.616788864E0,1.159120083E0,3.036284447E0,2.111101151E0,3.875478122E0
1.626746573E0,1.419332027E-1,1.495757103E0,4.444481432E-1,1.566833909E0
1.636770635E0,-1.529909372E0,-5.428037643E-1,4.814941883E-1,1.693249913E0
1.646746989E0,-1.679667592E0,-6.190290451E-1,3.195457458E-1,1.818403053E0
1.656745687E0,-2.761656284E0,-3.024247646E0,3.573798239E-1,4.111026587E0
1.666754489E0,-3.427581787E0,-4.365486145E0,3.950003088E-1,5.564333872E0
1.676750323E0,-3.516874313E0,-5.292296410E0,4.324110150E-1,6.368970522E0
1.686752666E0,-3.577419758E0,-5.394715786E0,4.696156979E-1,6.490102421E0
1.696751364E0,-3.583670616E0,-5.460495472E0,3.077943921E-1,6.538688192E0
1.706750323E0,-2.772949696E0,-5.424738884E0,3.855397999E-1,6.104562467E0
1.716754229E0,-1.434169412E0,-5.259725094E0,4.230800271E-1,5.468139233E0
1.726750323E0,-1.386156917E0,-3.972287178E0,4.604186416E-1,4.232313994E0
1.736744073E0,2.006137371E-1,-2.568964958E0,2.267486095E0,3.432392754E0
1.746749021E0,1.184500575E0,-3.562259674E-1,2.948005438E0,3.196978982E0
1.756747458E0,1.982543945E0,1.127104759E0,3.042419195E0,3.802257250E0
1.766757875E0,2.115906477E0,2.781271935E0,3.103002310E0,4.673452378E0
1.776749541E0,2.748554707E0,4.044835091E0,3.163392067E0,5.824284785E0
1.786746937E0,2.730382919E0,4.876596451E0,3.218708038E0,6.449516669E0
1.796782093E0,2.663970470E0,4.941800117E0,3.225675344E0,6.474805672E0
1.806745271E0,2.540992975E0,4.897697449E0,3.156424046E0,6.356657798E0
1.816772302E0,1.633541346E0,4.113668442E0,2.991626024E0,5.342335786E0
1.826746729E0,1.500060320E0,2.654088020E0,2.020743847E0,3.657563380E0
1.836752406E0,6.347062588E-1,9.647417068E-1,1.961003184E0,2.275766263E0
1.846746416E0,5.318273306E-1,-5.223512650E-1,1.951659441E0,2.089178242E0
1.856750062E0,4.273084402E-1,-1.787120819E0,1.961791039E0,2.687939249E0
1.866756573E0,-2.360347509E-1,-2.684824944E0,1.998632908E0,3.355373434E0
1.876751364E0,-2.850400209E-1,-3.358477116E0,2.039186478E0,3.939403234E0
1.886752666E0,-4.361543655E-1,-4.227714539E0,2.056884289E0,4.721713018E0
1.896747979E0,-5.271079540E-1,-4.283317089E0,2.043442011E0,4.774966317E0
1.906750583E0,-1.526838899E0,-4.382730007E0,1.991421819E0,5.050279220E0
1.916753708E0,-1.479174733E0,-5.260679245E0,1.925379753E0,5.793944356E0
1.926749021E0,-1.630768776E0,-5.344681263E0,1.861819148E0,5.889940165E0
1.936752146E0,-1.582652569E0,-6.087085724E0,1.790700078E0,6.539419587E0
1.946747979E0,-1.534821868E0,-6.130303383E0,1.732572317E0,6.552717342E0
1.956752146E0,-1.487272263E0,-6.178839684E0,1.676031590E0,6.572603784E0
1.966752146E0,-1.439999461E0,-6.212470531E0,1.630672932E0,6.582361488E0
1.976772458E0,-1.591999531E0,-6.218478680E0,1.585317969E0,6.611896298E0
1.986745791E0,-1.544278026E0,-6.180926323E0,1.535115480E0,6.553260591E0
1.996858187E0,-1.496831179E0,-6.085960388E0,1.466080904E0,6.436521626E0
2.006743864E0,-1.449654698E0,-5.921548843E0,1.346520662E0,6.243345044E0
2.016756625E0,-2.949506044E-1,-4.797519684E0,1.273773015E-1,4.808265379E0
2.026750843E0,-2.711678743E-1,-3.913753510E0,-3.246356547E-2,3.923270630E0
2.036753448E0,-2.600643635E-1,-2.878706932E0,7.499847561E-3,2.890439988E0
2.046747458E0,-2.551263571E-1,-1.731838226E0,4.727037996E-2,1.751167493E0
2.056750062E0,-2.506781816E-1,-5.934715271E-3,-1.365224838E0,1.388061105E0
2.066757875E0,-3.196997643E-1,1.623368263E0,-1.447189689E0,2.198156148E0
2.076746416E0,-3.677266836E-1,2.347599030E0,-1.347674727E0,2.731789027E0
2.086753968E0,-4.079946280E-1,2.453438759E0,-1.145024657E0,2.738047265E0
2.096752146E0,-4.257954359E-1,3.196743965E0,2.745254040E-1,3.236639913E0
2.106746937E0,-4.145108461E-1,3.873486519E0,3.932656050E-1,3.915402264E0
2.116752146E0,-3.747078180E-1,5.002798080E0,2.728977919E0,5.711016990E0
2.126748760E0,-2.678245306E-1,6.177766800E0,4.381759167E0,7.578677062E0
2.136748760E0,6.322870255E-1,6.284040451E0,5.625397682E0,8.457780463E0
2.146747979E0,1.419576168E0,6.275714874E0,5.763697624E0,8.638287098E0
2.156865479E0,1.589614511E0,6.167124748E0,5.774991989E0,8.597141061E0
2.166746885E0,2.395904303E0,5.396292686E0,5.723419666E0,8.223008261E0
2.176771573E0,2.455433846E0,4.441010475E0,4.931827545E0,7.076344561E0
2.186744646E0,2.485903263E0,2.972850800E0,4.103297234E0,5.643988403E0
2.196749021E0,2.403240681E0,9.279165268E-1,2.670531511E0,3.710570496E0
2.206749802E0,1.521317124E0,-2.637605667E-1,3.948789835E-1,1.593707891E0
2.216757614E0,4.808025360E-1,-2.517188072E0,-8.245913982E-1,2.692091723E0
2.226749802E0,-1.411511421E0,-2.615083218E0,-1.613822937E0,3.381634102E0
2.236750062E0,-1.386761785E0,-2.596148968E0,-1.689559817E0,3.393775197E0
2.246748239E0,-2.955804825E0,-1.320759773E0,-1.731485128E0,3.671406991E0
2.256747198E0,-3.755673170E0,-2.880582809E-1,-1.679609299E0,4.124214583E0
2.266749021E0,-3.781883717E0,-2.590827942E-1,-1.490869761E0,4.073384463E0
2.276749281E0,-3.688937187E0,-2.342023849E-1,2.566674054E-1,3.705264698E0
2.286748239E0,-2.829843044E0,1.284996033E0,3.893953860E-1,3.132228476E0
2.296747458E0,-2.596019506E0,1.253140450E0,5.186358690E-1,2.928935204E0
2.306748500E0,-1.272838473E0,1.155877113E0,4.443181753E-1,1.775834542E0
2.316752666E0,-1.123972297E0,-2.956972122E-1,5.670589805E-1,1.293176884E0
2.326747979E0,4.536641836E-1,-2.794876099E-1,6.866863966E-1,8.691735861E-1
2.336750323E0,6.697493196E-1,-2.647666931E-1,7.641648054E-1,1.050054000E0
2.346758968E0,8.565579653E-1,-2.489147186E-1,8.386175036E-1,1.224307724E0
2.356765427E0,9.984667301E-1,-3.315992355E-1,7.123454213E-1,1.270562814E0
2.366762041E0,1.046138048E0,-3.101196289E-1,7.851550579E-1,1.344264656E0
2.376752198E0,1.055329800E0,-2.885618210E-1,8.547842503E-1,1.388396566E0
2.386761521E0,9.610808492E-1,-2.629976273E-1,9.237263799E-1,1.358717990E0
2.396752927E0,8.567844629E-1,-2.372045517E-1,9.913061261E-1,1.331553022E0
2.406762823E0,7.339136004E-1,-3.111457825E-1,8.582202792E-1,1.171316746E0
2.416757875E0,-7.965974212E-1,-2.852258682E-1,9.236637950E-1,1.252627660E0
2.426756573E0,-7.793731093E-1,-2.594528198E-1,9.877789021E-1,1.284696606E0
2.436758916E0,-7.211228013E-1,-2.139568329E-1,-4.091451168E-1,8.562682684E-1
2.446756833E0,2.394347191E-1,-2.882070541E-1,-4.437748194E-1,5.807997771E-1
2.456757093E0,1.056798697E0,-2.626180649E-1,-4.470610619E-1,1.177138618E0
2.466756312E0,1.105536938E0,-2.370080948E-1,-4.019818306E-1,1.199989229E0
2.476756312E0,1.198991776E0,1.092073441E0,-3.211517334E-1,1.653282829E0
2.486758656E0,2.059883595E0,1.222826004E0,-2.434331179E-1,2.407837939E0
2.496759958E0,2.122413158E0,2.089869499E0,-1.963077784E-1,2.985084401E0
2.506758135E0,2.195480824E0,2.167162895E0,-1.208814383E-1,3.087287383E0
2.516759958E0,2.857015610E0,2.212206841E0,-3.370594978E-2,3.613520913E0
2.526780843E0,2.844467163E0,2.208576202E0,7.789170742E-2,3.602064603E0
2.536754802E0,2.824938297E0,2.167150497E0,1.871742010E-1,3.565368402E0
2.546751208E0,2.752823591E0,2.116512299E0,2.830116749E-1,3.483928478E0
2.556746208E0,2.653521061E0,2.024919510E0,3.666743040E-1,3.357964128E0
2.566761521E0,2.522813320E0,1.274825096E0,4.436460733E-1,2.861221402E0
2.576759437E0,2.328901291E0,1.180793762E0,5.385918617E-1,2.666108836E0
2.586758916E0,1.485264182E0,-1.089057922E-1,6.427384615E-1,1.622030484E0
2.596762562E0,1.289243698E0,-1.675062180E-1,7.436182499E-1,1.497723522E0
2.606751104E0,3.983900547E-1,-1.267375946E-1,1.781185985E0,1.829590273E0
2.616749281E0,-5.006434917E-1,-6.675624847E-2,1.892344236E0,1.958588015E0
2.626747718E0,-6.628443003E-1,-2.677440643E-2,1.960246801E0,2.069455715E0
2.636748239E0,-8.335198164E-1,-8.738613129E-2,1.824977040E0,2.008216327E0
2.646752146E0,-2.007524729E0,-5.257797241E-2,1.887272000E0,2.755851154E0
2.656760479E0,-1.997704387E0,-2.637386322E-2,1.912638783E0,2.765810101E0
2.666750062E0,-1.955423832E0,-7.018089294E-3,1.936921358E0,2.752343722E0
2.676750323E0,-1.908252954E0,1.131153107E-2,1.961464763E0,2.736585702E0
2.686745114E0,-2.032289028E0,-7.592105865E-2,1.785629034E0,2.706369108E0
2.696749802E0,-1.952891469E0,-6.374549866E-2,1.810052514E0,2.663482435E0
2.706750062E0,-1.870262623E0,-1.538422585E0,1.834692478E0,3.038210463E0
2.716739802E0,-1.748184681E0,-1.594640732E0,1.859748960E0,3.009600461E0
2.726734646E0,-1.628666282E0,-1.682961464E0,1.884895921E0,3.006284381E0
2.736764437E0,-1.709620357E0,-1.784718513E0,1.710878849E0,3.005849027E0
2.746751364E0,-1.591994643E0,-2.475305557E0,1.736967206E0,3.417402467E0
2.756755323E0,-3.879793882E-1,-2.548723698E0,3.009136677E0,3.962502244E0
2.766749021E0,-2.593439817E-1,-2.670961857E0,2.913365364E0,3.960933512E0
2.776749021E0,-1.463295221E-1,-3.616587639E0,1.806819081E0,4.045455929E0
2.786752406E0,-4.446399212E-2,-3.745581627E0,1.633510590E0,4.086528553E0
2.796754489E0,9.693026543E-3,-4.848980904E0,1.701635361E0,5.138898000E0
2.806751885E0,-6.317138672E-3,-5.887737751E0,6.573874950E-1,5.924327308E0
2.816751364E0,-6.925344467E-3,-5.974092960E0,6.418153048E-1,6.008474144E0
2.826746937E0,1.955616474E-2,-5.983120918E0,6.078667641E-1,6.013952142E0
2.836747198E0,1.015111208E-1,-5.782304764E0,1.630404353E0,6.008624738E0
2.846752406E0,9.373583794E-1,-3.710013390E0,1.661675096E0,4.171810663E0
2.856756833E0,1.593933940E0,-1.882777691E0,1.692731500E0,2.991791632E0
2.866747718E0,2.443855286E0,7.390403748E-2,1.721994400E0,2.990510856E0
2.876746937E0,3.486098289E0,-6.134033203E-3,1.551929712E0,3.815940872E0
2.886743396E0,4.388290882E0,1.401519775E-2,-1.639870405E-1,4.391376213E0
2.896763812E0,4.480388641E0,1.433581352E0,-3.295606375E-1,4.715681084E0
2.906771677E0,4.449928284E0,1.321389198E0,-1.361888170E0,4.837630673E0
2.916758968E0,4.316259861E0,8.034038544E-2,-1.466076493E0,4.559159358E0
2.926748291E0,3.502773285E0,-2.227124691E0,-1.435004473E0,4.391895139E0
2.936752406E0,2.415072680E0,-4.029309750E0,-6.268086433E-1,4.739282876E0
2.946753187E0,1.111940265E0,-5.227546692E0,1.710509062E0,5.611550304E0
2.956758916E0,1.835548878E-2,-5.085169792E0,1.738319635E0,5.374108660E0
2.966750323E0,-2.458391190E-1,-1.608018875E0,4.226613522E0,4.528843499E0
2.976747979E0,-2.162759304E0,7.915499687E0,6.080547333E0,1.021301713E1
2.986747979E0,-2.193730593E0,1.097614384E1,6.815018654E0,1.310468110E1
2.996749541E0,-1.191690803E0,1.268737698E1,7.518479824E0,1.479585078E1
3.006758135E0,-1.755080223E-1,1.349514103E1,7.517811298E0,1.544885501E1
3.016749802E0,7.246079445E-1,1.352609062E1,7.304383755E0,1.538941864E1
3.026746156E0,9.124021530E-1,1.333139420E1,6.132998466E0,1.470279630E1
3.036749541E0,1.673514843E0,1.037019348E1,5.792109489E0,1.199541984E1
3.046749541E0,1.827728510E0,6.161969185E0,4.930124283E0,8.100406236E0
3.056754750E0,2.002592564E0,2.810925484E0,4.752993584E0,5.873893688E0
3.066773760E0,2.156966686E0,1.263834000E0,4.555293560E0,5.196198715E0
3.076743187E0,2.188845396E0,1.217444420E0,4.339970589E0,5.010844220E0
3.086775896E0,2.144168377E0,1.334986687E0,4.123528004E0,4.835610683E0
3.096763916E0,1.482091069E0,2.256025314E0,3.373436689E0,4.320453594E0
3.106756104E0,1.356626272E0,2.309781075E0,3.208148003E0,4.179442195E0
3.116750323E0,2.348692417E-1,2.277503967E0,3.046158791E0,3.810678583E0
3.126748239E0,6.199574471E-2,2.139998436E0,2.847078323E0,3.562203217E0
3.136749281E0,-1.711799622E0,8.311901093E-1,1.920660377E0,2.703714339E0
3.146748500E0,-1.684553981E0,-2.836894989E-1,1.748645782E0,2.444578475E0
3.156756208E0,-1.817499638E0,-3.345992088E0,7.697591782E-1,3.884777623E0
3.166748500E0,-1.786905050E0,-4.634019375E0,-3.940311670E-1,4.982210933E0
3.176748500E0,-1.726891875E0,-5.643652916E0,-3.949010968E-1,5.915143334E0
3.186749021E0,-1.664179325E0,-6.374098778E0,-3.912080824E-1,6.599369047E0
3.196751625E0,-1.553488135E0,-6.487763405E0,-3.622060418E-1,6.680987397E0
3.206754750E0,-1.653095484E0,-7.206817150E0,-5.344164371E-1,7.413267771E0
3.216747718E0,-1.567289710E0,-7.251604080E0,-4.881885648E-1,7.435084858E0
3.226749021E0,-1.490659356E0,-7.296963692E0,-4.451325536E-1,7.460957541E0
3.236746677E0,-1.422802567E0,-7.344062805E0,-3.749866486E-1,7.490009387E0
3.246747198E0,-1.361764669E0,-7.367122650E0,-3.090297580E-1,7.498293042E0
3.256778500E0,-1.507310033E0,-7.373970985E0,7.032619715E-1,7.559233363E0
3.266753760E0,-1.451712370E0,-7.323847771E0,8.031095266E-1,7.509407426E0
3.276746052E0,-1.399540901E0,-7.213516235E0,8.638946414E-1,7.398638061E0
3.286752458E0,-1.346376538E0,-6.199864388E0,8.844515085E-1,6.405724212E0
3.296749541E0,-1.293854117E0,-5.033796310E0,8.635023832E-1,5.268662082E0
3.306749593E0,-1.439939976E0,-3.428618908E0,8.077168465E-1,3.805425240E0
3.316751364E0,-1.382299542E0,-1.547391891E0,7.105301023E-1,2.193177311E0
3.326746937E0,-1.324013948E0,-4.510974884E-2,-3.502705395E-1,1.370305541E0
3.336750843E0,-3.003636599E-1,2.010684013E0,-3.296531141E-1,2.059548423E0
3.346749541E0,4.626578093E-1,4.133379936E0,-4.607515335E-1,4.184635459E0
3.356753187E0,5.275871754E-1,4.182563782E0,-4.205924869E-1,4.236636172E0
3.366751625E0,5.888153315E-1,4.104456902E0,-3.671529591E-1,4.162699995E0
3.376746937E0,6.459522247E-1,3.092917442E0,-3.038219213E-1,3.174224368E0
3.386748760E0,6.535043716E-1,1.781580925E0,-1.837065071E-1,1.906527376E0
3.396746937E0,6.278541088E-1,-1.727705002E-1,-2.685447335E-1,7.043910147E-1
3.406751885E0,5.283565521E-1,-1.518917084E-1,-1.561306268E-1,5.714967278E-1
3.416746677E0,-1.129399896E0,-1.305809021E-1,-4.866364971E-2,1.137964695E0
3.426744854E0,-1.098892450E0,-1.089353561E-1,5.598382279E-2,1.105696938E0
3.436814698E0,-1.067605495E0,-8.705139160E-2,1.562952995E-1,1.082491413E0
3.446759229E0,-1.235095263E0,-1.647310257E-1,5.148732662E-2,1.247095651E0
3.456760896E0,-2.530658960E0,2.432252884E0,1.914170146E0,3.998016535E0
3.466745062E0,-2.605006218E0,4.017678261E0,2.953039169E0,5.625676523E0
3.476750843E0,-2.607221603E0,5.155471802E0,3.860924721E0,6.948613796E0
3.486747718E0,-2.445991278E0,5.264167786E0,3.976304293E0,7.036002532E0
3.496750323E0,-1.103236556E0,5.303347588E0,3.995336056E0,6.730923914E0
3.506754750E0,-1.001012325E0,5.220854759E0,3.918081522E0,6.603840769E0
3.516752406E0,2.307998538E-1,4.320709229E0,3.789106369E0,5.751445374E0
3.526749541E0,1.195743799E0,1.088324547E0,2.284148216E0,2.798497209E0
3.536749802E0,1.330080986E0,-2.872056961E-1,-4.210057110E-2,1.361387160E0
3.546750843E0,1.341500521E0,-1.624957085E0,-7.599963248E-2,2.108526765E0
3.556753187E0,1.217177033E0,-2.334789276E0,-1.656751871E0,3.110882135E0
3.566748500E0,-6.363441348E-1,-2.387661934E0,-1.806570172E0,3.060973563E0
3.576748760E0,-5.874145627E-1,-2.388611794E0,-1.969981194E0,3.151404143E0
3.586746677E0,-2.141283751E0,-2.339033127E0,-2.693316460E0,4.160543909E0
3.596747198E0,-2.301226616E0,-2.226792336E0,-2.703990936E0,4.191159151E0
3.606758656E0,-3.137721539E0,-1.326317787E0,-2.568742275E0,4.266480072E0
3.616745218E0,-3.127632856E0,-1.916007996E-1,-1.837344408E0,3.632441689E0
3.626738448E0,-3.018810272E0,-1.713037491E-1,-1.628549099E0,3.434346022E0
3.636762458E0,-1.864368439E0,-2.524223328E-1,-1.416623473E0,2.355081479E0
3.646759646E0,-6.539616585E-1,-2.326517105E-1,-1.236032963E0,1.417593085E0
3.656746208E0,-5.860525966E-1,-2.120504379E-1,2.209578753E-1,6.612453530E-1
3.666761521E0,1.299248457E0,-1.906366348E-1,3.502331674E-1,1.359062968E0
3.676759437E0,2.313481808E0,-1.685438156E-1,4.799888134E-1,2.368753755E0
3.686759698E0,3.162616014E0,-2.456760406E-1,4.027575254E-1,3.197610107E0
3.696758135E0,3.305423737E0,-2.224674225E-1,5.191070437E-1,3.353325209E0
3.706761000E0,3.474544048E0,-1.819696426E-1,6.227782369E-1,3.534603518E0
3.716759437E0,3.401364803E0,-1.578550339E-1,6.845931411E-1,3.473164048E0
3.726764646E0,3.224452496E0,-2.310953140E-1,5.448501706E-1,3.278316740E0
3.736760739E0,2.419373989E0,-2.014446259E-1,6.046024561E-1,2.501898193E0
3.746758916E0,2.178390741E0,-1.708679199E-1,6.634861827E-1,2.283592780E0
3.756793552E0,1.184639454E0,-1.395139694E-1,7.215045094E-1,1.394060092E0
3.766759698E0,9.930889606E-1,-1.075429916E-1,7.786608934E-1,1.266532260E0
3.776759958E0,7.977210283E-1,-1.749687195E-1,6.339334846E-1,1.033849387E0
3.786757093E0,6.382210255E-1,-1.418924332E-1,6.899541020E-1,9.505241727E-1
3.796789698E0,5.202206373E-1,-1.085176468E-1,-2.815942168E-1,6.014157415E-1
3.806744750E0,4.595644474E-1,-7.795715332E-2,-2.932404280E-1,5.506966022E-1
3.816878187E0,4.351824522E-1,-4.817390442E-2,-2.921761870E-1,5.263757366E-1
3.826747146E0,4.831168652E-1,-1.235504150E-1,-2.838077545E-1,5.737712541E-1
3.836747875E0,5.604914427E-1,-9.958076477E-2,-2.653061152E-1,6.280559854E-1
3.846758656E0,1.230643630E0,-7.567596436E-2,-2.315399647E-1,1.254520367E0
3.856773500E0,1.273910403E0,-5.198001862E-2,-1.810504198E-1,1.287761194E0
3.866747198E0,1.319700718E0,-2.840518951E-2,9.393822551E-1,1.620140692E0
3.876748500E0,1.353412867E0,-1.047735214E-1,7.918521762E-1,1.571538656E0
3.886748500E0,1.376713514E0,-6.132411957E-2,8.835542798E-1,1.636999974E0
3.896747718E0,1.294261217E0,-3.345012665E-2,9.348821044E-1,1.596945697E0
3.906760218E0,1.167297602E0,-5.377769470E-3,9.855630398E-1,1.527726126E0
3.916748500E0,4.800333977E-1,-7.705402374E-2,8.361156583E-1,9.671911804E-1
3.926751625E0,3.505378962E-1,-1.413454056E0,8.860146999E-1,1.704626420E0
3.936749541E0,-3.141310215E-1,-1.466462135E0,9.337078333E-1,1.766635166E0
3.946745375E0,-4.215246439E-1,-1.531159401E0,9.808296561E-1,1.866590194E0
3.956791208E0,-5.364493132E-1,-1.596581459E0,1.025749445E0,1.972057845E0
3.966748239E0,-6.489475965E-1,-1.667219162E0,8.707072735E-1,1.989694417E0
3.976775323E0,-7.393839359E-1,-2.257813454E0,9.151905775E-1,2.545974075E0
3.986745375E0,-7.753391266E-1,-2.286198616E0,9.590580463E-1,2.597623377E0
3.996860062E0,-8.045991659E-1,-2.338080406E0,1.001750946E0,2.667865207E0
4.006750323E0,-8.062857389E-1,-2.441260338E0,1.042364120E0,2.774233532E0
4.016748031E0,-8.136171103E-1,-3.262952328E0,8.832087517E-1,3.476907878E0
4.026748500E0,-8.251575232E-1,-3.380162716E0,9.253824949E-1,3.600377437E0
4.036749281E0,-8.502001762E-1,-4.338109970E0,9.672720432E-1,4.525224156E0
4.046750479E0,-1.792567611E0,-4.478312492E0,1.008578539E0,4.928063726E0
4.056790948E0,-1.730080724E0,-5.445034027E0,1.048155308E0,5.808631889E0
4.066747198E0,-1.827651262E0,-6.194777489E0,9.278752208E-1,6.525069325E0
4.076747458E0,-1.770822048E0,-6.206402302E0,9.685643315E-1,6.526358642E0
4.086747198E0,-1.713483095E0,-6.161144257E0,1.008932710E0,6.474076620E0
4.096747718E0,-1.663062453E0,-6.011122227E0,1.048727632E0,6.324491821E0
4.106757093E0,-5.490508080E-1,-4.568431377E0,8.867056370E-1,4.685965101E0
4.116747979E0,4.713072777E-1,-3.261838436E0,9.261361957E-1,3.423368047E0
4.126746416E0,1.667030692E0,-1.846181870E0,9.654980898E-1,2.668251372E0
4.136748500E0,2.772806883E0,1.520652771E-1,1.004704356E0,2.953136079E0
4.146745896E0,3.597117424E0,1.647548676E-1,1.043816686E0,3.749126725E0
4.156895427E0,3.726352692E0,1.591392517E0,8.812547922E-1,4.146666678E0
4.166746208E0,3.756914616E0,2.643729210E0,9.208837152E-1,4.685268229E0
4.176885010E0,3.643427134E0,3.798076630E0,9.611492157E-1,5.350117305E0
4.186750635E0,2.609146118E0,5.163135529E0,1.002371550E0,5.871146453E0
4.196747562E0,1.190949082E0,6.957105637E0,2.626534700E0,7.531159478E0
4.206753187E0,-5.041290522E-1,8.807534218E0,4.431688309E0,9.872520771E0
4.216750843E0,-1.863654852E0,1.025026894E1,5.836757183E0,1.194189922E1
4.226749802E0,-3.092558384E0,1.111332226E1,6.825891018E0,1.340382920E1
4.236749541E0,-3.189855576E0,1.118701553E1,7.643295288E0,1.391921183E1
4.246748239E0,-1.887926459E0,1.098415375E1,7.771739960E0,1.358734124E1
4.256788343E0,-1.797460079E0,9.166006088E0,7.547591209E0,1.200885771E1
4.266743552E0,8.151028156E-1,7.088344574E0,6.132145405E0,9.408093785E0
4.276745896E0,2.602028847E0,4.938360214E0,4.591337681E0,7.227609385E0
4.286752666E0,3.943669558E0,3.345398903E0,3.448119164E0,6.215605293E0
4.296749021E0,4.725135803E0,2.484172821E0,3.122175694E0,6.184335375E0
4.306754489E0,4.791174412E0,2.369174004E0,1.861108422E0,5.659687470E0
4.316747198E0,4.684330940E0,2.294302940E0,1.570135832E0,5.447211109E0
4.326748500E0,3.025964737E0,2.254092216E0,-4.151243865E-1,3.796014037E0
4.336765166E0,1.509461403E0,2.208552361E0,-4.859654307E-1,2.718885738E0
4.346747771E0,3.654313087E-2,1.596946716E0,-7.146146297E-1,1.749928080E0
4.356800271E0,-1.439137578E0,1.455108643E0,-7.155956030E-1,2.168071769E0
4.366740427E0,-1.454239249E0,-1.847734451E-1,-7.132879496E-1,1.630255415E0
4.376746468E0,-1.468789220E0,-1.555728912E-1,8.273612261E-1,1.692947517E0
4.386747198E0,-1.481448531E0,-1.681239128E0,8.897461295E-1,2.410996253E0
4.396746677E0,-1.691743612E0,-2.604181290E0,9.663248658E-1,3.252313082E0
4.406759437E0,-1.658130050E0,-3.455605984E0,1.017757654E0,3.965657401E0
4.416751364E0,-1.543937087E0,-4.181430817E0,1.022833228E0,4.573214757E0
4.426750062E0,-1.401102185E0,-5.191755295E0,8.359823823E-1,5.442083876E0
4.436761000E0,-1.500652671E0,-5.282835960E0,-7.918394208E-1,5.548632615E0
4.446749021E0,-3.669904470E-1,-5.892423630E0,-7.577657700E-1,5.952272439E0
4.456792250E0,-3.162282705E-1,-5.952552795E0,-7.283009291E-1,6.005273295E0
4.466748239E0,-2.916473150E-1,-6.036816597E0,-7.033562064E-1,6.084646476E0
4.476749802E0,-1.189064026E0,-6.122539520E0,-6.821435094E-1,6.274128083E0
4.486747979E0,-1.319341183E0,-6.739592552E0,-8.610739708E-1,6.921287258E0
4.496747979E0,-2.104345560E-1,-6.725873947E0,-8.450964689E-1,6.782024115E0
4.506752146E0,-1.695370674E-1,-6.686455727E0,-7.762572169E-1,6.733498962E0
4.516746937E0,-1.395092010E-1,-6.600923538E0,-7.097734809E-1,6.640439200E0
4.526754906E0,-1.471470594E-1,-5.927191257E0,-6.427411437E-1,5.963754240E0
4.536764177E0,-1.415888071E-1,-5.773782253E0,-7.737234235E-1,5.827113937E0
4.546761156E0,-1.145519018E-1,-4.618098259E0,-7.048370838E-1,4.672980739E0
4.556806364E0,-7.402431965E-2,-3.694521427E0,-6.360660195E-1,3.749606400E0
4.566748500E0,-2.172744274E-2,-2.621938705E0,-5.674216747E-1,2.682722873E0
4.576748239E0,2.585268021E-2,-1.437123299E0,-4.988812208E-1,1.521471067E0
4.586748500E0,5.406773090E-2,-2.997398376E-3,-6.295319796E-1,6.318566429E-1
4.596751885E0,8.299326897E-2,1.704597473E-2,-5.533339977E-1,5.597829588E-1
4.606752927E0,1.113063097E-1,1.921657562E0,-4.721563160E-1,1.981940581E0
4.616751625E0,1.030238867E-1,2.753305435E0,-3.455533981E-1,2.776816863E0
4.626746677E0,5.472850800E-2,2.846809387E0,-4.529860020E-1,2.883143287E0
4.636754489E0,-1.318538189E-2,3.722932816E0,1.241920829E0,3.924636282E0
4.646748500E0,-8.620655537E-2,4.429338455E0,2.060489893E0,4.885907216E0
4.656789385E0,-1.060879230E-1,5.242864609E0,2.909410954E0,5.996962235E0
4.666745375E0,-5.830168724E-2,5.372858047E0,3.632498503E0,6.485834415E0
4.676747718E0,5.900335312E-2,6.054678917E0,3.726767302E0,7.109951667E0
4.686747979E0,8.312485218E-1,5.994649887E0,3.757590771E0,7.123643013E0
4.696748239E0,9.961336851E-1,5.871562004E0,3.672785759E0,6.996919173E0
4.706778291E0,1.913920999E0,4.887941360E0,3.523616076E0,6.322257080E0
4.716745843E0,2.019585848E0,3.795540810E0,2.616097450E0,5.032774871E0
4.726736937E0,2.098319530E0,2.247109413E0,2.383125782E0,3.889952964E0
4.736746260E0,2.109204292E0,-1.602163315E-1,8.539991379E-1,2.281167803E0
4.746751104E0,1.973725319E0,-1.380615234E-1,-4.076437354E-1,2.020105451E0
4.756792510E0,7.693438530E-1,-1.899548531E0,-4.158085585E-1,2.091188978E0
4.766750323E0,-1.025468946E0,-1.983035564E0,-4.205031991E-1,2.271748126E0
4.776748760E0,-1.178707957E0,-2.001250267E0,-2.115034103E0,3.141293418E0
4.786751104E0,-2.388504982E0,-1.980759621E0,-2.287830114E0,3.855195372E0
4.796751104E0,-3.229861498E0,-1.859108925E0,-3.211184263E0,4.919349110E0
4.806753708E0,-3.304280758E0,-1.735483170E0,-3.143751621E0,4.879892152E0
4.816752927E0,-3.308030605E0,-1.372594833E-1,-3.012627125E0,4.476363350E0
4.826749541E0,-3.157864809E0,-1.236009598E-1,-2.299571991E0,3.908378013E0
4.836747458E0,-2.193439722E0,-1.119613647E-1,-2.114065886E0,3.048440213E0
4.846747979E0,-9.123109579E-1,-1.030712128E-1,-1.356889129E0,1.638317145E0
4.856794593E0,-7.848910689E-1,-9.221649170E-2,-1.147207379E0,1.393069504E0
4.866756833E0,4.268456697E-1,-1.792354584E-1,-8.969932795E-2,4.715596937E-1
4.876760739E0,6.268807054E-1,-1.649627686E-1,4.890139401E-2,6.500642123E-1
4.886796937E0,8.189679384E-1,-1.488561630E-1,1.839181483E-1,8.524626248E-1
4.896751677E0,1.528691292E0,-1.311120987E-1,3.154231608E-1,1.566390506E0
4.906735791E0,1.554223776E0,-1.104421616E-1,4.214364290E-1,1.614130627E0
4.916746468E0,1.538120270E0,-1.891756058E-1,3.210138679E-1,1.582609010E0
4.926760218E0,1.446916580E0,-1.654071808E-1,-7.130774260E-1,1.621544492E0
4.936767250E0,1.346420884E0,-1.412277222E-1,-7.094065547E-1,1.528414907E0
4.946759177E0,1.247116566E0,-1.166400909E-1,-6.911727190E-1,1.430602798E0
4.956803708E0,1.154948711E0,-9.115600586E-2,-6.602933407E-1,1.333492872E0
4.966759177E0,1.090514898E0,-1.652736664E-1,-6.334427595E-1,1.271922898E0
4.976758916E0,1.114212513E0,-1.193284988E-1,-6.718783379E-1,1.306571588E0
4.986757875E0,1.174001217E0,-9.278583527E-2,-6.585682034E-1,1.349296167E0
4.996758656E0,1.801818252E0,-6.591320038E-2,-6.351744533E-1,1.911632849E0
5.006760218E0,1.817292094E0,-1.383390427E-1,-6.378378868E-1,1.930938999E0
5.016756312E0,1.846222401E0,-1.105680466E-1,-6.540451646E-1,1.961768978E0
5.026761521E0,1.882502675E0,-8.265781403E-2,-6.723893881E-1,2.000688913E0
5.036755010E0,1.915394068E0,-5.456638336E-2,-6.726207733E-1,2.030795566E0
5.046754489E0,1.921011209E0,-2.624893188E-2,-6.369472742E-1,2.024024433E0
5.056790687E0,1.866593838E0,-9.488010406E-2,-5.506471395E-1,1.948431949E0
5.066853864E0,1.762312651E0,-6.303882599E-2,-4.207843542E-1,1.812947667E0
5.076758187E0,1.613489032E0,-3.046607971E-2,-2.665227652E-1,1.635637314E0
5.086764229E0,9.348586798E-1,2.155303955E-3,1.335091114E0,1.629856951E0
5.096741625E0,7.924293280E-1,3.470897675E-2,1.416803956E0,1.623724854E0
5.106791989E0,9.118163586E-2,-3.259372711E-2,1.296941400E0,1.300551205E0
5.116749541E0,-5.116856098E-2,-3.528594971E-5,1.375115871E0,1.376067543E0
5.126747458E0,-1.372345090E0,3.234863281E-2,1.451390386E0,1.997726591E0
5.136753708E0,-1.373936534E0,5.583286285E-2,1.468691826E0,2.011933047E0
5.146750843E0,-1.351378918E0,7.578468323E-2,1.485034466E0,2.009302282E0
5.156780635E0,-1.484111667E0,1.543045044E-2,1.342493653E0,2.001278278E0
5.166748239E0,-1.430730820E0,3.132438660E-2,1.360703707E0,1.974711744E0
5.176753448E0,-1.374477744E0,4.668807983E-2,1.378073573E0,1.946909248E0
5.186749541E0,-1.271402717E0,-1.374111176E0,1.396151662E0,2.335355616E0
5.196749281E0,-1.370296836E0,-1.483585358E0,1.213787079E0,2.356272057E0
5.206756833E0,-1.270190239E0,-2.276270390E0,1.233719468E0,2.883895604E0
5.216748500E0,-1.172475576E0,-2.407800674E0,1.254242659E0,2.957250025E0
5.226747458E0,-1.075332403E0,-3.326211452E0,1.275293112E0,3.721074432E0
5.236749281E0,-9.803534150E-1,-3.470274925E0,1.296851873E0,3.832195931E0
5.246856885E0,-1.088362336E0,-4.505275726E0,1.117767334E0,4.767750597E0
5.256790479E0,-1.003453732E0,-5.212078094E0,1.142719746E0,5.429409348E0
5.266726573E0,-9.207015038E-1,-5.893262863E0,1.168157816E0,6.078061460E0
5.276748031E0,-8.426164985E-1,-6.658180237E0,1.194819808E0,6.816814579E0
5.286750323E0,-7.672170401E-1,-7.366197586E0,1.220043302E0,7.505864009E0
5.296752927E0,-8.968673944E-1,-7.500122070E0,1.047265053E0,7.625809222E0
5.306756312E0,-8.259149790E-1,-8.150215149E0,1.076373339E0,8.262367826E0
5.316752146E0,-7.592844963E-1,-8.042560577E0,1.106589079E0,8.153761891E0
5.326748500E0,-6.989519596E-1,-6.967447758E0,1.138464332E0,7.094361362E0
5.336749021E0,8.643305302E-1,-4.120626926E0,1.008833647E0,4.329477897E0
5.346751885E0,1.869595766E0,-2.355093002E0,1.039019465E0,3.181416796E0
5.356794854E0,2.031270504E0,1.287317276E-1,1.070641279E0,2.299761828E0
5.366751364E0,3.117353916E0,1.463594437E-1,1.102027535E0,3.309649712E0
5.376748239E0,3.235014439E0,1.995769501E0,1.133228302E0,3.966436777E0
5.386749802E0,3.221816778E0,2.849711418E0,9.628589749E-1,4.407726843E0
5.396748239E0,3.136901855E0,4.036976814E0,9.922979474E-1,5.207877712E0
5.406755271E0,2.981940508E0,5.823202133E0,3.121562958E0,7.248848707E0
5.416748500E0,2.767384529E0,7.707914352E0,4.222421169E0,9.214076260E0
5.426864646E0,1.579123020E0,9.097025871E0,4.974147797E0,1.048769067E1
5.436738135E0,1.311948180E0,9.920161247E0,5.706868649E0,1.151951201E1
5.446768708E0,5.690276623E-2,1.002889252E1,6.858778000E0,1.215009295E1
5.456793864E0,-1.377226114E-1,1.065154266E1,7.847531319E0,1.323095146E1
5.466751104E0,-2.519550323E-1,1.065168953E1,7.858588696E0,1.323931220E1
5.476753448E0,-2.649269104E-1,1.050761032E1,7.657720089E0,1.300464294E1
5.486750062E0,-1.981883049E-1,8.840845108E0,7.313846111E0,1.147572071E1
5.496747979E0,6.245305538E-1,7.099925995E0,6.435607433E0,9.602917816E0
5.506759177E0,1.327186465E0,5.851257324E0,6.190299511E0,8.620814592E0
5.516749802E0,2.532473087E0,4.955840111E0,4.743682384E0,7.312748711E0
5.526747198E0,2.652324915E0,4.907980919E0,3.725397110E0,6.708329731E0
5.536748500E0,2.728177071E0,4.828179359E0,3.414058208E0,6.512300631E0
5.546746937E0,2.711476803E0,4.117603302E0,2.444927931E0,5.503129654E0
5.556790687E0,2.564201117E0,3.452274323E0,2.227691889E0,4.843132924E0
5.566750843E0,1.322094083E0,2.615299225E0,1.971157074E0,3.531739375E0
5.576748239E0,4.511637688E-1,1.653603554E0,9.913994074E-1,1.980107635E0
5.586748500E0,-3.232852221E-1,-1.328830719E-1,8.336046934E-1,9.039181547E-1
5.596748500E0,-1.369606853E0,-1.052455902E-1,7.216653824E-1,1.551676670E0
5.606878239E0,-1.335907936E0,-1.101086617E0,6.395400763E-1,1.845549582E0
5.616737093E0,-1.306413293E0,-1.795779228E0,5.618536472E-1,2.290680739E0
5.626734073E0,-1.480163336E0,-1.947632313E0,-9.485685825E-2,2.448091696E0
5.636755583E0,-1.451178551E0,-2.959146500E0,-2.357165813E-1,3.304244165E0
5.646747979E0,-1.401566267E0,-3.083923340E0,-1.370434642E0,3.654184215E0
5.656795114E0,-1.337921739E0,-3.986860752E0,-1.332345605E0,4.411375981E0
5.666750323E0,-1.245189905E0,-4.121032715E0,-1.293220401E0,4.495089270E0
5.676748760E0,-1.357080102E0,-5.216078758E0,-1.458185434E0,5.583497898E0
5.686745375E0,-1.275024652E0,-5.944143295E0,-1.405993462E0,6.239819308E0
5.696753448E0,-1.157625794E0,-7.366486549E0,-1.316394567E0,7.572193620E0
5.706753708E0,-1.082497478E0,-7.505223274E0,-1.232718706E0,7.682432726E0
5.716749541E0,-1.211584091E0,-8.389666557E0,-1.354585052E0,8.584249624E0
5.726748760E0,-1.141707897E0,-8.437691689E0,-1.276089787E0,8.609677294E0
5.736748760E0,-1.077304006E0,-8.466495514E0,-1.204660892E0,8.619358333E0
5.746749021E0,8.932137489E-2,-8.449704170E0,-1.136378050E0,8.526243836E0
5.756794073E0,1.704555750E-1,-8.392858505E0,-1.072716951E0,8.462851213E0
5.766745896E0,2.622554302E-1,-8.290955544E0,-1.213999510E0,8.383466857E0
5.776747979E0,3.722862005E-1,-7.622998238E0,-7.854986191E-2,7.632487748E0
5.786854385E0,9.967597723E-1,-7.487238884E0,-5.099654198E-2,7.553467866E0
5.796748291E0,1.012725830E0,-6.443892956E0,-5.092906952E-2,6.523186629E0
5.806764646E0,9.862071276E-1,-5.483819962E0,-7.244336605E-2,5.572264702E0
5.816747250E0,9.738571644E-1,-4.252423763E0,-1.134778738E0,4.507685484E0
5.826744906E0,9.529573917E-1,-2.828072548E0,-1.076537967E0,3.172547261E0
5.836746937E0,9.180855751E-1,-1.406768799E0,-1.016232133E0,1.963315391E0
5.846748239E0,8.754909039E-1,2.097425461E-1,-9.560834765E-1,1.313229558E0
5.856788864E0,8.608964682E-1,2.353744507E-1,3.982275724E-2,8.933810570E-1
5.866746937E0,8.827511072E-1,1.597614288E-1,1.504314542E-1,9.096168720E-1
5.876747718E0,1.572748184E0,1.592820168E0,3.256816864E-1,2.262008289E0
5.886749802E0,1.565553546E0,2.257738113E-1,4.181953669E-1,1.636098739E0
5.896749281E0,1.538590193E0,2.462081909E-1,4.848763347E-1,1.631864980E0
5.906755010E0,1.467109680E0,-8.520565033E-1,5.002220869E-1,1.768794288E0
5.916748500E0,1.325580955E0,-9.769506454E-1,4.697952271E-1,1.712397438E0
5.926746677E0,2.637443542E-1,-1.065648079E0,4.314113855E-1,1.179526471E0
5.936748239E0,-5.416024923E-1,-1.087816238E0,4.189690351E-1,1.285384176E0
5.946748760E0,-1.653115511E0,-9.935550690E-1,4.282742143E-1,1.975692630E0
5.956790427E0,-1.850660920E0,2.106838226E-1,4.418840408E-1,1.914313198E0
5.966855531E0,-3.141792297E0,2.370491028E-1,5.075897574E-1,3.191347439E0
5.976744646E0,-3.308715582E0,2.628572464E0,6.283317208E-1,4.272211693E0
5.986750635E0,-4.019541740E0,4.099092484E0,1.464943647E0,5.924975517E0
5.996762614E0,-3.994428158E0,5.272128105E0,1.548699141E0,6.793324672E0
6.006755010E0,-3.859214306E0,6.156684875E0,1.644659042E0,7.450047455E0
6.016749281E0,-2.934269428E0,6.833059311E0,1.715086460E0,7.631655010E0
6.026749021E0,-1.601377249E0,6.919090271E0,1.780836821E0,7.321857623E0
6.036753187E0,-1.443245530E0,7.611036301E0,1.816422462E0,7.956772071E0
6.046748760E0,-2.486922741E-1,7.603357315E0,1.790943027E0,7.815392967E0
6.056796156E0,1.461260319E0,7.443997383E0,8.080238700E-1,7.628976428E0
6.066746937E0,1.707435846E0,6.545156479E0,6.503893137E-1,6.795396733E0
6.076749541E0,2.601484776E0,6.362847328E0,-8.357329965E-1,6.924738176E0
6.086749021E0,2.716774940E0,5.090943336E0,-7.978948951E-1,5.825393240E0
6.096749541E0,2.755052328E0,4.214528084E0,-9.584954977E-1,5.125551084E0
6.106757614E0,2.718310833E0,3.166988373E0,-9.185122848E-1,4.273487329E0
6.116759958E0,2.600773096E0,2.075410843E0,-2.374613523E0,4.087803842E0
6.126758135E0,1.860564351E0,1.018745422E0,-2.440238953E0,3.233312247E0
6.136759177E0,1.704864383E0,-1.677799225E-2,-2.520410061E0,3.042911589E0
6.146868968E0,7.751187086E-1,-9.956359863E-2,-3.201459885E0,3.295461624E0
6.156963916E0,6.195620298E-1,-8.067131042E-2,-3.177202702E0,3.238052189E0
6.166738708E0,-1.143724442E0,-6.073856354E-2,-3.151658297E0,3.353318474E0
6.176746989E0,-1.135258675E0,-1.405095100E0,-3.112031698E0,3.598311519E0
6.186759958E0,-1.130995274E0,-1.436192513E0,-2.984945059E0,3.500242312E0
6.196757354E0,-1.329409003E0,-1.461206436E0,-2.816281319E0,3.440042589E0
6.206762302E0,-1.327161193E0,-1.461748123E0,-2.624895096E0,3.284530206E0
6.216757354E0,-1.289479613E0,-1.421054840E0,-1.903760433E0,2.703046118E0
6.226757354E0,-1.196021318E0,-1.313257217E0,-1.755327344E0,2.497255613E0
6.236759437E0,-1.262955189E0,-8.791923523E-2,-1.492335558E0,1.957000516E0
6.246757875E0,-1.170080662E0,-7.293510437E-2,-1.320333123E0,1.765697551E0
6.256803187E0,-1.078456521E0,-5.697727203E-2,-1.157175899E0,1.582836358E0
6.266768552E0,-9.867009521E-1,-4.027080536E-2,-1.036327481E0,1.431494029E0
6.276760218E0,-8.963146210E-1,-2.279186249E-2,-9.351926446E-1,1.295563449E0
6.286758396E0,-1.008365750E0,-1.042900085E-1,-8.475921154E-1,1.321397096E0
6.296758396E0,-9.203749895E-1,-8.544921875E-2,-7.925079465E-1,1.217563360E0
6.306757614E0,-8.339537382E-1,-6.620693207E-2,-7.562302351E-1,1.127717324E0
6.316757875E0,-7.490260005E-1,-1.341753006E0,-7.612165213E-1,1.714873660E0
6.326839281E0,-6.657083035E-1,-1.337947845E0,-7.606030703E-1,1.676838994E0
6.336757666E0,-7.847891450E-1,-1.250509262E0,-7.552548647E-1,1.658335710E0
6.346768604E0,-7.038221359E-1,-7.574939728E-2,-7.214669585E-1,1.010751276E0
6.356799593E0,-6.241373420E-1,-5.459976196E-2,-6.630825400E-1,9.122538082E-1
6.366748760E0,6.772089005E-1,9.784889221E-1,-5.883243084E-1,1.327470511E0
6.376752146E0,8.016029000E-1,1.125429153E0,-4.798175097E-1,1.462662925E0
6.386749281E0,1.467254877E0,1.960944176E0,-3.581633568E-1,2.475160586E0
6.396748500E0,1.554024696E0,2.002233505E0,-2.539048195E-1,2.547233681E0
6.406749021E0,1.637198806E0,1.974395752E0,-1.938152313E-1,2.572201948E0
6.416748760E0,1.685835838E0,9.892559052E-1,-3.133317232E-1,1.979607660E0
6.426747458E0,1.649851799E0,-1.001415253E-1,-1.043490648E0,1.954715329E0
6.436751364E0,1.549289465E0,-7.443141937E-2,-1.108365297E0,1.906387032E0
6.446750583E0,1.406987429E0,-4.864501953E-2,-1.181615949E0,1.837987000E0
6.456752666E0,7.287052274E-1,-2.292060852E-2,-1.795638084E0,1.938002269E0
6.466750323E0,6.693316102E-1,2.734184265E-3,-1.770743132E0,1.893024965E0
6.476747979E0,6.390099525E-1,-7.146930695E-2,-1.721741199E0,1.837888555E0
6.486748760E0,6.391008496E-1,-4.580116272E-2,-1.642039776E0,1.762623689E0
6.496749281E0,6.717417836E-1,-1.602172852E-2,-1.500978470E0,1.644515152E0
6.506844593E0,7.364675999E-1,1.423168182E-2,-8.280915022E-1,1.108297163E0
6.516758187E0,1.360427141E0,4.429054260E-2,-7.031353712E-1,1.532032313E0
6.526733291E0,1.377439737E0,-2.543449402E-2,-5.743423700E-1,1.492600516E0
6.536746989E0,1.379529953E0,4.763603210E-3,-4.522472620E-1,1.451775867E0
6.546749021E0,1.354143381E0,3.483676910E-2,-3.362822533E-1,1.395709014E0
6.556749021E0,1.290105104E0,6.477451324E-2,-2.111506462E-1,1.308874140E0
6.566749802E0,1.207542181E0,9.445285797E-2,-7.367014885E-2,1.213468892E0
6.576747458E0,1.094595790E0,2.367401123E-2,6.322180033E-1,1.264278453E0
6.586750323E0,9.736884832E-1,5.222225189E-2,7.053686380E-1,1.203470540E0
6.596753187E0,7.912012339E-1,9.997749329E-2,1.809723616E0,1.977648719E0
6.606751625E0,7.237539291E-1,1.269712448E-1,1.870299101E0,2.009467634E0
6.616749281E0,6.724854708E-1,5.330848694E-2,1.726718545E0,1.853816452E0
6.626749021E0,6.452475786E-1,7.469272614E-2,1.756980419E0,1.873206778E0
6.636746937E0,6.338704824E-1,9.575939178E-2,1.785844684E0,1.897420060E0
6.646748239E0,6.245929003E-1,1.099529266E-1,6.912366152E-1,9.380906115E-1
6.656747198E0,5.983994007E-1,1.241226196E-1,5.740402937E-1,8.384572298E-1
6.666747458E0,5.475882292E-1,3.852272034E-2,4.433746338E-1,7.056330028E-1
6.676747718E0,4.743065834E-1,5.306911469E-2,-2.065905333E-1,5.200602988E-1
6.686879750E0,3.901205063E-1,6.789302826E-2,-2.644075155E-1,4.761457833E-1
6.696737041E0,3.112664223E-1,8.295345306E-2,-2.886444330E-1,4.325316979E-1
6.706741104E0,2.563136816E-1,9.828948975E-2,-2.883040905E-1,3.980914163E-1
6.716752718E0,2.229486704E-1,1.975727081E-2,-2.195612192E-1,3.135340306E-1
6.726748760E0,2.128903866E-1,4.156303406E-2,-1.219397783E-1,2.488355120E-1
6.736753708E0,2.339699268E-1,6.311130524E-2,1.533896923E0,1.552921355E0
6.746747718E0,2.788754702E-1,8.421039581E-2,1.576641560E0,1.603328265E0
6.756751885E0,3.157001734E-1,1.048564911E-1,1.619088769E0,1.652909533E0
6.766748239E0,3.575147390E-1,2.568721771E-2,1.461728454E0,1.505033785E0
6.776749802E0,3.641407490E-1,6.639766693E-2,1.543952107E0,1.587701246E0
6.786747718E0,3.256382942E-1,8.079528809E-2,1.545704842E0,1.581698971E0
6.796747979E0,2.684216499E-1,9.513473511E-2,1.547208786E0,1.573199233E0
6.806747718E0,2.140451670E-1,9.730339050E-3,1.348918915E0,1.365830243E0
6.816744854E0,1.973855495E-1,2.444648743E-2,1.351950049E0,1.366501966E0
6.826749802E0,2.418031693E-1,3.943157196E-2,1.356188416E0,1.378140284E0
6.836747198E0,3.254296780E-1,5.455875397E-2,1.361369848E0,1.400788705E0
6.846746156E0,4.410421848E-1,7.013797760E-2,1.367683411E0,1.438747878E0
6.856747718E0,1.217275143E0,-1.401233673E-2,1.174032807E0,1.691244557E0
6.866867354E0,1.272519708E0,2.323150635E-3,1.183168650E0,1.737584489E0
6.876739854E0,1.324150324E0,1.898956299E-2,1.193316221E0,1.782621185E0
6.886741625E0,1.378412008E0,3.582859039E-2,1.204391122E0,1.830808927E0
6.896743812E0,1.401005268E0,5.260372162E-2,1.214782238E0,1.855068408E0
6.906748500E0,1.383384347E0,-2.987861633E-2,-4.087616205E-1,1.442820517E0
6.916747718E0,1.302898645E0,-8.062362671E-3,-4.765176773E-1,1.387328000E0
6.926749281E0,1.227214575E0,1.427078247E-2,-5.505785942E-1,1.345137932E0
6.936748500E0,1.157384157E0,3.668880463E-2,-6.069724560E-1,1.307401896E0
6.946750323E0,1.122611523E0,-9.892225266E-1,-6.234161854E-1,1.620945890E0
6.956746156E0,1.208713889E0,-1.734420776E0,-4.624372721E-1,2.164036258E0
6.966748239E0,1.286458731E0,-1.846076012E0,1.055057645E0,2.485179941E0
6.976747979E0,2.035402775E0,-2.750667095E0,1.130166411E0,3.603652320E0
6.986747979E0,2.043678999E0,-2.856518269E0,1.203561902E0,3.712799715E0
6.996750323E0,1.992932677E0,-3.546981812E0,1.075934410E0,4.208383951E0
7.006748500E0,1.874421239E0,-3.604557037E0,1.149160981E0,4.222186327E0
7.016749802E0,1.141090035E0,-3.691462040E0,1.221189260E0,4.052194673E0
7.026747458E0,3.873964548E-1,-4.462504387E0,3.033566475E-2,4.479390770E0
7.036745635E0,-5.396966934E-1,-4.538349152E0,-1.363193989E-1,4.572359186E0
7.046864073E0,-1.902371526E0,-5.159570694E0,-1.184623837E0,5.625257399E0
7.056736521E0,-2.882361412E0,-5.198631287E0,-1.299958944E0,6.084707702E0
7.066747666E0,-3.892995834E0,-5.223645687E0,-1.380464077E0,6.659397262E0
7.076747250E0,-4.069223404E0,-5.232547760E0,-1.392781615E0,6.773328266E0
7.086750323E0,-4.199245453E0,-5.193094254E0,-1.330918908E0,6.809789677E0
7.096750843E0,-4.248830795E0,-5.046385765E0,-6.330735683E-1,6.627167914E0
7.106749281E0,-4.150423050E0,-3.827015877E0,-4.622792006E-1,5.664429722E0
7.116746677E0,-3.062471390E0,-2.743970871E0,-3.154984713E-1,4.124032788E0
7.126747198E0,-1.849207520E0,-1.458305359E0,-2.494885921E-1,2.368220330E0
7.136748760E0,1.732965946E0,2.728796005E-1,-2.984652519E-1,1.779526834E0
7.146748500E0,2.999892473E0,2.666356087E0,-1.883984804E-1,4.017997464E0
7.156744333E0,3.778271437E0,4.620988846E0,-3.891623020E-2,5.969119486E0
7.166749021E0,3.911123276E0,6.663121223E0,1.020585299E-1,7.726867778E0
7.176747718E0,3.976989746E0,8.471387863E0,1.653132439E0,9.503352389E0
7.186749021E0,3.805806637E0,9.859624863E0,1.515572548E0,1.067676574E1
7.196746416E0,2.075690269E0,1.061212063E1,3.067374229E0,1.123985672E1
7.206746156E0,5.690279007E-1,1.067204952E1,4.061512470E0,1.143294876E1
7.216747458E0,-1.732137322E0,1.064797783E1,4.180912971E0,1.156977808E1
7.226869021E0,-1.697852969E0,1.048608780E1,4.196667671E0,1.142159190E1
7.236737875E0,-2.850402594E0,9.058073044E0,4.105663776E0,1.034552837E1
7.246732614E0,-2.943121433E0,7.720682144E0,3.997465849E0,9.178814180E0
7.256759489E0,-3.014336348E0,6.386902809E0,3.782970428E0,8.011842258E0
7.266745896E0,-2.987463951E0,5.257685661E0,2.671025753E0,6.610792535E0
7.276748500E0,-2.788963556E0,4.517799377E0,1.105227113E0,5.423131559E0
7.286747718E0,-1.619045258E0,4.393076897E0,8.500201106E-1,4.758462604E0
7.296749281E0,-1.456745386E0,4.308244705E0,8.027869463E-1,4.618175662E0
7.306754229E0,-2.805595398E-1,4.248971939E0,7.634286880E-1,4.326118301E0
7.316750323E0,-3.154718876E-2,4.195158005E0,2.610914230E0,4.941378252E0
7.326747718E0,8.010494709E-2,4.144449234E0,2.682893753E0,4.937691277E0
7.336750843E0,1.150946617E-1,4.089841843E0,3.776502609E0,5.567946214E0
7.346750583E0,9.015643597E-2,4.031466484E0,3.845648766E0,5.572240539E0
7.356747979E0,-9.340983629E-1,3.962855339E0,3.860929966E0,5.611019728E0
7.366759177E0,-8.636116982E-1,3.872512817E0,3.785253286E0,5.483641411E0
7.376758916E0,-9.942567348E-1,3.161754608E0,3.581417561E0,4.879732616E0
7.386757875E0,-9.264013171E-1,3.014682770E0,2.318954229E0,3.914598360E0
7.396757875E0,-8.600448966E-1,1.797281265E0,1.198089004E0,2.324933210E0
7.406847354E0,-7.951077223E-1,9.207048416E-1,8.565440774E-2,1.219520550E0
7.416753760E0,-7.315803766E-1,-2.477502823E-1,7.179308683E-2,7.757217911E-1
7.426732458E0,-8.387974501E-1,-3.306989670E-1,-1.391752064E-1,9.123117379E-1
7.436746468E0,-7.476078868E-1,-1.905330658E0,-1.477691233E-1,2.052081427E0
7.446761781E0,-6.613201499E-1,-2.593505859E0,-1.551125348E-1,2.680984312E0
7.456760218E0,-5.776335597E-1,-2.684994221E0,-1.605340540E-1,2.751113534E0
7.466757093E0,-4.997725487E-1,-2.759392262E0,-1.327755153E-1,2.807427219E0
7.476760218E0,-6.241778135E-1,-2.780016422E0,-2.736018896E-1,2.862332483E0
7.486763343E0,-5.535184741E-1,-2.752969742E0,-2.159827352E-1,2.816358223E0
7.496762302E0,-4.484842718E-1,-2.600176334E0,9.944602251E-1,2.819752871E0
7.506754229E0,6.342871189E-1,-2.535386086E0,1.031216145E0,2.809610202E0
7.516761781E0,7.266606092E-1,-2.541743755E0,1.069465399E0,2.851710574E0
7.526759177E0,8.569889665E-1,-2.644392490E0,1.113828421E0,2.994637788E0
7.536757093E0,1.707132936E0,-3.536268234E0,1.152314305E0,4.092349465E0
7.546757354E0,1.818534136E0,-4.337844849E0,1.150830984E0,4.842352351E0
7.556761521E0,1.940362215E0,-5.182447910E0,1.125083566E0,5.646997866E0
7.566758656E0,2.555538177E0,-5.908970833E0,1.083704233E0,6.528485777E0
7.576759698E0,2.518038511E0,-6.043931484E0,1.018615246E0,6.626251033E0
7.586807093E0,2.453480721E0,-7.018398762E0,9.375983477E-1,7.493769378E0
7.596748291E0,2.333198071E0,-7.088818073E0,8.636862636E-1,7.512729788E0
7.606732458E0,2.180569649E0,-7.166338921E0,8.183904290E-1,7.535320857E0
7.616746729E0,2.003111839E0,-7.749640942E0,8.219715357E-1,8.046429579E0
7.626747718E0,1.239994287E0,-7.744963169E0,8.572536111E-1,7.890305702E0
7.636747458E0,1.137720823E0,-7.726789474E0,9.205071926E-1,7.864160333E0
7.646748239E0,1.042696714E0,-7.691978455E0,1.603359938E0,7.926191524E0
7.656749021E0,9.737986922E-1,-7.632066727E0,1.629467010E0,7.864597202E0
7.666747979E0,9.403958321E-1,-7.511282444E0,1.610828876E0,7.739410697E0
7.676747458E0,1.028657556E0,-5.595802784E0,-6.219196916E-1,5.723454312E0
7.686746677E0,1.034775138E0,-4.256981850E0,-6.245957613E-1,4.425242809E0
7.696747979E0,1.014682770E0,-2.695782661E0,-1.897627831E0,3.449321189E0
7.706751364E0,9.473806620E-1,-1.005518913E0,-2.770809174E0,3.096123686E0
7.716754750E0,8.288668394E-1,1.313743591E-1,-2.971010923E0,3.087261791E0
7.726749281E0,6.495835781E-1,2.335152626E0,-3.898830414E0,4.590836003E0
7.736749802E0,-3.047204018E-1,3.814995766E0,-3.897440910E0,5.462334013E0
7.746747198E0,-1.619016767E0,5.409036636E0,-2.990634918E0,6.389271464E0
7.756746937E0,-1.812630892E0,7.332512856E0,-8.274237514E-1,7.598421256E0
7.766780010E0,-3.176169395E0,9.356972694E0,6.014610529E-1,9.899633601E0
7.776758187E0,-3.275420666E0,1.041120243E1,3.046976089E0,1.133161859E1
7.786737718E0,-3.251133919E0,1.038111401E1,4.788887978E0,1.188574137E1
7.796766208E0,-3.106571198E0,9.558393478E0,4.918231964E0,1.118940017E1
7.806746416E0,-1.677760482E0,8.316757202E0,4.881139755E0,9.788199830E0
7.816747198E0,-1.493103981E0,6.711544037E0,4.018677711E0,7.963915708E0
7.826747198E0,2.330845594E-1,4.507328033E0,3.163443804E0,5.511597873E0
7.836749802E0,1.526465416E0,1.460736275E0,1.884802938E0,2.831312283E0
7.846747458E0,2.529208660E0,-2.021829605E0,-4.395979047E-1,3.267711388E0
7.856750583E0,2.542803764E0,-5.644398212E0,-4.339062691E0,7.559930370E0
7.866747458E0,1.376723528E0,-5.642508984E0,-4.408133984E0,7.291427879E0
7.876749281E0,3.141852617E-1,-4.795610428E0,-4.262017727E0,6.423502694E0
7.886751104E0,-8.336771727E-1,-3.280784607E0,-3.123265743E0,4.605795715E0
7.896751104E0,-2.006584644E0,-1.441883087E0,-3.097223759E0,3.962095883E0
7.906747718E0,-2.825880289E0,-8.293151855E-2,-2.959890842E0,4.093095509E0
7.916746156E0,-2.919107437E0,2.061319351E0,-1.906133056E0,4.050131964E0
7.926747718E0,-2.904186487E0,3.113400459E0,-1.629548788E0,4.558836565E0
7.936748500E0,-2.156789303E0,3.202115059E0,-1.924210936E-1,3.865528014E0
7.946775010E0,-1.044891000E0,3.185344696E0,-2.458330691E-1,3.361346744E0
7.956752718E0,1.191632748E-1,3.019523621E0,-1.025431752E-1,3.023613382E0
7.966738760E0,1.286879301E0,1.667968750E0,3.980061412E-2,2.107074317E0
7.976748500E0,2.300113201E0,-1.071958542E-1,1.498944461E-1,2.307483485E0
7.986748239E0,2.502692699E0,-8.965587616E-2,2.506430745E-1,2.516809662E0
7.996748500E0,3.326667309E0,-1.722879410E-1,1.031266749E-1,3.332721655E0
8.006747458E0,3.336270809E0,-1.547298431E-1,1.547763646E-1,3.343441335E0
8.016748239E0,3.187428713E0,-1.309022903E-1,2.040745169E-1,3.196636297E0
8.026747718E0,2.282194614E0,-1.038560867E-1,2.509924471E-1,2.298302755E0
8.036748239E0,1.983660460E0,-1.563262939E-1,1.378132105E-1,1.994577451E0
8.046750583E0,1.248097420E0,-1.285753250E-1,1.842419505E-1,1.268157671E0
8.056747718E0,1.174656034E0,-1.006584167E-1,2.302788943E-1,1.201239894E0
8.066751625E0,1.133693814E0,-7.263374329E-2,2.759884596E-1,1.169062426E0
8.076749541E0,1.136423826E0,-4.460525513E-2,3.210350871E-1,1.181741202E0
8.086748500E0,1.162553668E0,-1.163597107E-1,1.646229774E-1,1.179903105E0
8.096748760E0,1.192991972E0,-8.855056763E-2,2.095555067E-1,1.214489423E0
8.106746156E0,1.209139705E0,-6.143474579E-2,2.541300356E-1,1.237083315E0
8.116747458E0,1.221145988E0,-3.622245789E-2,2.983935475E-1,1.257596238E0
8.126775635E0,1.198908210E0,-1.113796234E-2,3.424161673E-1,1.246897663E0
8.136755635E0,1.137256145E0,-8.600330353E-2,1.851317436E-1,1.155431465E0
8.146741416E0,1.042085767E0,-6.110572815E-2,2.292563021E-1,1.068753998E0
8.156745479E0,9.136652946E-1,-3.660869598E-2,2.731232345E-1,9.543169120E-1
8.166749541E0,1.338179111E-1,-1.261997223E-2,3.167811036E-1,3.441173705E-1
8.176748760E0,2.557945251E-2,1.114940643E-2,3.586280346E-1,3.597119470E-1
8.186751625E0,-1.101782322E-1,-6.494998932E-2,2.009370178E-1,2.381878021E-1
8.196751364E0,-1.711196065E0,-4.112720490E-2,2.446607351E-1,1.729087128E0
8.206753187E0,-1.687410355E0,-1.102290154E0,2.881751955E-1,2.036035911E0
8.216750062E0,-1.623099446E0,-1.220918655E0,3.714270592E-1,2.064716018E0
8.226748239E0,-1.768839121E0,-1.898268700E0,2.132615000E-1,2.603400922E0
8.236746677E0,-1.711975217E0,-2.019018173E0,2.548737228E-1,2.659371005E0
8.246747198E0,-1.651570320E0,-2.986004829E0,2.980075777E-1,3.425305516E0
8.256747458E0,-1.536092758E0,-3.138510227E0,3.406583369E-1,3.510822626E0
8.266739906E0,-1.429504991E0,-4.175592422E0,3.828076720E-1,4.430078815E0
8.276748239E0,-1.524756432E0,-4.326354504E0,2.236516327E-1,4.592629478E0
8.286747458E0,-1.422588468E0,-5.338742256E0,2.659053802E-1,5.531422285E0
8.296747979E0,-1.325248718E0,-5.446641922E0,3.077245355E-1,5.613990273E0
8.306764281E0,-1.230273128E0,-6.244067669E0,3.493434787E-1,6.373695466E0
8.316745323E0,-1.142897964E0,-6.316354752E0,3.904833198E-1,6.430787691E0
8.326737146E0,-1.256895065E0,-6.382659912E0,2.319119126E-1,6.509371390E0
8.336746729E0,-1.177887917E0,-6.418646336E0,2.726368904E-1,6.531521385E0
8.346749802E0,-3.713583946E-2,-6.399383545E0,3.132440448E-1,6.407153085E0
8.356756312E0,9.846037626E-1,-6.311758995E0,3.530888855E-1,6.397844789E0
8.366749541E0,1.702914000E0,-5.568037987E0,3.923917413E-1,5.835831936E0
8.376751885E0,2.463814020E0,-4.779725075E0,2.321292311E-1,5.382381935E0
8.386750583E0,3.223676205E0,-3.794521332E0,2.717198431E-1,4.986412747E0
8.396750583E0,4.181383133E0,-1.582833290E0,3.509419560E-1,4.484694681E0
8.406747458E0,4.077940941E0,1.593446732E-1,3.896734715E-1,4.099614428E0
8.416750323E0,3.827803135E0,1.290386200E0,2.286691517E-1,4.045919298E0
8.426750583E0,2.635907650E0,3.613184929E0,2.677603066E-1,4.480492166E0
8.436747718E0,1.796875834E0,6.169802666E0,1.336889863E0,6.563726244E0
8.446747718E0,5.935617685E-1,8.250453949E0,2.599636555E0,8.670664113E0
8.456748760E0,-7.017998695E-1,9.541738510E0,3.753406525E0,1.027741978E1
8.466743812E0,-1.931668639E0,9.696213722E0,5.146310806E0,1.114595977E1
8.476747979E0,-1.959200978E0,1.037594128E1,6.694037914E0,1.250235056E1
8.486769021E0,-2.963258743E0,1.034501648E1,7.613970757E0,1.318229187E1
8.496766833E0,-1.922000051E0,1.017190266E1,7.585009575E0,1.283331828E1
8.506745062E0,-1.839004040E0,8.326467514E0,7.433481693E0,1.131232280E1
8.516753812E0,-1.916585445E0,6.620240211E0,7.219455719E0,9.981053106E0
8.526752406E0,-6.523576975E-1,5.319829941E0,6.897250652E0,8.734885673E0
8.536750843E0,6.651610136E-1,5.163119316E0,5.697001934E0,7.717258016E0
8.546749541E0,1.932407141E0,5.097913742E0,4.766895771E0,7.241976054E0
8.556748760E0,3.012590170E0,5.097076416E0,3.692960024E0,6.978097252E0
8.566754489E0,3.799032688E0,5.112627029E0,3.364803791E0,7.203714949E0
8.576751364E0,3.817199707E0,5.057019234E0,2.283031225E0,6.734737464E0
8.586748500E0,2.895270348E0,4.387089729E0,2.059263706E0,5.645326712E0
8.596750062E0,1.875481844E0,3.731478691E0,1.826642156E0,4.558287720E0
8.606750843E0,7.640681267E-1,2.878919601E0,9.613461494E-1,3.129882521E0
8.616748239E0,-3.717961311E-1,2.062957764E0,8.201413155E-1,2.250924005E0
8.626756573E0,-1.424281240E0,1.306625366E0,7.227907181E-1,2.063558412E0
8.636756573E0,-1.405558705E0,-2.406120300E-3,6.961810589E-1,1.568524507E0
8.646758135E0,-1.385612249E0,2.412128448E-2,6.735095978E-1,1.540817420E0
8.656768552E0,-1.567689300E0,-4.862499237E-2,5.872545242E-1,1.674778196E0
8.666752771E0,-1.545204163E0,-1.393932343E0,-7.815539837E-2,2.082501272E0
8.676780843E0,-1.493957520E0,-1.547846794E0,-1.918785572E-1,2.159758354E0
8.686734698E0,-1.413568854E0,-2.642928600E0,-1.736923695E0,3.464123614E0
8.696749593E0,-1.309478879E0,-3.348221779E0,-1.698964715E0,3.976406055E0
8.706756312E0,-1.413827538E0,-4.088183403E0,-1.868100405E0,4.711894626E0
8.716758135E0,4.513643980E-1,-4.767266273E0,-1.836926460E0,5.128826022E0
8.726762302E0,5.615690947E-1,-4.908810139E0,-1.803714156E0,5.259768206E0
8.736764906E0,6.250671148E-1,-5.804927826E0,-1.755813718E0,6.096784216E0
8.746758135E0,5.946315527E-1,-5.926285267E0,-1.826191545E0,6.229720644E0
8.756757354E0,5.538499355E-1,-5.948680878E0,-1.741672397E0,6.223100246E0
8.766761260E0,4.579085112E-1,-5.950318336E0,-1.659924150E0,6.194458547E0
8.776760479E0,3.763777018E-1,-5.934162140E0,-1.582577825E0,6.153088090E0
8.786762562E0,3.146985769E-1,-5.913006783E0,-1.506270170E0,6.109953701E0
8.796755531E0,2.609200478E-1,-5.890966415E0,-1.635315061E0,6.119298973E0
8.806758396E0,2.228244543E-1,-5.874507904E0,-1.563333511E0,6.083050675E0
8.816756052E0,1.985942125E-1,-5.872498035E0,-4.703723192E-1,5.894652064E0
8.826755010E0,1.816506386E-1,-5.883103848E0,-3.881754875E-1,5.898693757E0
8.836782093E0,1.836397648E-1,-5.890181065E0,-3.388396502E-1,5.902776368E0
8.846748604E0,1.851817369E-1,-5.869573593E0,-3.216667175E-1,5.881297129E0
8.856806052E0,1.912648678E-1,-5.800071716E0,-3.440176249E-1,5.813412276E0
8.866745687E0,2.110968828E-1,-5.658975601E0,-1.355111361E0,5.822790873E0
8.876745427E0,2.576348782E-1,-4.538525581E0,-1.285240769E0,4.724027309E0
8.886751625E0,9.208251238E-1,-3.780219078E0,-1.217260957E0,4.076726557E0
8.896753448E0,9.452818632E-1,-2.906035423E0,-1.349008679E0,3.340422743E0
8.906749281E0,9.672656059E-1,-1.993896484E0,-1.280804157E0,2.559625995E0
8.916754489E0,9.791476727E-1,-1.162081718E0,-1.210028052E0,1.942506621E0
8.926747718E0,1.041131973E0,3.106708527E-1,-1.091935158E0,1.540387793E0
8.936749281E0,1.015032530E0,2.375888824E-1,-1.210094094E0,1.597206070E0
8.946753448E0,9.771832228E-1,2.626800537E-1,-5.659723282E-2,1.013455035E0
8.956749802E0,9.160733223E-1,2.859907150E-1,1.694858074E-2,9.598272112E-1
8.966749541E0,8.455157280E-1,3.076295853E-1,9.529024363E-2,9.047723684E-1
8.976749541E0,7.890667915E-1,3.258762360E-1,1.365723014E-1,8.645656228E-1
8.986747718E0,7.073016167E-1,-8.238115311E-1,1.405456066E-1,1.094848886E0
8.996748500E0,5.999519825E-1,-1.893382072E0,-8.569101691E-1,2.163130392E0
9.006747198E0,-9.641504288E-2,-2.004274368E0,-7.669554949E-1,2.148169531E0
9.016767250E0,-2.322217226E-1,-2.070753098E0,-6.798381209E-1,2.191831469E0
9.026750583E0,-2.081346750E0,-2.000563622E0,3.710579276E-1,2.910660249E0
9.036767614E0,-2.252797127E0,-7.126731873E-1,1.216745615E0,2.657718544E0
9.046735896E0,-2.223344326E0,2.996339798E-1,1.297285080E0,2.591522543E0
9.056756885E0,-2.190584660E0,3.232821465E0,1.395267487E0,4.146874381E0
9.066750062E0,-3.676052809E0,4.914130211E0,2.132093191E0,6.496757757E0
9.076749541E0,-3.695857048E0,6.367411613E0,2.189210176E0,7.680880885E0
9.086747979E0,-3.675452709E0,7.827724457E0,2.221669197E0,8.928495775E0
9.096751364E0,-3.475709438E0,9.213478088E0,2.225960255E0,1.009572353E1
9.106756052E0,-1.838074803E0,9.939185143E0,1.973930597E0,1.029865633E1
9.116746937E0,7.066333294E-2,8.665321350E0,6.933276653E-1,8.693301482E0
9.126748500E0,1.142179370E0,7.156907082E0,-1.022466540E0,7.319243849E0
9.136747198E0,2.091425896E0,5.761422157E0,-1.013936281E0,6.212577109E0
9.146752146E0,2.347880363E0,4.465395927E0,-1.002096057E0,5.143588193E0
9.156744906E0,3.139973640E0,3.064976692E0,-2.312013149E0,4.959729971E0
9.166747979E0,3.204735994E0,1.536891937E0,-2.493975639E0,4.341921707E0
9.176747718E0,3.092800140E0,-3.970146179E-2,-3.479537010E0,4.655552246E0
9.186746677E0,1.857355475E0,-2.102756500E-2,-3.502951145E0,3.964956273E0
9.196761781E0,9.699175358E-1,-6.487846375E-3,-3.471153736E0,3.604121305E0
9.206759073E0,1.787581444E-1,1.026248932E-2,-3.462309837E0,3.466936573E0
9.216772302E0,-4.641890526E-3,2.879047394E-2,-3.457908869E0,3.458031837E0
9.226754802E0,-1.354734898E0,-5.364799500E-2,-3.393896103E0,3.654684050E0
9.236748500E0,-1.351375937E0,1.595872879E0,-3.275142908E0,3.885818863E0
9.246750843E0,-1.346213818E0,1.729660988E0,-3.091039419E0,3.789266877E0
9.256747718E0,-1.339299679E0,2.459989548E0,-2.888019562E0,4.023174020E0
9.266740427E0,-1.301993370E0,2.456738472E0,-2.675666809E0,3.858748959E0
9.276749541E0,-1.517763138E-1,2.396024704E0,-1.831594944E0,3.019720264E0
9.286750062E0,-4.708027840E-2,1.515848160E0,-2.588213235E-2,1.516799948E0
9.296749541E0,-1.200389862E-2,1.393803596E0,1.113970354E-1,1.398299631E0
9.306749021E0,-1.344406605E-2,-2.626323700E-2,2.445929050E-1,2.463659671E-1
9.316749541E0,-5.175554752E-2,-1.070070267E-1,1.729025394E-1,2.098199909E-1
9.326749541E0,-1.216313839E-1,-8.789062500E-2,2.723400295E-1,3.109470167E-1
9.336751104E0,-1.214615583E0,-6.852245331E-2,3.661178946E-1,1.270444275E0
9.346747458E0,-1.151793003E0,-5.082130432E-2,4.053024054E-1,1.222080180E0
9.356750583E0,-1.089928985E0,-3.308010101E-2,4.428002834E-1,1.176907633E0
9.366747718E0,-1.229042292E0,-1.149854660E-1,2.793813348E-1,1.265630492E0
9.376746937E0,5.589151382E-2,-9.599971771E-2,3.160906732E-1,3.350419687E-1
9.386767927E0,1.953438520E-1,-7.701778412E-2,3.527444303E-1,4.105113795E-1
9.396745427E0,1.088527679E0,-5.807018280E-2,-6.544933915E-1,1.271466183E0
9.406747875E0,1.205936551E0,-3.913497925E-2,-6.626195908E-1,1.376546125E0
9.416747718E0,1.922417164E0,-1.199092865E-1,-6.683618426E-1,2.038816701E0
9.426749281E0,1.978445411E0,-1.006755829E-1,-6.585326195E-1,2.087593597E0
9.436748239E0,2.017794132E0,-8.145999908E-2,3.490558267E-1,2.049382556E0
9.446746416E0,1.973072171E0,-5.829620361E-2,3.867460489E-1,2.011463335E0
9.456748239E0,1.858576775E0,-3.479957581E-2,4.229676127E-1,1.906415547E0
9.466750323E0,8.636335135E-1,-8.857536316E-2,3.009397984E-1,9.188434049E-1
9.476748239E0,7.388857603E-1,-6.235218048E-2,3.388676643E-1,8.152737302E-1
9.486753968E0,6.057785749E-1,-3.615760803E-2,3.768156171E-1,7.143284005E-1
9.496746416E0,4.999691248E-1,-1.003360748E-2,4.146182537E-1,6.495984108E-1
9.506747198E0,4.181655645E-1,-8.378982544E-2,2.514625788E-1,4.950925194E-1
9.516750062E0,3.964712620E-1,-5.761909485E-2,2.882974744E-1,4.935836863E-1
9.526747198E0,4.372549057E-1,-3.154182434E-2,3.251657486E-1,5.458200283E-1
9.536749281E0,5.374921560E-1,-1.009368896E-2,3.623336256E-1,6.482941898E-1
9.546747198E0,1.252066493E0,1.104450226E-2,3.995476365E-1,1.314317617E0
9.556746885E0,1.287189960E0,-6.771278381E-2,2.357770652E-1,1.310356379E0
9.566763968E0,1.316626310E0,-4.648303986E-2,2.735264003E-1,1.345541603E0
9.576768135E0,1.306956172E0,-2.533054352E-2,3.112669885E-1,1.343749683E0
9.586744906E0,1.238680840E0,-4.252433777E-3,3.490273654E-1,1.286922067E0
9.596736052E0,1.094994903E0,1.667881012E-2,3.852621913E-1,1.160912992E0
9.606747718E0,3.241574764E-2,-6.222343445E-2,2.219827026E-1,2.328064792E-1
9.616752146E0,-1.209896803E-1,-4.113578796E-2,-9.784405231E-1,9.867504817E-1
9.626748239E0,-1.585771561E0,-2.012062073E-2,-1.071875453E0,1.914156020E0
9.636747458E0,-1.547888875E0,-1.759070396E0,-1.177581668E0,2.622401040E0
9.646743812E0,-1.669612646E0,-3.329899788E0,-1.853196144E0,4.160549836E0
9.656750583E0,-1.631195784E0,-4.020444393E0,-1.816385269E0,4.703618633E0
9.666752666E0,-1.576779604E0,-4.172898769E0,-1.695422173E0,4.772187591E0
9.676748239E0,-1.517089963E0,-5.143927574E0,-7.411010265E-1,5.413943440E0
9.686749281E0,-1.407234669E0,-5.211544037E0,-5.789406896E-1,5.429150300E0
9.696749021E0,2.822237015E-1,-5.237990379E0,3.861386180E-1,5.259781028E0
9.706747718E0,4.854598045E-1,-5.180493355E0,4.700129926E-1,5.224375066E0
9.716749802E0,1.606795430E0,-4.450313568E0,5.535995960E-1,4.763775280E0
9.726747979E0,1.768335581E0,-3.495356560E0,6.371653080E-1,3.968690947E0
9.736746573E0,2.468489170E0,-2.330792427E0,7.134988904E-1,3.469166007E0
9.746764698E0,2.541961670E0,-1.239326477E0,5.851126909E-1,2.887880903E0
9.756746312E0,2.532263041E0,4.936122894E-2,6.173507571E-1,2.606897504E0
9.766755843E0,2.503164291E0,7.401561737E-2,-7.480463982E-1,2.613595836E0
9.776749281E0,2.397841454E0,1.052951813E-1,-8.769189119E-1,2.555331190E0
9.786752666E0,2.264742136E0,1.373434067E-1,-1.541574955E0,2.743059149E0
9.796748500E0,2.087659359E0,-1.593243599E0,-1.582729816E0,3.066232287E0
9.806748760E0,1.884348392E0,-2.588709354E0,-1.629022479E0,3.592478145E0
9.816748500E0,1.012165308E0,-3.621507645E0,-1.669639826E0,4.114303511E0
9.826753708E0,-2.191007137E-2,-4.398628712E0,-1.624906778E0,4.689214927E0
9.836748239E0,-2.409985065E-1,-4.240779400E0,-1.490254521E0,4.501460734E0
9.846750062E0,-2.120450497E0,-2.774979591E0,-1.318623781E0,3.733040412E0
9.856749281E0,-2.153554916E0,-9.059448242E-1,-6.281199455E-1,2.419311776E0
9.866760479E0,-2.171761036E0,1.798697472E0,-4.505918026E-1,2.855677076E0
9.876762041E0,-2.154858351E0,4.460217476E0,1.127820015E0,5.080249249E0
9.886761000E0,-2.332262754E0,6.473371506E0,1.033884645E0,6.957938320E0
9.896757614E0,-2.273543835E0,7.820021629E0,1.137905955E0,8.222929515E0
9.906758135E0,-1.037891984E0,8.483058929E0,1.237448096E0,8.635437821E0
9.916754698E0,-1.452052593E-1,8.549758911E0,3.530284405E0,9.251073991E0
9.926764437E0,7.612397671E-1,8.616274834E0,4.379562855E0,9.695372545E0
9.936747666E0,1.641121626E0,8.637652397E0,5.028539658E0,1.012859962E1
9.946745948E0,2.547199965E0,8.521604538E0,5.074541092E0,1.023996772E1
9.956755271E0,2.812527180E0,8.356508255E0,5.070529461E0,1.017112621E1
9.966757614E0,3.631377697E0,8.228607178E0,5.048841000E0,1.031444014E1
9.976752927E0,3.661725521E0,8.152127266E0,4.917857647E0,1.020052629E1
9.986764125E0,3.555937290E0,8.114685059E0,4.704632759E0,1.003126976E1
9.996758135E0,2.750231981E0,8.052622795E0,4.447646141E0,9.601565811E0
1.000675709E1,1.869182467E0,6.628087997E0,3.350517750E0,7.658417773E0
1.001675840E1,1.734236360E0,5.459538460E0,3.104706049E0,6.515622426E0
1.002675892E1,9.329268932E-1,4.187434196E0,2.849448681E0,5.150176261E0
1.003675814E1,8.068420887E-1,3.081059456E0,1.890547156E0,3.703794011E0
1.004675501E1,1.857757568E-3,2.196013451E0,1.699558616E0,2.776864781E0
1.005675709E1,-1.302049160E-1,2.042607307E0,1.502876401E0,2.539258831E0
1.006679746E1,-1.798462272E0,1.134782791E0,7.946130037E-1,2.270156019E0
1.007675501E1,-1.954042792E0,1.054823875E0,6.880127192E-1,2.324714637E0
1.008675840E1,-1.914206743E0,9.713859558E-1,5.966054201E-1,2.227939891E0
1.009675074E1,-1.859590888E0,-1.147518158E-1,4.740390182E-1,1.922487774E0
1.010676454E1,-1.809892893E0,-9.364604950E-2,-6.125675440E-1,1.913039692E0
1.011677048E1,-1.743264437E0,-7.575798035E-2,-5.982450843E-1,1.844615773E0
1.012674777E1,-1.874746084E0,-1.580562592E-1,-7.800905108E-1,2.036712023E0
1.013674980E1,-1.763847470E0,-1.489801407E-1,-7.453104854E-1,1.920635494E0
1.014674954E1,-1.655558825E0,-1.191431046E0,-7.091278434E-1,2.159454852E0
1.015674147E1,-1.548674822E0,-2.321957588E0,-6.718893647E-1,2.870769246E0
1.016677741E1,-1.449778795E0,-3.007208824E0,-6.352559924E-1,3.398339836E0
1.017674980E1,-1.551134109E0,-3.168612003E0,-7.660250664E-1,3.610112665E0
1.018675293E1,-1.414264679E0,-4.241005898E0,-6.575208902E-1,4.518695534E0
1.019674720E1,-1.319120169E0,-4.342342854E0,-5.883073807E-1,4.576256664E0
1.020674772E1,-1.230717778E0,-4.424250126E0,4.657397866E-1,4.615795595E0
1.021675293E1,-1.348754168E0,-4.474418640E0,5.137172937E-1,4.701432274E0
1.022674928E1,-1.271041512E0,-4.497211456E0,5.220554471E-1,4.702446097E0
1.023675501E1,-1.194521666E0,-4.472022057E0,4.918528795E-1,4.654866544E0
1.024674850E1,-1.123369217E0,-4.414129734E0,-4.909612238E-1,4.581216283E0
1.025674746E1,-7.468366623E-2,-4.323404789E0,-4.335774183E-1,4.345733079E0
1.026677897E1,6.739844084E-1,-4.213599205E0,-5.776727200E-1,4.306086276E0
1.027675251E1,7.444527149E-1,-3.577810764E0,-5.221486688E-1,3.691555085E0
1.028676876E1,8.039039373E-1,-3.546506405E0,-4.652618468E-1,3.666120266E0
1.029678793E1,8.437718153E-1,-3.537980080E0,-4.083900750E-1,3.660059613E0
1.030675610E1,8.700867891E-1,-3.544217110E0,-3.533933163E-1,3.666525982E0
1.031674881E1,8.524308205E-1,-3.579173565E0,-4.981750846E-1,3.712856061E0
1.032675110E1,8.067970276E-1,-3.634728432E0,-4.431123137E-1,3.749469394E0
1.033674902E1,7.574406862E-1,-3.710873127E0,1.137717962E0,3.954579361E0
1.034675110E1,7.121120691E-1,-4.310447693E0,1.233100057E0,4.539559303E0
1.035674850E1,6.820107698E-1,-4.345428467E0,1.337429881E0,4.597456464E0
1.036677194E1,7.464398146E-1,-4.406958580E0,2.035269737E0,4.911290994E0
1.037674511E1,7.950817347E-1,-4.400984764E0,2.073919296E0,4.929702132E0
1.038674876E1,1.360318899E0,-4.357077599E0,2.026370764E0,4.994073606E0
1.039674980E1,1.355879784E0,-4.291531086E0,1.936168313E0,4.899428210E0
1.040675267E1,1.357315540E0,-4.196397305E0,1.796286225E0,4.762215873E0
1.041674694E1,1.361643672E0,-3.526832581E0,1.067582846E0,3.928403578E0
1.042674798E1,1.362314582E0,-3.378502846E0,8.819035292E-1,3.748057675E0
1.043674720E1,1.353502393E0,-2.467596054E0,-7.283270955E-1,2.907139379E0
1.044674928E1,1.293248057E0,-2.324621201E0,-7.655262947E-1,2.768101294E0
1.045676079E1,1.201366067E0,-1.633202553E0,-1.000650287E0,2.260958204E0
1.046676928E1,1.086448193E0,-1.548593521E0,-1.034001946E0,2.155845911E0
1.047676944E1,9.384499788E-1,-1.472136497E0,-1.061581492E0,2.043239950E0
1.048674673E1,7.588857412E-1,-1.415448189E0,-1.055785418E0,1.921999998E0
1.049675011E1,8.481740952E-3,-1.400688171E0,-1.038268089E0,1.743559554E0
1.050674621E1,-9.932541847E-2,-1.447802544E0,-1.147778034E0,1.850241109E0
1.051674694E1,-2.011590004E-1,-1.543195724E0,-1.055001259E0,1.880145112E0
1.052674564E1,-2.891393900E-1,-2.297824860E0,-9.623520374E-1,2.507931840E0
1.053674980E1,-3.352190256E-1,-2.360682487E0,1.390103698E-1,2.388413173E0
1.054674902E1,-2.728619576E-1,-2.527157784E0,3.098402023E-1,2.560660278E0
1.055674954E1,-1.589777470E-1,-2.605562210E0,3.618355989E-1,2.635365886E0
1.056677480E1,5.717766285E-1,-2.673069000E0,3.650513291E-1,2.757805081E0
1.057675215E1,6.165554523E-1,-2.716554642E0,3.074641824E-1,2.802560253E0
1.058675032E1,6.518526077E-1,-2.703833580E0,-6.808605194E-1,2.863424331E0
1.059674590E1,6.562416553E-1,-2.617901325E0,-8.515922427E-1,2.830065336E0
1.060675110E1,6.086919308E-1,-1.882953644E0,-8.223158121E-1,2.142947406E0
1.061674902E1,4.948575497E-1,-1.071540833E0,-7.925953269E-1,1.421721176E0
1.062674772E1,-4.207029343E-1,4.100122452E-1,-7.615692616E-1,9.618153358E-1
1.063677350E1,-1.137460947E0,1.670513153E0,-7.300694585E-1,2.148821308E0
1.064674543E1,-2.517035484E0,3.481627464E0,7.722228765E-1,4.365034433E0
1.065682652E1,-2.512625933E0,5.012732506E0,1.530568600E0,5.812350341E0
1.066677355E1,-3.503580809E0,6.086997986E0,2.218624592E0,7.365386483E0
1.067674725E1,-3.661233425E0,6.812291145E0,2.308554888E0,8.071020165E0
1.068675006E1,-4.452692986E0,6.931316376E0,2.301096678E0,8.553634750E0
1.069675032E1,-4.440948009E0,7.715742111E0,2.177094936E0,9.164847948E0
1.070675084E1,-4.318062782E0,7.743995667E0,1.089651465E0,8.933223124E0
1.071675215E1,-4.055606365E0,7.775717735E0,3.160107732E-1,8.775510931E0
1.072674772E1,-1.880177855E0,7.716794968E0,-7.992425561E-1,7.982655072E0
1.073675084E1,-3.591417074E-1,7.621182442E0,-2.147087574E0,7.925994551E0
1.074675006E1,8.606280088E-1,7.456801414E0,-2.299989700E0,7.850765601E0
1.075674824E1,1.779769063E0,6.280927658E0,-3.033379316E0,7.198542925E0
1.076677506E1,2.044652462E0,5.163003922E0,-3.027250528E0,6.324670659E0
1.077674772E1,3.043928623E0,3.612116814E0,-3.006750107E0,5.599413857E0
1.078674824E1,3.193134785E0,1.670215607E0,-3.009405136E0,4.694917379E0
1.079674798E1,3.219091415E0,-6.475448608E-2,-3.620061874E0,4.844748771E0
1.080674902E1,3.082495213E0,-1.312244415E0,-3.596281052E0,4.914977064E0
1.081675631E1,2.016270161E0,-1.999743462E0,-3.573434591E0,4.564400733E0
1.082674772E1,1.253553391E0,-2.007424355E0,-3.505429983E0,4.229561208E0
1.083677308E1,1.063562155E0,-1.884010315E0,-3.406152010E0,4.035161811E0
1.084673662E1,9.654653072E-2,-4.661369324E-2,-3.284072399E0,3.285821905E0
1.085674673E1,-6.731998920E-2,-1.955699921E-2,-3.119968653E0,3.120756135E0
1.086677194E1,-1.455765009E0,1.285734177E0,-2.866912127E0,3.462881643E0
1.087675267E1,-1.460267544E0,1.455680847E0,-1.780393958E0,2.724186241E0
1.088674902E1,-1.660852194E0,2.182264328E0,-1.569244981E0,3.159626151E0
1.089674772E1,-1.631073356E0,2.148427010E0,-7.984360456E-1,2.813119092E0
1.090674954E1,-1.530912280E0,2.031612396E-2,-5.779064894E-1,1.636484361E0
1.091675006E1,-1.474795103E0,4.418182373E-2,-4.272532463E-1,1.536072253E0
1.092674954E1,-1.576540470E0,-3.984546661E-2,-3.321388364E-1,1.611640072E0
1.093674668E1,-1.479963899E0,-2.340793610E-2,-2.808363438E-1,1.506555716E0
1.094675136E1,-1.384184837E0,-1.632879257E0,-2.681695223E-1,2.157354219E0
1.095674746E1,-1.290058136E0,-1.657728195E0,-2.513930798E-1,2.115540414E0
1.096677168E1,-1.197642565E0,-1.625341415E0,-2.555205822E-1,2.035036412E0
1.097674720E1,-1.306380033E0,-1.547796249E0,-2.671180367E-1,2.042952292E0
1.098674954E1,-1.215672255E0,-2.878284454E-2,-2.992377281E-1,1.252290182E0
1.099677064E1,3.345296383E-1,-1.199340820E-2,-3.444337845E-1,4.803004816E-1
1.100674704E1,4.447876215E-1,5.134582520E-3,-3.815485239E-1,5.860389648E-1
1.101691965E1,5.682232380E-1,2.267742157E-2,-4.166844487E-1,7.049949244E-1
1.102674647E1,6.795703173E-1,-5.927276611E-2,-4.451775551E-1,8.145625405E-1
1.103674829E1,7.691824436E-1,-4.088211060E-2,-4.680151939E-1,9.013052759E-1
1.104675110E1,8.506388664E-1,-2.216815948E-2,-4.552609921E-1,9.650598320E-1
1.105675084E1,8.606651425E-1,1.563072205E-3,-4.257380962E-1,9.602082365E-1
1.106677220E1,8.379469514E-1,2.599525452E-2,-3.660317659E-1,9.147732507E-1
1.107675058E1,7.842568159E-1,-4.870319366E-2,-2.780781984E-1,8.335215887E-1
1.108674980E1,6.496993303E-1,-3.405570984E-3,-1.576441526E-1,6.685600172E-1
1.109674928E1,5.602074862E-1,2.175712585E-2,-1.255996227E-1,5.745268186E-1
1.110675788E1,4.605979919E-1,4.676151276E-2,-1.198714972E-1,4.782325011E-1
1.111676022E1,3.521462679E-1,-2.813053131E-2,-1.518400908E-1,3.845175340E-1
1.112676022E1,2.454633713E-1,-3.111839294E-3,-2.068574429E-1,3.210170585E-1
1.113675892E1,1.603127718E-1,2.176856995E-2,-2.821038961E-1,3.252024964E-1
1.114675761E1,9.902882576E-2,4.648303986E-2,-8.848392963E-1,8.915761110E-1
1.115674616E1,7.541906834E-2,7.079505920E-2,-8.892536163E-1,8.952496693E-1
1.116680110E1,7.530343533E-2,-5.066871643E-3,-8.665217161E-1,8.698023713E-1
1.117677793E1,1.011947393E-1,1.861953735E-2,-8.249648809E-1,8.313567930E-1
1.118674808E1,1.505908966E-1,4.178142548E-2,-7.671291828E-1,7.828859999E-1
1.119677553E1,2.186166048E-1,6.496620178E-2,-6.834673882E-1,7.205147451E-1
1.120673647E1,2.922419310E-1,8.853626251E-2,-5.804277658E-1,6.558509033E-1
1.121674907E1,3.367315531E-1,1.418113708E-2,-4.504731894E-1,5.625969586E-1
1.122675761E1,3.653123379E-1,3.968906403E-2,-3.386819363E-1,4.997337090E-1
1.123675866E1,3.548381329E-1,6.515884399E-2,-2.378736734E-1,4.321338450E-1
1.124675840E1,3.206591606E-1,9.047508240E-2,-1.567325592E-1,3.682025705E-1
1.125676491E1,2.538019419E-1,1.158866882E-1,-8.816623688E-2,2.926062807E-1
1.126679642E1,5.543100834E-2,6.132793427E-2,-5.342519283E-2,9.842745265E-2
1.127675892E1,-1.233510137E0,8.613872528E-2,-5.431473255E-2,1.237706438E0
1.128675944E1,-1.196815014E0,1.103782654E-1,-6.514036655E-2,1.203658094E0
1.129675918E1,-1.159971595E0,1.342144012E-1,-7.395684719E-2,1.170050094E0
1.130675918E1,-1.322331548E0,5.808448792E-2,-8.492529392E-2,1.326328329E0
1.131675814E1,-1.284702659E0,8.181571960E-2,-1.025241613E-1,1.291381406E0
1.132675814E1,6.586933136E-2,1.049709320E-1,-1.260019541E-1,1.767318811E-1
1.133675761E1,1.670912504E-1,1.275892258E-1,-1.644818783E-1,2.669321726E-1
1.134675761E1,8.849176168E-1,1.501131058E-1,-2.209705114E-1,9.243598326E-1
1.135676491E1,9.842771292E-1,7.272815704E-2,-3.031473160E-1,1.032467504E0
1.136681756E1,1.663084865E0,9.547138214E-2,-1.062760949E0,1.975962269E0
1.137692933E1,1.721205950E0,1.182708740E-1,-1.120488524E0,2.057190427E0
1.138674438E1,1.761590838E0,1.411876678E-1,-1.201998949E0,2.137273430E0
1.139674569E1,1.773130059E0,1.646909714E-1,-1.844828844E0,2.564080105E0
1.140674928E1,1.711389542E0,9.216403961E-2,-1.832203388E0,2.508847869E0
1.141674928E1,1.572019577E0,1.205301285E-1,-1.767279267E0,2.368343107E0
1.142674980E1,5.959305763E-1,1.209365845E0,-1.636025429E0,2.119971274E0
1.143674928E1,-1.643728018E-1,2.379846573E0,-7.315480709E-1,2.495165467E0
1.144674668E1,-1.511044979E0,3.233470917E0,5.270960331E-1,3.607827785E0
1.145674668E1,-1.496157408E0,4.330787659E0,2.043923616E0,5.017153823E0
1.146675136E1,-1.480526447E0,4.427952766E0,2.119869947E0,5.127628385E0
1.147675058E1,-2.990481853E0,4.495889664E0,2.187610388E0,5.825945828E0
1.148675032E1,-3.006801605E0,4.477100372E0,2.246420622E0,5.842233241E0
1.149674694E1,-2.950963974E0,4.374814034E0,2.095423698E0,5.677850533E0
1.150674954E1,-2.818525076E0,3.655767441E0,2.104411364E0,5.073190946E0
1.151674876E1,-2.673924446E0,3.485822678E0,2.060141087E0,4.852320371E0
1.152674772E1,-2.540790796E0,2.702690125E0,2.018885136E0,4.223274674E0
1.153674746E1,-2.412606239E0,2.630468369E0,1.981852174E0,4.082618124E0
1.154675548E1,-2.254287958E0,2.600407600E0,1.748371482E0,3.860147241E0
1.155675610E1,-2.117896557E0,2.631838799E0,1.718537807E0,3.790175917E0
1.156673532E1,-2.005739689E0,3.261301041E0,1.692109346E0,4.185965864E0
1.157674621E1,-1.910233259E0,3.367897034E0,1.668890238E0,4.216268037E0
1.158675058E1,-1.824738860E0,4.179618835E0,1.647306681E0,4.848969459E0
1.159674485E1,-1.748766184E0,4.239997864E0,1.429219365E0,4.804001774E0
1.160675084E1,-1.669299841E0,4.252479553E0,1.415250540E0,4.782580726E0
1.161675163E1,-1.604760289E0,4.203264236E0,1.403888464E0,4.713129390E0
1.162674720E1,-1.542842627E0,4.080598831E0,1.394897699E0,4.580108054E0
1.163675006E1,-1.416492701E0,3.082022667E0,1.227448106E0,3.607207250E0
1.164674772E1,-3.180148602E-1,2.018423080E0,1.222159386E0,2.380932327E0
1.165675058E1,-2.235999703E-1,1.881880760E0,1.220291972E0,2.254015226E0
1.166674954E1,-1.320144534E-1,1.127541542E0,1.220278859E0,1.666690805E0
1.167674798E1,-4.342426360E-2,1.078830719E0,1.222090840E0,1.630726037E0
1.168674798E1,-1.570155025E-1,1.040699959E0,1.024722457E0,1.468933758E0
1.169675032E1,1.666667581E0,9.876661301E-1,1.030461073E0,2.194337082E0
1.170674642E1,1.759162664E0,8.970813751E-1,1.038047314E0,2.230907999E0
1.171674876E1,1.847948670E0,-2.520580292E-1,1.049151540E0,2.139898711E0
1.172676350E1,1.904085040E0,-2.339496613E-1,-1.906197667E-1,1.927850663E0
1.173674907E1,1.907023072E0,-3.153409958E-1,-2.816582322E-1,1.953332614E0
1.174673871E1,1.839031935E0,-2.966442108E-1,-3.825751543E-1,1.901683463E0
1.175674517E1,1.665138245E0,-2.168389320E0,-4.856515527E-1,2.776770615E0
1.176675006E1,-1.243397966E-1,-3.008638382E0,-1.208020806E0,3.244484484E0
1.177674850E1,-1.362553388E-1,-3.815582275E0,-1.306778669E0,4.035455874E0
1.178675058E1,-3.473951221E-1,-4.506573200E0,-1.415346146E0,4.736358315E0
1.179675267E1,-3.575085998E-1,-4.642860889E0,-1.478196979E0,4.885594738E0
1.180674642E1,-3.663028479E-1,-5.559022427E0,-1.495711327E0,5.768367229E0
1.181675032E1,-3.375924826E-1,-5.712489128E0,-1.482872009E0,5.911464296E0
1.182674928E1,-4.925163984E-1,-5.754925728E0,-1.400246382E0,5.943267827E0
1.183675006E1,-4.490568638E-1,-5.773794174E0,-1.262006640E0,5.927141975E0
1.184675293E1,-4.056092501E-1,-5.757184982E0,-1.074055314E0,5.870544489E0
1.185674668E1,-3.633495569E-1,-5.695260525E0,-1.606593132E-1,5.709100346E0
1.186674850E1,-3.233543634E-1,-5.588431835E0,5.978262424E-2,5.598098104E0
1.187674746E1,-4.828891754E-1,-5.447597980E0,1.320273399E0,5.626066793E0
1.188674694E1,-4.421111941E-1,-4.577996731E0,1.430048347E0,4.816487792E0
1.189675319E1,-4.020826817E-1,-4.441415310E0,2.804741383E0,5.268245881E0
1.190682626E1,-3.620877266E-1,-3.634014606E0,3.028770924E0,4.744536120E0
1.191675923E1,-3.217588663E-1,-3.465669632E0,4.090647697E0,5.371014183E0
1.192674663E1,8.661880493E-1,-2.235387802E0,4.252852917E0,4.882007609E0
1.193674673E1,9.968728423E-1,-1.306968689E0,5.187894821E0,5.442074539E0
1.194674928E1,2.001767159E0,2.745437622E-2,5.233198166E0,5.603051717E0
1.195674746E1,2.160985947E0,3.357791901E-2,5.203335285E0,5.634331001E0
1.196674746E1,3.247511387E0,1.871921539E0,5.134433746E0,6.357108647E0
1.197675241E1,3.302220583E0,2.548139572E0,4.982174873E0,6.497672085E0
1.198674980E1,3.948507786E0,2.624445915E0,4.754590034E0,6.714503443E0
1.199675397E1,3.943154573E0,2.578803062E0,4.471046925E0,6.495302443E0
1.200674850E1,3.878699064E0,1.729955673E0,4.194019318E0,5.968823259E0
1.201675397E1,3.765911341E0,-1.216907501E-1,3.246655941E0,4.973697987E0
1.202674928E1,3.638796091E0,-9.320449829E-2,2.387629271E0,4.353193954E0
1.203674772E1,3.468584776E0,-1.500505447E0,1.411416411E0,4.034190530E0
1.204674954E1,3.244200945E0,-1.641132355E0,-9.734945744E-2,3.636981179E0
1.205674746E1,2.330814123E0,-1.679397583E0,-1.984402984E-1,2.879661312E0
1.206674746E1,1.297810555E0,-1.531057358E0,-4.895242453E-1,2.065933894E0
1.207674772E1,-5.761408806E-2,3.401279449E-2,-1.651213646E0,1.652568533E0
1.208687965E1,-1.884119511E0,1.192125320E0,-1.805661678E0,2.869056153E0
1.209673751E1,-1.959003210E0,2.532173157E0,-1.810877919E0,3.678161675E0
1.210673584E1,-2.028414965E0,3.776834488E0,-5.997008085E-1,4.328808968E0
1.211674569E1,-2.292742252E0,4.813304901E0,-7.226457596E-1,5.380221929E0
1.212674876E1,-2.322217464E0,4.964182854E0,-6.482106447E-1,5.518693903E0
1.213674928E1,-2.313115120E0,4.994646072E0,-5.747131705E-1,5.534192459E0
1.214675267E1,-2.245480537E0,4.820717812E0,-5.010244250E-1,5.341584834E0
1.215674329E1,-2.099987745E0,3.213559151E0,-4.250724912E-1,3.862330588E0
1.216674798E1,-1.019162536E0,1.823051453E0,-5.494464040E-1,2.159652802E0
1.217674902E1,-8.244394064E-1,2.549648285E-2,-2.367889404E0,2.507439059E0
1.218674642E1,-8.363754749E-1,-1.699968338E0,-3.105149984E0,3.637495390E0
1.219675084E1,-1.745568514E0,-1.872454166E0,-3.192736626E0,4.092268467E0
1.220674694E1,-1.827666283E0,-2.548708916E0,-3.807181597E0,4.932637518E0
1.221674876E1,-1.714279413E0,-2.514636993E0,-3.818825722E0,4.883193935E0
1.222674824E1,-1.612565875E0,-2.375457764E0,-3.843254566E0,4.797267342E0
1.223674798E1,-1.523455858E0,-1.181591034E0,-3.829651833E0,4.287576038E0
1.224674746E1,-1.436277151E0,7.914543152E-3,-3.761592865E0,4.026479303E0
1.225674616E1,-1.550696850E0,-7.848262787E-2,-3.624339104E0,3.942924572E0
1.226677532E1,-1.466651201E0,-6.307411194E-2,-3.453893900E0,3.752922483E0
1.227675225E1,-1.383934379E0,-4.527664185E-2,-3.224442959E0,3.509181775E0
1.228673319E1,4.211080074E-1,-2.535247803E-2,-2.421922684E0,2.458390569E0
1.229674621E1,5.288683176E-1,-3.580093384E-3,-2.195959091E0,2.258749841E0
1.230675220E1,6.162315607E-1,-7.998085022E-2,-1.972383738E0,2.067954516E0
1.231675032E1,6.701787710E-1,-5.494594574E-2,-1.771506786E0,1.894833749E0
1.232675136E1,6.658506393E-1,-2.872753143E-2,-1.566414475E0,1.702303338E0
1.233674798E1,5.364651680E-1,3.985404968E-3,-8.408865929E-1,9.974472527E-1
1.234675084E1,-2.578152418E-1,3.649616241E-2,-7.257856131E-1,7.710806864E-1
1.235675944E1,-1.356504440E0,-1.117515564E-2,-6.047048569E-1,1.485226294E0
1.236675918E1,-1.343696237E0,2.074337006E-2,-5.773762465E-1,1.462639119E0
1.237675814E1,-1.329602957E0,5.211544037E-2,-5.661157370E-1,1.446045321E0
1.238675970E1,-1.314424038E0,7.999420166E-2,-5.757124424E-1,1.437203688E0
1.239676386E1,-1.498219490E0,7.892608643E-3,-5.917282104E-1,1.610858842E0
1.240675944E1,-1.452973843E0,3.147125244E-2,-5.980566740E-1,1.571558212E0
1.241676100E1,-1.371619821E0,4.977035522E-2,-6.057342291E-1,1.500243972E0
1.242675892E1,-1.290231943E0,6.809043884E-2,-6.000635624E-1,1.424573990E0
1.243675735E1,-1.210263968E0,8.662986755E-2,-5.632126331E-1,1.337704031E0
1.244677985E1,-1.331469417E0,5.590438843E-3,-5.094356537E-1,1.425611008E0
1.245675840E1,-1.252943158E0,2.477645874E-2,-4.443105459E-1,1.329621108E0
1.246686527E1,-1.175725460E0,4.433250427E-2,-3.936043978E-1,1.240653114E0
1.247675688E1,-1.100069761E0,6.402397156E-2,-3.570060730E-1,1.158320286E0
1.248675501E1,-1.027163863E0,8.398628235E-2,-3.376193047E-1,1.084484252E0
1.249676074E1,-1.154930949E0,4.286766052E-3,-3.136481047E-1,1.196770240E0
1.250675840E1,-1.082510948E0,2.451610565E-2,-2.906682491E-1,1.121124000E0
1.251675970E1,-1.011391640E0,4.481601715E-2,-2.589404583E-1,1.044974490E0
1.252675788E1,-9.414165616E-1,6.512165070E-2,-2.198663950E-1,9.689412797E-1
1.253675944E1,-1.033820391E0,5.784988403E-3,-1.224241257E-1,1.041059908E0
1.254675553E1,-9.675174952E-1,2.644348145E-2,-6.359982491E-2,9.699661328E-1
1.255675761E1,-9.007998109E-1,4.697990417E-2,-2.050960064E-2,9.022571997E-1
1.256675892E1,-8.351109624E-1,6.746387482E-2,1.333105564E-2,8.379375937E-1
1.257675579E1,-7.703996897E-1,8.782386780E-2,3.864705563E-2,7.763519231E-1
1.258675501E1,-9.076722264E-1,8.322715759E-3,4.111325741E-2,9.086409842E-1
1.259676256E1,-8.443202972E-1,2.837753296E-2,3.779792786E-2,8.456422010E-1
1.260675136E1,-7.819452882E-1,4.814434052E-2,2.930641174E-2,7.839739645E-1
1.261674642E1,-7.207843661E-1,6.777858734E-2,2.664995193E-2,7.244544563E-1
1.262677558E1,-6.604395509E-1,8.742332458E-2,5.437397957E-2,6.684158643E-1
1.263674558E1,-8.019232750E-1,7.332801819E-3,1.080367565E-1,8.092012418E-1
1.264676538E1,-7.426140308E-1,2.714252472E-2,1.751092672E-1,7.634628812E-1
1.265674751E1,-6.840854883E-1,4.690933228E-2,2.388448715E-1,7.260993826E-1
1.266674439E1,-6.265351772E-1,6.654739380E-2,2.893284559E-1,6.933151083E-1
1.267674902E1,-5.712064505E-1,8.625316620E-2,3.336207867E-1,6.670976293E-1
1.268674954E1,-7.157890201E-1,6.145477295E-3,3.675563335E-1,8.046672272E-1
1.269675761E1,-6.594888568E-1,2.536582947E-2,3.896348476E-1,7.664100026E-1
1.270674954E1,-6.038474441E-1,4.417324066E-2,3.724391460E-1,7.108402974E-1
1.271675267E1,-5.088587403E-1,8.263111115E-2,2.222318649E-1,5.613841109E-1
1.272674902E1,-6.554706693E-1,1.447677612E-3,1.116281748E-1,6.649095754E-1
1.273675006E1,-6.026774645E-1,2.027893066E-2,-5.535734892E-1,8.185810706E-1
1.274675709E1,-5.488688350E-1,3.906440735E-2,-5.949860811E-1,8.104267164E-1
1.275674824E1,-4.886304438E-1,5.704212189E-2,-6.318054199E-1,8.007444055E-1
1.276675058E1,-4.298547506E-1,7.478713989E-2,-6.767953634E-1,8.052454203E-1
1.277674668E1,-5.708144903E-1,-5.993843079E-3,-7.241168022E-1,9.220684637E-1
1.278674850E1,-5.114381313E-1,1.342105865E-2,-7.606076002E-1,9.166640652E-1
1.279675215E1,-4.533756375E-1,3.334331512E-2,-7.958247662E-1,9.165142136E-1
1.280675683E1,-3.964565098E-1,5.788135529E-2,-8.035372496E-1,8.978864777E-1
1.281674397E1,-3.410785794E-1,8.223342896E-2,-7.997094393E-1,8.732881091E-1
1.282677199E1,-4.837191701E-1,8.112907410E-3,-8.001487255E-1,9.350337094E-1
1.283673678E1,-4.277065992E-1,3.390407562E-2,-7.942245007E-1,9.027042588E-1
1.284676834E1,-3.731167018E-1,5.962371826E-2,-7.875409126E-1,8.734939897E-1
1.285674798E1,-3.198546469E-1,8.521652222E-2,-7.755723000E-1,8.432563331E-1
1.286674824E1,-2.679288387E-1,1.107110977E-1,-7.733995914E-1,8.259477815E-1
1.287674616E1,-4.138382077E-1,3.776645660E-2,-7.651536465E-1,8.707172159E-1
1.288674616E1,-3.609708548E-1,6.498813629E-2,-7.697012424E-1,8.526214978E-1
1.289675657E1,7.289974689E-1,1.116304398E-1,-1.436692953E0,1.614925790E0
1.290674928E1,1.339866877E0,1.400451660E-1,-1.480415821E0,2.001621068E0
1.291674850E1,1.404013753E0,6.874942780E-2,-2.074425936E0,2.505837997E0
1.292674746E1,1.473071218E0,9.764385223E-2,-2.119932652E0,2.583328779E0
1.293674928E1,1.528514385E0,2.356297493E0,-2.164222479E0,3.545751407E0
1.294675475E1,1.550672889E0,3.252454758E0,-2.182491541E0,4.212637854E0
1.295674772E1,1.467168808E0,4.152250290E0,-2.128307819E0,4.891161514E0
1.296674824E1,1.263665199E0,4.961316109E0,-1.945886850E0,5.477041437E0
1.297674850E1,-5.236607194E-1,5.112686157E0,-8.062212467E-1,5.202285362E0
1.298675006E1,-5.386008024E-1,5.820378304E0,1.824686527E-1,5.848092786E0
1.299676256E1,-1.673775554E0,5.818335533E0,1.073228836E0,6.148688731E0
1.300676131E1,-2.503494501E0,5.759605408E0,1.836756706E0,6.543257168E0
1.301674465E1,-2.682157516E0,5.088342667E0,2.784499884E0,6.390511688E0
1.302674668E1,-3.484859943E0,4.920046806E0,2.824593544E0,6.658035603E0
1.303675423E1,-3.539538860E0,3.617731094E0,2.852531195E0,5.809754541E0
1.304675371E1,-3.468144178E0,2.741021156E0,2.849936485E0,5.259596847E0
1.305674850E1,-3.348022699E0,1.907919884E0,2.795608759E0,4.760760718E0
1.306674954E1,-2.560969114E0,1.713045120E0,2.516290188E0,3.978040057E0
1.307674902E1,-2.352932453E0,-2.820110321E-2,2.443379879E0,3.392225179E0
1.308675188E1,-1.402215123E0,-1.690196991E-2,2.415091276E0,2.792697406E0
1.309675553E1,-2.066357583E-1,-2.027893066E-2,2.360947371E0,2.370059505E0
1.310674746E1,-2.929065824E-1,-1.200246811E-1,2.115497351E0,2.139048674E0
1.311674954E1,-1.827246249E-1,-1.167287827E-1,2.078210115E0,2.089490651E0
1.312674876E1,-7.530810684E-2,-1.115989685E-1,2.044601440E0,2.049029207E0
1.313674928E1,2.220258117E-3,1.446829796E0,2.022650242E0,2.486852506E0
1.314675423E1,7.591074705E-2,1.434430122E0,2.002232075E0,2.464200783E0
1.315674433E1,-8.499670029E-2,1.392874718E0,1.782481551E0,2.263750185E0
1.316674876E1,-4.564623535E-2,1.306813240E0,1.765805244E0,2.197251143E0
1.317676980E1,-7.616879418E-3,-1.771106720E-1,1.750697613E0,1.759650061E0
1.318674657E1,3.013220243E-2,-1.652154922E-1,1.737073779E0,1.745173178E0
1.319675116E1,6.654948741E-2,-1.528453827E-1,1.724882483E0,1.732919539E0
1.320675110E1,1.241294622E0,-2.397737503E-1,5.807237625E-1,1.391238254E0
1.321674954E1,1.350051641E0,-2.262973785E-1,5.432873964E-1,1.472756305E0
1.322674902E1,2.140777111E0,-2.124071121E-1,1.503148794E0,2.624404641E0
1.323674980E1,2.234062195E0,-1.981697083E-1,1.496916056E0,2.696490831E0
1.324675553E1,2.923570395E0,-1.835880280E-1,1.491929412E0,3.287373083E0
1.325674954E1,2.943441629E0,-2.680368423E-1,1.288580894E0,3.224303506E0
1.326674433E1,3.037159920E0,-2.319145203E-1,1.326154947E0,3.322169723E0
1.327674746E1,3.005712509E0,-2.144622803E-1,1.325005412E0,3.291799067E0
1.328675397E1,2.945641756E0,-1.959943771E-1,1.324667811E0,3.235732369E0
1.329675501E1,2.803982735E0,-2.751865387E-1,1.125822663E0,3.034060559E0
1.330674928E1,2.583472252E0,7.803621292E-1,1.127963781E0,2.924995081E0
1.331674746E1,1.504117131E0,7.699470520E-1,1.130782962E0,2.033188854E0
1.332674720E1,6.074020863E-1,-2.098407745E-1,-4.326833487E-1,7.747162869E-1
1.333674876E1,-8.298858404E-1,-1.842651367E-1,-4.940702915E-1,9.832444262E-1
1.334675293E1,-1.085291743E0,-2.576351166E-1,-5.413208008E-1,1.239863795E0
1.335680928E1,-1.137131095E0,-2.301616669E-1,-5.448106527E-1,1.281741069E0
1.336675298E1,-1.185305715E0,-1.454494476E0,-4.916989803E-1,1.939657626E0
1.337674256E1,-1.230980754E0,-1.606515884E0,9.877982736E-1,2.252099539E0
1.338674491E1,-1.237562776E0,-2.730916977E0,9.957824945E-1,3.159280287E0
1.339675501E1,-1.411907911E0,-2.882570744E0,8.064919114E-1,3.309550913E0
1.340675110E1,-1.334914565E0,-3.928546906E0,8.178801537E-1,4.228995818E0
1.341675006E1,-1.259695411E0,-4.040473938E0,8.298308253E-1,4.312873911E0
1.342675110E1,-1.183908701E0,-4.770339966E0,8.428642750E-1,4.986802922E0
1.343674902E1,1.642502546E-1,-4.831435680E0,8.578484654E-1,4.909750795E0
1.344675631E1,3.869407177E-1,-4.938586712E0,7.172238231E-1,5.005374296E0
1.345674746E1,1.075148225E0,-4.960429192E0,7.372480631E-1,5.128872798E0
1.346675188E1,1.133406162E0,-4.958266258E0,1.775347352E0,5.387102379E0
1.347677402E1,1.206803441E0,-4.945088387E0,1.854614735E0,5.417551985E0
1.348674850E1,1.236017346E0,-4.911175728E0,2.559419394E0,5.674329347E0
1.349675397E1,1.267028213E0,-4.859325409E0,2.650702477E0,5.678435307E0
1.350675032E1,1.298267007E0,-4.791558266E0,3.480818033E0,6.063053852E0
1.351674746E1,1.304258823E0,-4.706513405E0,3.563377857E0,6.045661358E0
1.352674694E1,1.859246373E0,-4.616524220E0,4.109669209E0,6.454337607E0
1.353688329E1,1.824826837E0,-4.519640446E0,4.066106796E0,6.347469356E0
1.354674131E1,1.801552296E0,-4.417409897E0,3.984468699E0,6.215713288E0
1.355674407E1,1.773062706E0,-3.689766884E0,3.870105505E0,5.633457876E0
1.356674621E1,1.740084052E0,-3.566106319E0,3.686024666E0,5.415882627E0
1.357675715E1,1.693438411E0,-2.684557915E0,3.448826790E0,4.687109032E0
1.358675188E1,1.594189882E0,-1.924476147E0,2.659062386E0,3.649063248E0
1.359676126E1,1.469323635E0,-1.056431770E0,2.419569492E0,3.021469271E0
1.360675970E1,1.306029558E0,1.821622849E-1,2.196623802E0,2.562040678E0
1.361675866E1,1.120160103E0,2.361087799E-1,2.002458334E0,2.306587391E0
1.362675866E1,8.559892178E-1,2.335071564E0,1.820271730E0,3.081990578E0
1.363675761E1,1.842300892E-1,3.052186966E0,1.659685016E0,3.479129252E0
1.364675944E1,6.578183174E-2,3.791553497E0,1.501472950E0,4.078556876E0
1.365675996E1,-8.244299889E-2,4.596240997E0,1.344728231E0,4.789626517E0
1.366675970E1,-9.137771130E-1,5.453412056E0,1.166620493E0,5.651167582E0
1.367679199E1,-1.029732227E0,6.271160126E0,4.900531769E-1,6.374005797E0
1.368675840E1,-1.149812937E0,6.433457375E0,4.108389616E-1,6.548299950E0
1.369675944E1,-2.731493473E0,7.232620239E0,3.186644316E-1,7.737790327E0
1.370675840E1,-2.653794289E0,7.148386955E0,1.959998608E-1,7.627612741E0
1.371674709E1,-2.568614483E0,6.159507751E0,6.394731998E-2,6.673934774E0
1.372673855E1,-2.674234629E0,4.866989136E0,-1.630037427E0,5.787584653E0
1.373674392E1,-2.553395748E0,3.127508163E0,-1.604449749E0,4.344582391E0
1.374674256E1,-2.436107635E0,1.940832138E-1,-1.553932071E0,2.896030660E0
1.375675788E1,-2.320389509E0,-8.440923691E-1,-1.503716588E0,2.890996883E0
1.376674746E1,-2.154024363E0,-2.582864761E0,-1.454973221E0,3.664417881E0
1.377680163E1,-2.196216583E0,-3.791368008E0,-3.060852051E0,5.344778192E0
1.378675944E1,-2.045421839E0,-3.920492172E0,-3.741651058E0,5.792578184E0
1.379677064E1,-1.917544842E0,-3.923352242E0,-3.803504944E0,5.791055248E0
1.380675788E1,-1.771700144E0,-2.352607250E0,-4.623517990E0,5.481842836E0
1.381675866E1,-1.873601794E0,-1.208648682E0,-4.655463219E0,5.161836214E0
1.382675631E1,-1.778763175E0,4.895877838E-2,-4.672749996E0,5.000098791E0
1.383676152E1,-1.685284853E0,4.839038849E-2,-4.601264477E0,4.900424619E0
1.384675163E1,-1.593735695E0,4.668426514E-2,-4.461952209E0,4.738268714E0
1.385674824E1,-1.503502607E0,1.742218018E0,-4.263048172E0,4.844525098E0
1.386674954E1,1.672744751E-1,1.709452629E0,-4.020251751E0,4.371799765E0
1.387677090E1,3.094929457E-1,1.617026329E0,-3.759498596E0,4.104191726E0
1.388675371E1,4.590737820E-1,9.610471725E-1,-2.891028643E0,3.080975011E0
1.389674621E1,5.745335817E-1,-5.207061768E-2,-2.697707415E0,2.758699962E0
1.390674142E1,6.339401007E-1,-4.131126404E-2,-2.501065493E0,2.580487409E0
1.391674501E1,6.259955168E-1,-1.279706955E-1,-2.287528992E0,2.375086477E0
1.392674829E1,4.949803352E-1,-1.040220261E-1,-2.084174156E0,2.144669678E0
1.393675527E1,-2.574970722E-1,-7.876300812E-2,-1.928549767E0,1.947257701E0
1.394674746E1,-3.628976345E-1,-5.334663391E-2,-1.805845976E0,1.842720881E0
1.395674798E1,-1.326720357E0,-2.754783630E-2,-1.692892432E0,2.151006875E0
1.396675293E1,-1.502252460E0,-1.013994217E-1,-1.582530856E0,2.184364485E0
1.397677246E1,-1.477000952E0,-7.518959045E-2,-1.477715731E0,2.090652785E0
1.398675579E1,-1.411115527E0,-2.898025513E-2,-1.335455656E0,1.943071974E0
1.399674954E1,-1.361226559E0,-6.223678589E-3,-1.223829150E0,1.830501097E0
1.400675110E1,-1.507853508E0,-8.362770081E-2,-1.107707262E0,1.872867099E0
1.401674980E1,-1.417935610E0,-6.622123718E-2,-9.973990321E-1,1.734857768E0
1.402674720E1,-1.330003262E0,-4.839229584E-2,-9.174187779E-1,1.616449103E0
1.403675136E1,-1.242417932E0,-3.044223785E-2,-8.546471000E-1,1.508293974E0
1.404675058E1,-1.156755686E0,-1.217651367E-2,-8.068522811E-1,1.410405115E0
1.405674746E1,-1.272379398E0,-9.350013733E-2,-7.928587198E-1,1.502104044E0
1.406674694E1,-1.188325644E0,-7.489299774E-2,-8.136714101E-1,1.442146997E0
1.407681579E1,-1.106078267E0,-5.609321594E-2,-8.640077114E-1,1.404658288E0
1.408676574E1,-1.025569916E0,-3.702831268E-2,-9.245566130E-1,1.381292756E0
1.409674350E1,-9.467355609E-1,-1.772785187E-2,-1.500097156E0,1.773954333E0
1.410674699E1,-1.069023967E0,-9.797477722E-2,-1.478834271E0,1.827392158E0
1.411674876E1,-9.928786755E-1,-7.802963257E-2,-1.442654967E0,1.753040228E0
1.412675110E1,-9.182460308E-1,-5.793094635E-2,-1.374098659E0,1.653686455E0
1.413675397E1,-8.450677991E-1,-3.770542145E-2,-1.272509456E0,1.528018848E0
1.414674928E1,-7.732662559E-1,-1.695919037E-2,-1.153575420E0,1.388871688E0
1.415674355E1,-9.021842480E-1,-9.378528595E-2,-1.021032333E0,1.365737575E0
1.416675319E1,-7.925226688E-1,-5.057525635E-2,-2.996748686E-1,8.487962441E-1
1.417674876E1,-7.241342068E-1,-2.731513977E-2,-2.243627310E-1,7.585875700E-1
1.418675475E1,-6.569691896E-1,-4.026412964E-3,-1.699786186E-1,6.786143669E-1
1.419675006E1,-7.904872894E-1,-8.048057556E-2,-1.535906792E-1,8.092820117E-1
1.420674928E1,-7.251434922E-1,-5.694389343E-2,-1.655768156E-1,7.459834939E-1
1.421675032E1,-6.610969901E-1,-3.719425201E-2,-2.077791691E-1,6.939775399E-1
1.422674798E1,-5.980920196E-1,-1.742267609E-2,-2.634340525E-1,6.537699240E-1
1.423675215E1,-5.360951424E-1,2.360343933E-3,-3.259861469E-1,6.274317022E-1
1.424674772E1,-6.761241555E-1,-7.751846313E-2,-3.946318626E-1,7.866939003E-1
1.425674569E1,-6.154667735E-1,-5.747222900E-2,-4.634585381E-1,7.725905920E-1
1.426678465E1,-5.557171106E-1,-3.742885590E-2,-5.179250240E-1,7.605713358E-1
1.427678496E1,-4.968411624E-1,-1.739025116E-2,-5.500351191E-1,7.414122967E-1
1.428676470E1,-4.403678775E-1,2.837181091E-3,-5.668020248E-1,7.177718666E-1
1.429674543E1,-5.841144323E-1,-7.630348206E-2,-5.682523251E-1,8.184879940E-1
1.430675032E1,-5.269781947E-1,-5.508613586E-2,-5.605993271E-1,7.713702779E-1
1.431675006E1,-4.705913961E-1,-3.345012665E-2,-5.497806072E-1,7.244542008E-1
1.432675110E1,-4.149245322E-1,-1.140213013E-2,-5.457439423E-1,6.856594100E-1
1.433675866E1,-3.614818454E-1,1.128196716E-2,-5.415356159E-1,6.511967680E-1
1.434675136E1,-4.682635963E-1,-4.578208923E-2,-5.910470486E-1,7.554491438E-1
1.435675163E1,-4.081959724E-1,-2.259731293E-2,-6.206332445E-1,7.431824908E-1
1.436674902E1,-3.495975435E-1,2.031326294E-4,-6.670593023E-1,7.531179167E-1
1.437674980E1,-2.924307585E-1,2.261638641E-2,-6.990222931E-1,7.580629365E-1
1.438675215E1,-4.348596931E-1,-5.358982086E-2,-7.231225967E-1,8.455064231E-1
1.439674590E1,-3.770623505E-1,-3.015613556E-2,-7.400680780E-1,8.311354696E-1
1.440674668E1,-3.206158280E-1,-6.984710693E-3,-7.458187342E-1,8.118428910E-1
1.441674772E1,-2.653475106E-1,1.608943939E-2,-7.458372116E-1,7.917962602E-1
1.442674954E1,8.577399254E-1,3.915309906E-2,-7.355765104E-1,1.130629713E0
1.443677241E1,9.060714245E-1,-3.598213196E-2,-7.205725908E-1,1.158224934E0
1.444676668E1,9.658358693E-1,-1.111602783E-2,-6.968261003E-1,1.191020196E0
1.445674814E1,1.040099859E0,1.366138458E-2,-6.755697727E-1,1.240318051E0
1.446675454E1,1.097933292E0,3.832149506E-2,-6.516952515E-1,1.277353809E0
1.447674725E1,1.125328302E0,6.278705597E-2,-6.261906624E-1,1.289348963E0
1.448675553E1,1.089645267E0,-9.820938110E-3,-5.951330662E-1,1.241614523E0
1.449674772E1,1.051467776E0,1.745796204E-2,-5.493941307E-1,1.186475105E0
1.450674876E1,1.002715588E0,4.477214813E-2,-4.913301468E-1,1.117518862E0
1.451674798E1,9.369072318E-1,7.283020020E-2,-4.199841022E-1,1.029313385E0
1.452674980E1,7.840170860E-1,2.096366882E-2,-2.891345024E-1,8.358953446E-1
1.453675683E1,6.688416600E-1,4.893779755E-2,-2.196958065E-1,7.056984637E-1
1.454674590E1,5.746882558E-1,7.679367065E-2,-1.469712257E-1,5.981340990E-1
1.455675423E1,5.038805604E-1,1.044607162E-1,-1.010689735E-1,5.244259698E-1
1.456674824E1,4.634244442E-1,1.317977905E-1,-7.430672646E-2,4.874980643E-1
1.457674824E1,4.396182299E-1,5.862426758E-2,-6.618857384E-2,4.484215874E-1
1.458675241E1,4.599745274E-1,8.482837677E-2,-6.911158562E-2,4.728095077E-1
1.459674694E1,5.167064667E-1,1.102027893E-1,-9.155654907E-2,5.362022279E-1
1.460675241E1,1.132583022E0,1.351842880E-1,-1.449949741E-1,1.149801129E0
1.461675402E1,1.172327757E0,1.599817276E-1,-2.297732830E-1,1.205297592E0
1.462675808E1,1.194635868E0,8.477878571E-2,-9.402883053E-1,1.522657019E0
1.463680131E1,1.192012548E0,1.828961372E0,-1.005283117E0,2.403453300E0
1.464675871E1,1.143239021E0,2.555908203E0,-1.104964733E0,3.010084594E0
1.465674746E1,1.054360390E0,3.309017181E0,-1.806730747E0,3.914785630E0
1.466674954E1,9.020295143E-1,4.017830849E0,-1.812731028E0,4.499179453E0
1.467674980E1,5.334377289E-2,4.172483444E0,-1.770344496E0,4.532833913E0
1.468675501E1,-9.053003788E-2,5.069805145E0,-1.673921347E0,5.339768963E0
1.469675215E1,-1.193914175E0,5.105154991E0,-8.568634987E-1,5.312462103E0
1.470674902E1,-1.136063814E0,5.021284103E0,4.806809425E-1,5.170588864E0
1.471675084E1,-1.313625097E0,4.308342934E0,1.162310362E0,4.651708837E0
1.472675110E1,-1.288964868E0,4.139538765E0,1.287373304E0,4.522669747E0
1.473675892E1,-1.233300209E0,2.949568748E0,1.387733579E0,3.485224482E0
1.474674928E1,-2.600828648E0,2.261246681E0,1.431222200E0,3.731748008E0
1.475674824E1,-2.581002235E0,2.095973015E0,1.445268750E0,3.625393383E0
1.476674928E1,-2.568838596E0,1.150841713E0,1.383277416E0,3.136371278E0
1.477674746E1,-2.548246861E0,1.060178757E0,1.278773189E0,3.041841864E0
1.478675189E1,-2.521445751E0,-5.356788635E-3,1.183582425E0,2.785423617E0
1.479677168E1,-2.473129511E0,-3.707885742E-3,1.113228083E0,2.712132019E0
1.480676157E1,-2.408822298E0,1.481056213E-3,1.079919815E0,2.639820802E0
1.481680246E1,-2.289968491E0,-9.472274780E-2,1.070991635E0,2.529812477E0
1.482673985E1,-2.172802687E0,-8.929729462E-2,1.089484215E0,2.432287273E0
1.483676022E1,-2.050025225E0,9.250335693E-1,2.103723526E0,3.079601143E0
1.484675605E1,-1.911002994E0,9.450817108E-1,2.106876373E0,2.997338809E0
1.485675892E1,-1.743466139E0,9.471998215E-1,2.110831022E0,2.896975886E0
1.486675892E1,-5.103924870E-1,9.336099625E-1,1.915550232E0,2.191223572E0
1.487675866E1,-4.047180712E-1,9.162473679E-1,8.680213690E-1,1.325430893E0
1.488675892E1,-2.625087500E-1,-1.194972992E-1,1.966761351E-1,3.491016334E-1
1.489675735E1,-1.648532450E-1,-1.059226990E-1,1.563512087E-1,2.506828893E-1
1.490676048E1,-2.722155154E-1,-1.914405823E-1,1.236755848E-1,3.550301869E-1
1.491675840E1,-2.234170139E-1,-1.758680344E-1,1.070225239E-1,3.038067613E-1
1.492675892E1,9.078469276E-1,-1.600856781E-1,1.098185778E-1,9.283714711E-1
1.493676022E1,9.867166877E-1,-1.440935135E-1,1.296396255E-1,1.005574062E0
1.494675840E1,1.090044498E0,-1.242656708E-1,1.700333357E-1,1.110202820E0
1.495675735E1,1.725067258E0,-2.032012939E-1,2.202826738E-1,1.750906127E0
1.496675892E1,1.775351167E0,-1.821775436E-1,2.742012739E-1,1.805615341E0
1.497679980E1,1.836970806E0,-1.611785889E-1,3.313772678E-1,1.873566432E0
1.498674756E1,1.838796496E0,-1.395750046E-1,3.763619661E-1,1.882100440E0
1.499675860E1,1.794503689E0,-1.178579330E-1,4.206444025E-1,1.846909769E0
1.500674595E1,1.703853369E0,-1.960029602E-1,4.676798582E-1,1.777711426E0
1.501675038E1,1.562622070E0,-1.735839844E-1,5.018767118E-1,1.650393701E0
1.502675944E1,1.388802290E0,-1.512432098E-1,5.441634655E-1,1.499253210E0
1.503676256E1,5.788800716E-1,-1.290168762E-1,5.786151886E-1,8.285789209E-1
1.504675761E1,4.644844532E-1,-1.404194832E0,5.852140188E-1,1.590592462E0
1.505675996E1,-6.883319020E-1,-1.537854195E0,5.833278894E-1,1.782994043E0
1.506675814E1,-6.604412198E-1,-2.644854546E0,6.192152500E-1,2.795508129E0
1.507676412E1,-6.708220243E-1,-3.478148460E0,6.419217587E-1,3.599942006E0
1.508675553E1,-6.771624088E-1,-3.575409889E0,6.929056644E-1,3.704351909E0
1.509675032E1,-8.532451391E-1,-4.220591068E0,1.648595691E0,4.610779108E0
1.510674902E1,-8.299342394E-1,-4.280498505E0,1.678024769E0,4.671961624E0
1.511674694E1,-7.711188793E-1,-4.334122181E0,1.707868695E0,4.721869851E0
1.512675241E1,2.893748879E-1,-4.378911972E0,1.742341042E0,4.721690395E0
1.513674772E1,9.640769362E-1,-4.407065392E0,1.776134610E0,4.848332070E0
1.514674850E1,1.039756536E0,-4.400510311E0,1.612350702E0,4.800547827E0
1.515675777E1,1.140558600E0,-4.365603447E0,1.610789657E0,4.791034408E0
1.516674329E1,1.773811102E0,-4.284802437E0,1.613119960E0,4.909999364E0
1.517678261E1,1.833374977E0,-4.164765835E0,1.614022374E0,4.828209450E0
1.518676189E1,1.859712839E0,-3.265378952E0,1.614688635E0,4.090042901E0
1.519674725E1,1.845388293E0,-3.136052608E0,1.416010261E0,3.904531851E0
1.520675189E1,1.827410102E0,-2.186814785E0,2.471919060E0,3.772528386E0
1.521674772E1,1.780588031E0,-2.025532246E0,2.476416349E0,3.661408547E0
1.522675814E1,1.662391782E0,8.754730225E-3,2.499356985E0,3.001734235E0
1.523675032E1,1.505243897E0,3.302669525E-2,2.536767960E0,2.949922310E0
1.524674824E1,4.987399578E-1,-2.177524567E-2,3.294054747E0,3.331668108E0
1.525674902E1,3.386390209E-1,-2.163887024E-3,3.891333103E0,3.906040756E0
1.526674485E1,1.677017212E-1,1.842975616E-2,3.923144341E0,3.926770306E0
1.527675397E1,3.481745720E-3,3.755664825E-2,4.676945686E0,4.677097773E0
1.528675006E1,-1.611935735E0,-4.207420349E-2,4.618213177E0,4.891625496E0
1.529674668E1,-1.625607848E0,-2.286624908E-2,4.471296310E0,4.757690032E0
1.530674980E1,-1.632613659E0,-2.557754517E-3,4.254387856E0,4.556890379E0
1.531674876E1,-1.601427913E0,1.213645935E-2,3.276512146E0,3.646950849E0
1.532675188E1,-1.565713286E0,1.260285378E0,2.959546328E0,3.577525932E0
1.533676699E1,-1.724617720E0,2.039425850E0,1.760975122E0,3.199155741E0
1.534674704E1,-1.678775072E0,2.973922729E0,1.490483165E0,3.726129655E0
1.535691579E1,-1.572621107E0,3.780290604E0,-1.793065667E-1,4.098278302E0
1.536674412E1,-1.467599988E0,3.906244278E0,-2.626488209E-1,4.181097761E0
1.537675064E1,-1.365243912E0,4.543035507E0,-3.399330974E-1,4.755903391E0
1.538675136E1,-1.458510995E0,4.482694626E0,-6.084373593E-1,4.753104401E0
1.539675032E1,-1.349843979E0,3.732952118E0,-6.623158455E-1,4.024384743E0
1.540674928E1,5.093387365E-1,2.772371292E0,-6.633157730E-1,2.895765243E0
1.541674902E1,6.747163534E-1,1.520338058E0,-1.685534239E0,2.368057356E0
1.542675605E1,8.272527456E-1,-1.005325317E-1,-1.812642813E0,1.995025780E0
1.543675918E1,8.629491329E-1,-1.870196342E0,-3.015560627E0,3.651838093E0
1.544674720E1,7.413171530E-1,-1.966987133E0,-3.802165985E0,4.344543207E0
1.545674902E1,-1.027601838E0,-2.000149250E0,-3.849317074E0,4.458004542E0
1.546674876E1,-1.007064462E0,-1.964708805E0,-3.915628433E0,4.495153562E0
1.547675293E1,-1.189869523E0,-1.845842361E0,-3.919794321E0,4.493073672E0
1.548674954E1,-1.177883983E0,-1.455488205E-1,-3.884219646E0,4.061496940E0
1.549674902E1,-1.165285230E0,-1.245107651E-1,-3.739635468E0,3.918962366E0
1.550674720E1,-1.151704788E0,-1.024293900E-1,-3.534658670E0,3.718968623E0
1.551674824E1,-1.137032628E0,-7.923507690E-2,-2.752502441E0,2.979159459E0
1.552677657E1,-1.255736828E0,-1.621103287E-1,-2.511302471E0,2.812435749E0
1.553674814E1,3.357058764E-1,-1.431684494E-1,-1.666270018E0,1.705770035E0
1.554673610E1,4.454348087E-1,-1.226511002E-1,-1.452470779E0,1.524180707E0
1.555674673E1,5.394197702E-1,-1.007738113E-1,-1.235926867E0,1.352273740E0
1.556674543E1,6.097693443E-1,-7.771396637E-2,-1.041914225E0,1.209728633E0
1.557675449E1,6.198960543E-1,-1.547670364E-1,-9.066588879E-1,1.109168289E0
1.558675267E1,5.726425648E-1,-1.315660477E-1,-8.295602798E-1,1.016562536E0
1.559675032E1,4.268680811E-1,-1.054210663E-1,-8.216121793E-1,9.318672293E-1
1.560675293E1,-9.872296453E-1,-7.971954346E-2,-8.590764403E-1,1.311102554E0
1.561675319E1,-1.126297712E0,-1.339368820E-1,-9.784600139E-1,1.497955147E0
1.562675371E1,-1.104526758E0,-1.082735062E-1,-9.992304444E-1,1.493373360E0
1.563674954E1,-1.082032323E0,-8.272075653E-2,-9.896746278E-1,1.468704375E0
1.564674954E1,-1.058753967E0,-5.730247498E-2,-9.488967657E-1,1.422901475E0
1.565674798E1,-1.034777284E0,-3.202915192E-2,-8.712929487E-1,1.353122794E0
1.566674798E1,-1.156379938E0,-1.125993729E-1,-7.565468550E-1,1.386454588E0
1.567675006E1,-1.079561710E0,-9.267997742E-2,-6.217774153E-1,1.249259868E0
1.568675058E1,-1.002756596E0,-7.276630402E-2,-2.396345139E-3,1.005396174E0
1.569674668E1,-9.274123907E-1,-5.269527435E-2,3.171038628E-2,9.294493440E-1
1.570678501E1,8.774769306E-2,-3.250598907E-2,3.427529335E-2,9.965486791E-2
1.571675688E1,1.517863274E-1,-1.119823456E-1,4.438042641E-3,1.886765251E-1
1.572675308E1,2.150584459E-1,-9.137153625E-2,-4.887926579E-2,2.387217532E-1
1.573674386E1,2.678648233E-1,-7.112121582E-2,-1.211236715E-1,3.024578231E-1
1.574675163E1,3.114235997E-1,-5.081558228E-2,-7.424634695E-1,8.067334662E-1
1.575674824E1,3.305645585E-1,-3.035545349E-2,-7.621681690E-1,8.313210564E-1
1.576675163E1,2.922754884E-1,-1.066331863E-1,-7.777619362E-1,8.376808622E-1
1.577675735E1,2.268759608E-1,-8.293247223E-2,-7.749108076E-1,8.116879057E-1
1.578674928E1,1.586893201E-1,-5.937767029E-2,-7.609788179E-1,7.796132178E-1
1.579675084E1,-7.756478190E-1,-1.603031158E-2,-7.032282352E-1,1.047099069E0
1.580674876E1,-9.462006092E-1,-9.097385406E-2,-6.204482317E-1,1.135133403E0
1.581674980E1,-9.163109660E-1,-6.609153748E-2,-5.360320807E-1,1.063637283E0
1.582675423E1,-8.860395551E-1,-4.135990143E-2,-4.452581406E-1,9.924875548E-1
1.583675058E1,-8.553481102E-1,-1.680278778E-2,-3.442580700E-1,9.221802113E-1
1.584674798E1,-8.221639395E-1,7.380485535E-3,-2.491687536E-1,8.591234386E-1
1.585674694E1,-9.516459703E-1,-7.164859772E-2,-1.493397951E-1,9.659533885E-1
1.586674772E1,-8.824559450E-1,-5.061817169E-2,-4.067385197E-2,8.848418257E-1
1.587675215E1,-8.129268885E-1,-3.004932404E-2,4.880869389E-2,8.149450144E-1
1.588685725E1,-7.446659803E-1,-9.858131409E-3,1.062670946E-1,7.522747506E-1
1.589674647E1,-6.776208878E-1,9.884834290E-3,1.693221331E-1,6.985254199E-1
1.590674381E1,-8.096603751E-1,-7.065963745E-2,2.273412943E-1,8.439352887E-1
1.591674360E1,-7.428963780E-1,-5.164241791E-2,2.706558704E-1,7.923487667E-1
1.592675324E1,-6.772889495E-1,-3.312110901E-2,2.955602407E-1,7.397115552E-1
1.593675136E1,-6.127937436E-1,-1.500415802E-2,3.094501495E-1,6.866590799E-1
1.594675475E1,-5.493549109E-1,2.947807312E-3,3.148621321E-1,6.331963912E-1
1.595675032E1,-6.864557862E-1,-7.941436768E-2,3.347289562E-1,7.678357001E-1
1.596674902E1,-6.245426536E-1,-6.191444397E-2,3.742504120E-1,7.307190263E-1
1.597675735E1,-5.236786008E-1,-2.450752258E-2,4.634997845E-1,6.997656363E-1
1.598675058E1,-4.637206793E-1,-7.087707520E-3,5.028227568E-1,6.840451949E-1
1.599674928E1,5.154501200E-1,-8.936309814E-2,5.505329370E-1,7.594478944E-1
1.600674850E1,6.053483486E-1,-7.163619995E-2,1.497942567E0,1.617223022E0
1.601675241E1,6.947588921E-1,-5.410861969E-2,1.522346854E0,1.674263302E0
1.602675345E1,7.885465622E-1,-3.676795959E-2,1.545298100E0,1.735253232E0
1.603674824E1,8.600037098E-1,-1.955318451E-2,1.566683173E0,1.787312192E0
1.604675241E1,9.084932208E-1,-1.022882462E-1,1.387042046E0,1.661237025E0
1.605674720E1,8.787058592E-1,-8.340454102E-2,1.405577421E0,1.659737386E0
1.606674735E1,8.076846600E-1,-6.940937042E-2,1.388514042E0,1.607838118E0
1.607679579E1,7.251552343E-1,-5.487155914E-2,3.269436359E-1,7.973412964E-1
1.608675053E1,6.435126662E-1,-1.119340897E0,2.537841797E-1,1.315841557E0
1.609674308E1,5.644411445E-1,-1.208476067E0,2.001236677E-1,1.348724468E0
1.610675345E1,4.876896739E-1,-1.300609589E0,1.589182615E-1,1.398099258E0
1.611676152E1,4.229113460E-1,-1.979843140E0,1.238073111E-1,2.028290195E0
1.612675397E1,3.834106326E-1,-2.056079388E0,7.457435131E-2,2.092851523E0
1.613675006E1,3.562683463E-1,-2.698888779E0,5.056619644E-3,2.722306622E0
1.614675866E1,3.475161195E-1,-2.804687977E0,-2.243661880E-2,2.826224602E0
1.615674636E1,3.673198819E-1,-3.797788620E0,-1.026048660E-1,3.816890103E0
1.616675683E1,3.497717381E-1,-4.690641403E0,-1.634761095E-1,4.706504168E0
1.617675892E1,3.057426214E-1,-4.778085709E0,-2.229033709E-1,4.793043657E0
1.618675944E1,2.357560992E-1,-4.867218018E0,-2.588162422E-1,4.879792825E0
1.619675918E1,1.411574483E-1,-4.903424263E0,-2.514189482E-1,4.911894382E0
1.620675657E1,-9.169019461E-1,-4.849635601E0,-1.881207228E-1,4.939135962E0
1.621675996E1,-9.003723860E-1,-4.687357903E0,-1.015739441E-1,4.774129429E0
1.622675423E1,-8.835744262E-1,-3.394729614E0,-3.591084480E-2,3.508016891E0
1.623676178E1,4.065448046E-2,-2.452384472E0,2.435517311E-2,2.452842343E0
1.624679798E1,8.843755722E-2,-1.624482155E0,7.922387123E-2,1.628815488E0
1.625675355E1,6.867986917E-1,-1.474185944E0,1.097161770E-1,1.630016650E0
1.626702886E1,7.888880968E-1,1.092166901E-1,1.190118790E-1,8.052555756E-1
1.627674803E1,1.830958486E0,1.339235306E-1,1.194064617E-1,1.839728891E0
1.628674912E1,2.519662380E0,5.848789215E-2,8.613193035E-2,2.521812454E0
1.629676022E1,2.640035629E0,8.177185059E-2,-2.961993217E-2,2.641467793E0
1.630675709E1,3.376206398E0,1.038742065E-1,-9.568873644E-1,3.510725412E0
1.631675866E1,3.336451530E0,1.277427673E-1,-1.020986557E0,3.491509785E0
1.632675683E1,3.240258694E0,1.576852798E-1,-9.454693794E-1,3.379061023E0
1.633675006E1,2.967664719E0,5.418557167E0,1.235289693E0,6.300296523E0
1.634675058E1,1.616489291E0,8.837465286E0,1.267519355E0,9.073060985E0
1.635675006E1,3.457590342E-1,1.159696007E1,2.988199234E0,1.198074984E1
1.636674850E1,-1.657833338E0,1.343686390E1,3.909137726E0,1.409180899E1
1.637675553E1,-1.908002377E0,1.426773834E1,4.751907349E0,1.515880780E1
1.638674876E1,-1.937505960E0,1.422778225E1,4.849715710E0,1.515597109E1
1.639674772E1,-1.939305782E0,1.319039249E1,4.738697052E0,1.414929718E1
1.640674616E1,-1.911700249E0,1.106990528E1,4.488834381E0,1.209739786E1
1.641674824E1,-1.842538357E0,7.868083954E0,3.112847805E0,8.659764094E0
1.642676543E1,-1.932971239E0,4.484910965E0,2.146226406E0,5.334518906E0
1.643675329E1,-6.263976097E-1,1.872506142E0,1.848603964E0,2.704808650E0
1.644675944E1,5.059430599E-1,-1.610231400E-1,4.081062078E-1,6.696697009E-1
1.645675433E1,1.409177184E0,-1.605949402E-1,3.355838954E-1,1.457459304E0
1.646674569E1,1.642357588E0,-1.562833786E-1,2.740845680E-1,1.672389097E0
