"Time (s)","Linear Acceleration x (m/s^2)","Linear Acceleration y (m/s^2)","Linear Acceleration z (m/s^2)","Absolute acceleration (m/s^2)"
0.000000000E0,-1.721529961E-1,1.697020531E-1,-4.055500031E-2,2.451125230E-1
0.000000000E0,-1.600936651E-1,1.634995937E-1,-7.329177856E-2,2.402785541E-1
0.000000000E0,-1.354694366E-1,1.583502293E-1,-1.110305786E-1,2.361240199E-1
0.000000000E0,-1.172602177E-1,1.494863033E-1,-1.204700470E-1,2.249647656E-1
3.405749000E-3,-1.051460505E-1,1.367809772E-1,-6.852149963E-2,1.856338428E-1
8.431530000E-3,-9.399640560E-2,1.295125484E-1,-3.057479858E-3,1.600567795E-1
1.345731200E-2,-7.854652405E-2,1.131534576E-1,3.796577454E-2,1.428798847E-1
1.848335300E-2,-8.705794811E-2,8.752083778E-2,8.335971832E-2,1.489557854E-1
2.350965500E-2,-9.055936337E-2,5.713868141E-2,1.474657059E-1,1.822414926E-1
2.853616600E-2,-5.089187622E-2,5.994176865E-2,1.921949387E-1,2.076581160E-1
3.356283200E-2,-3.491294384E-2,8.602190018E-2,1.512699127E-1,1.774859641E-1
3.858960300E-2,-8.061134815E-2,4.515981674E-2,7.280158997E-2,1.176336261E-1
4.361647800E-2,-7.837486267E-2,-1.471042633E-4,1.089725494E-1,1.342298673E-1
4.864340500E-2,-4.291224480E-2,2.266407013E-3,1.448888779E-1,1.511270468E-1
5.367033200E-2,-2.184128761E-2,-2.405238152E-2,1.093683243E-1,1.140920210E-1
5.869632200E-2,-1.489353180E-2,-5.977177620E-2,9.321689606E-2,1.117312500E-1
6.372210300E-2,3.047955036E-2,-7.637238503E-2,7.731914520E-2,1.128715837E-1
6.874783200E-2,3.803074360E-2,-8.351135254E-2,3.793716431E-2,9.929608198E-2
7.377356200E-2,1.744282246E-2,-7.658195496E-2,3.224945068E-2,8.490627156E-2
7.879929100E-2,6.892085075E-3,-8.436107635E-2,4.577636719E-2,9.622768746E-2
8.382502000E-2,-2.696073055E-2,-7.843971252E-2,4.517841339E-2,9.444976723E-2
8.885074900E-2,-4.598009586E-2,-7.309985161E-2,4.953765869E-2,9.955770763E-2
9.387647800E-2,-4.555761814E-2,-5.894517899E-2,-7.637023926E-3,7.488894999E-2
9.890220700E-2,-4.502928257E-2,-5.480957031E-2,-9.268760681E-2,1.167163988E-1
1.039279370E-1,-5.414116383E-2,-4.621648788E-2,-1.484775543E-1,1.646596900E-1
1.089536660E-1,-3.474247456E-2,-3.780961037E-2,-1.847810745E-1,1.917828242E-1
1.139793950E-1,-2.966356277E-2,-9.286403656E-4,-2.397804260E-1,2.416101033E-1
1.190051240E-1,-2.924323082E-2,2.157020569E-2,-2.611169815E-1,2.636333028E-1
1.240308530E-1,-2.867901325E-2,4.895448685E-2,-2.681112289E-1,2.740486429E-1
1.290565820E-1,-5.682373047E-2,7.158160210E-2,-2.703933716E-1,2.854215085E-1
1.340823120E-1,-9.447801113E-2,8.479809761E-2,-2.205410004E-1,2.544703220E-1
1.391080410E-1,-1.180658340E-1,1.361179352E-1,-1.569919586E-1,2.389855822E-1
1.441337700E-1,-1.608302593E-1,1.538558006E-1,-8.455085754E-2,2.380899561E-1
1.491594990E-1,-1.893563271E-1,1.761875153E-1,1.487731934E-3,2.586504832E-1
1.541852280E-1,-2.035660744E-1,1.839330196E-1,3.934955597E-2,2.771622086E-1
1.592109570E-1,-2.082782984E-1,1.961095333E-1,4.372024536E-2,2.893963692E-1
1.642366870E-1,-1.892595291E-1,1.889250278E-1,3.388404846E-2,2.695551228E-1
1.692624160E-1,-1.653604507E-1,1.673085690E-1,2.424430847E-2,2.364826049E-1
1.742881450E-1,-1.505872011E-1,1.598644257E-1,1.008987427E-2,2.198520987E-1
1.793138740E-1,-1.303075552E-1,1.427369118E-1,-1.325130463E-2,1.937252745E-1
1.843396030E-1,-9.486210346E-2,1.447186470E-1,-4.099559784E-2,1.778284131E-1
1.893653320E-1,-6.343579292E-2,1.277039051E-1,-1.158618927E-1,1.837290543E-1
1.943910620E-1,-8.367764950E-2,9.684443474E-2,-1.568355560E-1,2.024306923E-1
1.994167910E-1,-1.079332829E-1,6.184196472E-2,-1.642608643E-1,2.060476976E-1
2.044425200E-1,-1.125885248E-1,1.792573929E-2,-1.526660919E-1,1.905372501E-1
2.094682490E-1,-1.029107571E-1,-1.469850540E-3,-1.555337906E-1,1.865034702E-1
2.144939780E-1,-1.029757261E-1,-3.447484970E-2,-1.490488052E-1,1.844127484E-1
2.195197070E-1,-7.494282722E-2,-4.767942429E-2,-1.428337097E-1,1.681999509E-1
2.245454370E-1,-7.167184353E-2,-9.343171120E-2,-1.227102280E-1,1.700709789E-1
2.295711660E-1,-3.145062923E-2,-1.099379063E-1,-6.976699829E-2,1.339511828E-1
2.345968950E-1,7.340431213E-3,-1.354486942E-1,-4.601383209E-2,1.432393223E-1
2.396226240E-1,5.429184437E-2,-1.651241779E-1,-3.715515137E-3,1.738602990E-1
2.446483530E-1,7.624137402E-2,-1.895570755E-1,5.228328705E-2,2.108984924E-1
2.496740820E-1,1.067209244E-1,-2.183413506E-1,8.865833282E-2,2.586940298E-1
2.546998120E-1,1.125030518E-1,-2.278995514E-1,1.483831406E-1,2.943003544E-1
2.597255410E-1,1.271655560E-1,-2.280912399E-1,2.455902100E-1,3.584846490E-1
2.647512700E-1,1.462446451E-1,-2.097854614E-1,3.136253357E-1,4.046705910E-1
2.697769990E-1,1.653320789E-1,-2.065298557E-1,3.385829926E-1,4.296832793E-1
2.748027280E-1,2.129667997E-1,-1.611192226E-1,3.018045425E-1,4.029891358E-1
2.798284570E-1,2.035349607E-1,-1.402368546E-1,2.275123596E-1,3.359385798E-1
2.848541870E-1,1.469281912E-1,-1.245996952E-1,2.014551163E-1,2.787420695E-1
2.898799160E-1,8.624470234E-2,-8.079099655E-2,1.757011414E-1,2.117456608E-1
2.949056450E-1,5.931222439E-2,-3.275942802E-2,1.312189102E-1,1.476804743E-1
2.999313740E-1,5.162596703E-2,5.280256271E-3,9.188842773E-2,1.055301129E-1
3.049571030E-1,2.018928528E-2,2.866339684E-2,7.664871216E-2,8.428655073E-2
3.099828320E-1,-6.813907623E-2,4.230952263E-2,4.728221893E-2,9.310551886E-2
3.150085620E-1,-2.226704359E-1,7.000350952E-2,-2.935600281E-2,2.352538826E-1
3.200342910E-1,-5.527988672E-1,1.685025692E-1,5.125045776E-2,5.801778286E-1
3.250600200E-1,-9.068398476E-1,3.363597393E-1,3.685569763E-1,1.035051027E0
3.300857490E-1,-2.580726147E-1,2.930719852E-1,1.608695984E-1,4.223407282E-1
3.351114780E-1,1.385346651E-1,1.078023911E-1,4.987907410E-2,1.824859748E-1
3.401372070E-1,3.386800885E-1,-2.294516563E-2,-9.819984436E-2,3.533750025E-1
3.451629370E-1,4.110825658E-1,3.509521484E-4,-3.020591736E-1,5.101262034E-1
3.501886660E-1,3.516304493E-1,1.975393295E-2,-4.236030579E-1,5.508845082E-1
3.552143950E-1,2.607579231E-1,4.473137856E-2,-4.777927399E-1,5.461515293E-1
3.602401240E-1,1.714690328E-1,1.179056168E-1,-4.319934845E-1,4.795015478E-1
3.652658530E-1,1.022926569E-1,1.815512180E-1,-2.822389603E-1,3.508325286E-1
3.702916350E-1,9.552466869E-2,2.307207584E-1,-2.050399780E-1,3.231074485E-1
3.753174160E-1,8.383536339E-2,1.940178871E-1,-1.807479858E-1,2.781027563E-1
3.803431970E-1,1.238690615E-1,1.765329838E-1,-1.614551544E-1,2.693978575E-1
3.853689780E-1,1.392984986E-1,1.684751511E-1,-1.185789108E-1,2.486944035E-1
3.903947600E-1,-6.992101669E-2,1.882202625E-1,1.994237900E-1,2.829941056E-1
3.954205410E-1,2.675501704E-1,2.782797813E-1,-3.120517731E-2,3.872938077E-1
4.004463220E-1,2.602276206E-1,2.724606991E-1,-2.028884888E-1,4.279217054E-1
4.054721030E-1,-3.117016554E-1,3.233869076E-1,-1.260795593E-1,4.665115960E-1
4.104978850E-1,-1.952373981E-1,3.115334511E-1,-1.921901703E-1,4.148587643E-1
4.155236660E-1,-1.412640810E-1,3.232426643E-1,-3.003740311E-1,4.633205361E-1
4.205494470E-1,-9.657275677E-2,2.969565392E-1,-3.458747864E-1,4.659815998E-1
4.255752280E-1,-1.562039852E-1,2.380845547E-1,-3.625774384E-1,4.610274818E-1
4.306010100E-1,-2.678313255E-1,3.176434040E-1,-2.652769089E-1,4.929531311E-1
4.356267910E-1,-7.032215595E-2,3.209667206E-1,-3.684034348E-1,4.936455531E-1
4.406525720E-1,-5.055952072E-2,2.585899830E-1,-3.427572250E-1,4.323280696E-1
4.456783530E-1,-1.261553764E-1,2.070984840E-1,-2.653837204E-1,3.594905842E-1
4.507041350E-1,1.687371731E-2,1.853089333E-1,-3.693895340E-1,4.136094183E-1
4.557299160E-1,9.147721529E-2,1.314904690E-1,-3.637151718E-1,3.974248993E-1
4.607556970E-1,-2.976417542E-2,1.169817448E-1,-2.586936951E-1,2.854698979E-1
4.657814780E-1,2.999901772E-2,9.401297569E-2,-2.545928955E-1,2.730493053E-1
4.708072600E-1,-1.536011696E-3,8.615994453E-2,-1.795625687E-1,1.991698055E-1
4.758330410E-1,-7.590603828E-2,9.308934212E-2,-1.148281097E-1,1.661711378E-1
4.808588220E-1,-1.263043880E-1,8.137869835E-2,-1.125202179E-1,1.877127870E-1
4.858846030E-1,-2.287880182E-1,5.107378960E-2,-2.486705780E-2,2.357347234E-1
4.909103850E-1,-2.688354254E-1,7.323312759E-2,2.882099152E-2,2.801182366E-1
4.959361660E-1,-2.851032019E-1,1.187317371E-1,7.261276245E-2,3.172596325E-1
5.009619470E-1,-2.447592020E-1,1.257238388E-1,6.380844116E-2,2.824625068E-1
5.059877280E-1,-2.338172197E-1,8.484959602E-2,5.037784576E-2,2.537870634E-1
5.110135100E-1,-2.523627877E-1,3.455305099E-2,1.320285797E-1,2.869014392E-1
5.160392910E-1,-3.382520676E-1,3.634548187E-2,2.083292007E-1,3.989191787E-1
5.210650720E-1,-2.673164606E-1,8.954191208E-2,2.841949463E-1,4.003031497E-1
5.260908530E-1,-2.349717617E-1,7.968425751E-2,3.217201233E-1,4.062821033E-1
5.311166350E-1,-2.166960239E-1,4.524230957E-2,2.880439758E-1,3.632813860E-1
5.361424160E-1,-2.219983935E-1,3.859257698E-2,2.787322998E-1,3.584192638E-1
5.411681970E-1,-2.271149755E-1,7.362318039E-2,2.793531418E-1,3.674775675E-1
5.461939780E-1,-2.226332426E-1,1.119890213E-1,2.233381271E-1,3.346446184E-1
5.512197600E-1,-2.228975296E-1,1.537559032E-1,1.728601456E-1,3.212550644E-1
5.562455410E-1,-2.422964573E-1,2.131822109E-1,1.800765991E-1,3.695697631E-1
5.612713220E-1,-3.615180850E-1,2.379000187E-1,1.400241852E-1,4.548609866E-1
5.662971030E-1,-4.618365169E-1,2.327611446E-1,1.860332489E-1,5.496172199E-1
5.713228850E-1,-4.578877091E-1,2.309460640E-1,3.127384186E-1,6.006684253E-1
5.763486140E-1,-4.350942373E-1,2.273321152E-1,4.009494781E-1,6.338354439E-1
5.813743430E-1,-4.115451574E-1,1.884076595E-1,4.416790009E-1,6.324137906E-1
5.864000720E-1,-3.575598001E-1,1.425132751E-1,4.403142929E-1,5.848382005E-1
5.914258010E-1,-3.153725863E-1,7.063364983E-2,3.260755539E-1,4.591015656E-1
5.964515300E-1,-2.604334354E-1,4.411339760E-2,1.807270050E-1,3.200528339E-1
6.014772600E-1,-1.826995611E-1,1.498794556E-2,6.636047363E-2,1.949550733E-1
6.065029890E-1,-1.385280490E-1,-7.391619682E-2,-4.086303711E-2,1.622449146E-1
6.115287180E-1,9.595698118E-2,-2.605080605E-1,-8.856773376E-2,2.914042472E-1
6.165544470E-1,3.337903619E-1,-7.149775028E-1,-3.621139526E-1,8.681793305E-1
6.215801760E-1,7.466830015E-1,-1.619282842E0,-1.297126770E0,2.205028409E0
6.266059050E-1,2.290378809E0,-6.839337349E-1,-1.331325531E0,2.736060692E0
6.316316350E-1,2.827429533E0,-2.300221920E-1,-9.758052826E-1,2.999910652E0
6.366573640E-1,2.596789598E0,-6.705329418E-1,-2.433490753E-1,2.692981511E0
6.416830930E-1,1.929463625E0,-1.157434106E0,5.056667328E-2,2.250564502E0
6.467088220E-1,1.977782965E0,-1.186993241E0,-4.850454330E-1,2.357084530E0
6.517345510E-1,1.323120356E0,-1.437042594E0,-1.122324944E0,2.252854228E0
6.567602800E-1,1.115415454E0,-1.549630404E0,-1.309794426E0,2.315397905E0
6.617860100E-1,1.180494189E0,-1.389285803E0,-1.379592896E0,2.286254170E0
6.668117390E-1,8.885867596E-1,-7.749307156E-1,-1.145094872E0,1.643577290E0
6.718374680E-1,4.983345270E-1,-4.025685787E-1,-7.494974136E-1,9.859742058E-1
6.768631970E-1,7.090812922E-2,-4.603292942E-1,-3.263702393E-1,5.687253775E-1
6.818889260E-1,-1.083631516E-1,-6.194751263E-1,-4.745769501E-2,6.306696738E-1
6.869146550E-1,1.406115532E0,-6.611201763E-1,1.353864670E-1,1.559669924E0
6.919403850E-1,3.173790216E0,-1.079841614E0,6.765432358E-1,3.420045760E0
6.969661140E-1,-2.759618759E-1,-2.239460945E0,5.575189590E-1,2.324256370E0
7.019918430E-1,-2.509080172E0,-1.943824291E0,4.257745743E-1,3.202377269E0
7.070175720E-1,-2.157195330E0,-1.174584866E0,4.395990372E-1,2.495273254E0
7.120433010E-1,-1.006635785E0,-7.671978474E-1,6.367483139E-1,1.416812110E0
7.170690300E-1,2.496984601E-1,-1.979129314E-1,2.798128128E-1,4.240448793E-1
7.220947600E-1,6.153776050E-1,-1.491091251E-1,-4.065427780E-1,7.524627288E-1
7.271204890E-1,7.932200432E-1,-5.090136528E-1,-8.820571899E-1,1.290859335E0
7.321462180E-1,9.701541066E-1,-8.077545166E-1,-1.190359116E0,1.735114167E0
7.371719470E-1,1.113527536E0,-8.537960052E-1,-1.403548241E0,1.984655853E0
7.421976760E-1,1.296578407E0,-6.806137562E-1,-1.517097473E0,2.108538687E0
7.472234050E-1,1.387008071E0,-5.082206726E-1,-1.521674156E0,2.120747953E0
7.522491350E-1,1.434054375E0,-4.178903103E-1,-1.623085976E0,2.205799707E0
7.572748640E-1,1.437452555E0,-3.853456974E-1,-1.816578865E0,2.348344082E0
7.623005930E-1,1.205818534E0,-2.190444469E-1,-1.743431091E0,2.131086760E0
7.673263220E-1,8.637810349E-1,-2.468132973E-2,-1.451653481E0,1.689385886E0
7.723520510E-1,6.547881365E-1,3.214561939E-1,-1.166034698E0,1.375397581E0
7.773777800E-1,4.290569425E-1,7.469506264E-1,-9.485330582E-1,1.281304047E0
7.824035100E-1,2.378733456E-1,1.184130192E0,-6.792535782E-1,1.385688805E0
7.874292390E-1,1.844538748E-1,1.598296642E0,-3.817510605E-1,1.653574692E0
7.924549680E-1,5.947364569E-1,2.231944323E0,-2.039642334E-1,2.318811834E0
7.974806970E-1,-8.838862181E-2,2.394987345E0,-2.650413513E-1,2.411228701E0
8.025064260E-1,-6.301658154E-1,2.380549908E0,-8.328580856E-1,2.599572928E0
8.075321550E-1,-1.000081539E0,2.353254557E0,-1.386373520E0,2.908608195E0
8.125578850E-1,-1.482521176E0,2.409294605E0,-1.222974777E0,3.081920966E0
8.175836140E-1,-1.426661253E0,2.537038803E0,-2.089824677E-1,2.918150423E0
8.226093430E-1,-8.836355209E-1,2.633498669E0,9.620800018E-1,2.939681088E0
8.276350720E-1,-1.209130883E-1,2.510150194E0,1.482542992E0,2.917774442E0
8.326608010E-1,1.660607457E-1,1.788994789E0,1.047146797E0,2.079566046E0
8.376865300E-1,2.083932161E-1,8.490922451E-1,1.683235168E-1,8.903472241E-1
8.427122600E-1,6.724791527E-1,1.026790142E-1,1.039447784E-1,6.881683716E-1
8.477379890E-1,7.198184133E-1,-3.257431984E-1,8.914747238E-1,1.191207103E0
8.527637180E-1,1.450196207E-1,4.237937927E-2,9.042959213E-1,9.168303090E-1
8.577894470E-1,2.213840485E-1,4.334621429E-1,1.333847046E-1,5.046699968E-1
8.628151760E-1,-1.559211016E-1,2.563853264E-1,-3.210020065E-1,4.394167881E-1
8.678409050E-1,-5.526945591E-1,-3.479630947E-1,-4.312219620E-1,7.826250516E-1
8.728666350E-1,-5.548288822E-1,-6.469380856E-1,5.548095703E-2,8.540738327E-1
8.778923640E-1,-4.116588235E-1,-8.188858032E-1,6.317634583E-1,1.113176542E0
8.829181450E-1,7.431507111E-4,-7.218532562E-1,1.087548256E0,1.305309881E0
8.879439260E-1,5.897058845E-1,-3.484578133E-1,1.375720978E0,1.536809711E0
8.929697070E-1,6.610733271E-1,-4.060935974E-2,1.760201454E0,1.880685041E0
8.979954890E-1,6.039284468E-1,-9.631228447E-2,1.806267738E0,1.906989451E0
9.030212700E-1,4.569718540E-1,-3.669037819E-1,1.629150391E0,1.731349952E0
9.080470510E-1,3.638594449E-1,-6.215012074E-1,1.161816597E0,1.366921816E0
9.130728320E-1,2.290169597E-1,-7.004296780E-1,6.909275055E-1,1.010164006E0
9.180986140E-1,9.206327796E-2,-5.596904755E-1,3.261280060E-1,6.542847635E-1
9.231243950E-1,5.352541804E-2,-5.189979076E-1,-9.088230133E-2,5.296068270E-1
9.281501760E-1,6.039172411E-2,-5.103328228E-1,-3.882265091E-1,6.440547902E-1
9.331759570E-1,1.215253472E-1,-5.660998821E-1,-6.812324524E-1,8.940442611E-1
9.382017390E-1,7.333657146E-2,-7.568204403E-1,-9.321022034E-1,1.202900640E0
9.432275200E-1,-6.572565436E-2,-1.104926586E0,-1.150963783E0,1.596840710E0
9.482533010E-1,4.181563854E-4,-1.307864666E0,-1.453037262E0,1.954949474E0
9.532790820E-1,-2.410217822E-1,-1.513137341E0,-1.599448204E0,2.214929044E0
9.583048640E-1,-1.616564989E0,-3.399110079E0,-1.475648880E0,4.042866719E0
9.633306450E-1,-8.549242020E-1,-1.712106228E0,-1.813846588E0,2.636710559E0
9.683564260E-1,-9.791195393E-1,6.624398232E-1,-2.979316711E-1,1.219124634E0
9.733822070E-1,-1.646365643E0,1.849497318E0,3.406095505E-1,2.499434941E0
9.784079890E-1,-2.614168167E0,2.521319389E0,1.074824333E0,3.787634356E0
9.834337700E-1,-1.708059788E0,3.951933146E0,2.154738426E0,4.814368236E0
9.884595510E-1,-1.282382965E0,4.489100456E0,1.505002022E0,4.905258409E0
9.934853320E-1,-2.329609394E0,3.695259809E0,2.558832169E-1,4.375785782E0
9.985111140E-1,-3.146053553E0,2.644632101E0,-2.390727997E-1,4.116902684E0
1.003536895E0,-3.133903980E0,1.783448458E0,-6.270141602E-1,3.659943895E0
1.008562676E0,-2.901500702E0,9.648704529E-1,-1.219746590E0,3.292030233E0
1.013588457E0,-2.702930450E0,2.386617661E-1,-1.955853462E0,3.344869986E0
1.018614239E0,-2.268540859E0,-8.252882957E-2,-2.309957981E0,3.238671720E0
1.023640020E0,-1.430426717E0,-6.064105034E-2,-2.158407688E0,2.590081404E0
1.028665801E0,-6.070129871E-1,1.172320843E-1,-1.788526535E0,1.892362358E0
1.033691582E0,-8.618116379E-2,3.543400764E-1,-1.329143524E0,1.378262163E0
1.038717364E0,2.607376575E-1,5.487802029E-1,-8.992214203E-1,1.085238683E0
1.043743145E0,5.809752941E-1,5.225057602E-1,-9.716234207E-1,1.246834646E0
1.048768926E0,8.083578348E-1,1.002659798E-1,-1.474654198E0,1.684666334E0
1.053794707E0,9.377100468E-1,-3.803048134E-1,-1.619647026E0,1.909761339E0
1.058820489E0,1.067728043E0,-7.407233715E-1,-1.182719231E0,1.757139455E0
1.063846270E0,1.191593885E0,-9.855831861E-1,-6.044273376E-1,1.660301964E0
1.068872051E0,1.413368702E0,-1.239405155E0,-4.059553146E-1,1.923157805E0
1.073897832E0,1.711196661E0,-1.458565712E0,-4.864025116E-1,2.300477201E0
1.078923614E0,2.015309572E0,-1.508550763E0,-5.728721619E-1,2.581739838E0
1.083949343E0,3.116492271E0,-1.366020441E0,-3.112411499E-1,3.416929466E0
1.088975072E0,3.720767736E0,-1.267910719E0,-7.323265076E-3,3.930873156E0
1.094000801E0,2.533164024E0,-1.449893951E0,-3.302822113E-1,2.937379578E0
1.099026530E0,1.837885976E0,-1.227229834E0,-1.532917976E0,2.689564174E0
1.104052260E0,1.609673619E0,-8.328037262E-1,-2.485966206E0,3.076465372E0
1.109077989E0,1.268756747E0,-4.596623182E-1,-2.673963547E0,2.995181828E0
1.114103718E0,4.672866762E-1,-3.871666193E-1,-2.471415997E0,2.544828453E0
1.119129447E0,-4.135408998E-1,-5.641615391E-1,-2.518975735E0,2.614293991E0
1.124155176E0,-1.066172004E0,-5.445411205E-1,-2.035706520E0,2.361641126E0
1.129180905E0,-2.043649435E0,-4.180080891E-1,5.927398682E0,6.283732084E0
1.134206635E0,-6.374333501E-1,4.358490705E-1,3.242552757E0,3.333231776E0
1.139232364E0,2.072835684E0,1.354941726E0,1.596079826E0,2.946181540E0
1.144258093E0,2.335595846E0,1.624085546E0,3.119894981E0,4.222132934E0
1.149283822E0,1.514872909E0,1.346137524E0,3.491817474E0,4.037290606E0
1.154309551E0,1.579683572E-1,8.250892162E-1,4.210333824E0,4.293324717E0
1.159335280E0,-2.667773515E-2,4.914352894E-1,3.098782539E0,3.137622280E0
1.164361010E0,-7.634311169E-2,3.722239733E-1,2.277303696E0,2.308785629E0
1.169386739E0,-3.224589229E-1,4.696483612E-1,2.610708237E0,2.672142743E0
1.174412468E0,-8.043299913E-1,7.901959419E-1,3.207757950E0,3.400156971E0
1.179438197E0,-7.144968510E-1,1.302528739E0,2.652183533E0,3.039928347E0
1.184463926E0,8.093330264E-2,1.765759110E0,7.248983383E-1,1.910479792E0
1.189489655E0,3.667265177E-1,1.971571565E0,-1.472854614E0,2.488148607E0
1.194515385E0,3.556042910E-1,1.892319560E0,-2.898380280E0,3.479645955E0
1.199541114E0,6.422591805E-1,1.585188627E0,-2.648615360E0,3.152853179E0
1.204566843E0,8.848323822E-1,1.365162015E0,-1.031405449E0,1.926238010E0
1.209592572E0,1.238897800E0,1.375005841E0,-2.195186615E-1,1.863785735E0
1.214618301E0,1.595912695E0,1.299396515E0,-5.038013458E-1,2.118769555E0
1.219644030E0,1.587314129E0,1.196213007E0,-6.825847626E-1,2.101526507E0
1.224669760E0,1.443049073E0,1.093364835E0,-2.776603699E-1,1.831647502E0
1.229695489E0,1.471995354E0,9.943362474E-1,3.708572388E-1,1.814665254E0
1.234721218E0,1.631078959E0,8.835796118E-1,7.750167847E-1,2.010418493E0
1.239746947E0,1.627985001E0,7.075651884E-1,9.256706238E-1,2.001961479E0
1.244772676E0,1.427533031E0,4.890779257E-1,1.048039436E0,1.837235540E0
1.249798405E0,2.583124399E0,2.508356571E-1,1.166206360E0,2.845257012E0
1.254824135E0,3.069101810E0,1.067410707E-1,1.275491714E0,3.325305804E0
1.259849864E0,2.691295147E0,5.174374580E-2,1.275514603E0,2.978705169E0
1.264875593E0,2.202657461E0,1.001760960E-1,9.990510941E-1,2.420710274E0
1.269901322E0,1.003829360E0,-7.368247509E-1,-7.976913452E-2,1.247776908E0
1.274927051E0,4.138112366E-1,-8.545085788E-1,-5.493278503E-1,1.096898235E0
1.279952780E0,5.280631781E-1,-3.822035789E-1,-1.017807961E0,1.208661797E0
1.284978510E0,8.236554861E-1,1.443374157E-1,-1.537866592E0,1.750507157E0
1.290004239E0,1.222831964E0,7.064874172E-1,-1.841664314E0,2.320812343E0
1.295029968E0,1.677211642E0,1.242748022E0,-2.111246109E0,2.968976536E0
1.300055697E0,2.215434790E0,1.763314843E0,-2.150595665E0,3.555628251E0
1.305081426E0,2.819877863E0,2.291872263E0,-1.663372993E0,3.996398297E0
1.310107155E0,3.050286293E0,2.412627459E0,-2.142314911E0,4.440104830E0
1.315132885E0,3.282672644E0,2.318843365E0,-2.668124676E0,4.824091989E0
1.320158614E0,3.368178368E0,2.040762424E0,-3.102153778E0,5.013251924E0
1.325184343E0,3.107025862E0,1.632280588E0,-3.372870922E0,4.867669656E0
1.330210072E0,2.573130608E0,1.070309162E0,-3.447074413E0,4.432706266E0
1.335235801E0,2.274230242E0,4.753279686E-1,-3.769855499E0,4.428303327E0
1.340261530E0,2.037715912E0,-5.655241013E-2,-4.077863693E0,4.558997325E0
1.345287260E0,1.328283787E0,-6.639424562E-1,-4.275432110E0,4.525978030E0
1.350312989E0,3.563904762E-1,-1.308619499E0,-4.400800228E0,4.605056114E0
1.355338718E0,-3.923172057E-1,-1.938659668E0,-4.070991516E0,4.526067390E0
1.360364447E0,2.878197432E-1,-2.098211288E0,-2.194953918E0,3.050107132E0
1.365390176E0,4.277555943E0,-1.113736629E0,1.734824181E0,4.748421744E0
1.370415905E0,4.497426033E0,-1.133053899E0,2.729744911E0,5.381650243E0
1.375441635E0,3.629094124E0,-1.527305603E0,3.424731255E0,5.218406915E0
1.380467364E0,3.168780804E0,-1.835279584E0,3.998059273E0,5.421614232E0
1.385493093E0,2.671576500E0,-2.268683195E0,3.532717705E0,4.976378082E0
1.390518822E0,2.131350994E0,-2.639554501E0,2.834541321E0,4.420919533E0
1.395544551E0,1.441151261E0,-2.954575539E0,2.143970490E0,3.924671073E0
1.400570280E0,5.760645866E-1,-3.185798168E0,1.346981049E0,3.506496588E0
1.405596010E0,-3.489508629E-1,-3.375963688E0,2.812576294E-1,3.405584147E0
1.410621791E0,-1.175269246E0,-3.510176420E0,-9.097633362E-1,3.811858553E0
1.415647572E0,-1.700592041E0,-3.563949108E0,-2.136108398E0,4.489621991E0
1.420673353E0,-1.856887221E0,-3.542216063E0,-3.303397179E0,5.187268810E0
1.425699135E0,-1.877752304E0,-3.484009504E0,-4.264962673E0,5.818434716E0
1.430724916E0,-1.966961503E0,-3.491252661E0,-5.056539536E0,6.451850492E0
1.435750697E0,-2.126729965E0,-3.556344748E0,-5.814705849E0,7.140124118E0
1.440776478E0,-2.187691927E0,-3.624631643E0,-6.627970695E0,7.864727971E0
1.445802260E0,-2.130159855E0,-3.680621386E0,-7.455004692E0,8.582636527E0
1.450828041E0,-2.040548325E0,-3.747842550E0,-8.115166664E0,9.168756253E0
1.455853822E0,-2.063093424E0,-3.907703400E0,-8.523081779E0,9.600490787E0
1.460879603E0,-2.208138227E0,-4.165661812E0,-8.741101265E0,9.931538858E0
1.465905385E0,-2.495546103E0,-4.489310265E0,-8.744964600E0,1.014179781E1
1.470931166E0,-2.950191021E0,-4.759999275E0,-8.538825989E0,1.021140389E1
1.475956947E0,-3.596917152E0,-4.993180275E0,-8.236505508E0,1.028152154E1
1.480982728E0,-4.130462646E0,-5.208920479E0,-7.798494339E0,1.024744301E1
1.486008510E0,-4.229769230E0,-5.461832523E0,-7.324466705E0,1.006828559E1
1.491034291E0,-4.365467072E0,-5.733549595E0,-7.357594490E0,1.029879072E1
1.496060072E0,-4.679118156E0,-5.884243011E0,-7.416414261E0,1.056038177E1
1.501085853E0,-5.132965088E0,-5.922085285E0,-7.490356445E0,1.084084242E1
1.506111635E0,-5.544545650E0,-5.969643116E0,-7.589169025E0,1.113436625E1
1.511137416E0,-5.754921436E0,-6.082391739E0,-7.761379242E0,1.141725088E1
1.516163197E0,-5.786832333E0,-6.158074379E0,-7.916927338E0,1.157959615E1
1.521188978E0,-5.538063049E0,-6.157537460E0,-8.009109497E0,1.152090469E1
1.526214760E0,-4.939826012E0,-6.109447002E0,-8.048521996E0,1.124748550E1
1.531240541E0,-4.190793991E0,-6.086407661E0,-8.012525558E0,1.089989350E1
1.536266322E0,-3.455543041E0,-6.195152760E0,-8.065628052E0,1.074127792E1
1.541292103E0,-2.817641735E0,-6.461130142E0,-8.128179550E0,1.075883871E1
1.546317885E0,-2.332532406E0,-6.780591011E0,-8.129894257E0,1.084030915E1
1.551343666E0,-1.984745026E0,-7.025621414E0,-7.966392517E0,1.080564569E1
1.556369447E0,-1.764279366E0,-7.144862175E0,-7.613835335E0,1.058925048E1
1.561395228E0,-1.680502415E0,-7.134980679E0,-7.090972424E0,1.019872186E1
1.566421010E0,-1.733475208E0,-6.992690086E0,-6.353717804E0,9.605851387E0
1.571446791E0,-1.765560627E0,-6.848578453E0,-5.534557343E0,8.980621144E0
1.576472572E0,-1.571537971E0,-6.766082287E0,-4.712837219E0,8.394071465E0
1.581498353E0,-1.089622974E0,-6.722713470E0,-3.800759792E0,7.799226220E0
1.586524135E0,-5.159816742E-1,-6.686959743E0,-2.811921835E0,7.272452963E0
1.591549916E0,1.210699081E-1,-6.593964100E0,-1.799297810E0,6.836116813E0
1.596575697E0,7.743968964E-1,-6.417366982E0,-7.460272312E-1,6.506830731E0
1.601601478E0,1.286723137E0,-6.235767365E0,2.631278038E-1,6.372573051E0
1.606627207E0,1.414301872E0,-6.432621479E0,1.081682920E0,6.674496746E0
1.611652937E0,1.869897842E0,-6.142278671E0,1.945799470E0,6.708967193E0
1.616678666E0,2.193306923E0,-5.858836174E0,2.556316853E0,6.758055373E0
1.621704395E0,2.560697556E0,-5.306104660E0,3.121577740E0,6.667545742E0
1.626730124E0,2.827307701E0,-4.701165199E0,3.587055683E0,6.554509253E0
1.631755853E0,2.934432030E0,-4.255632401E0,3.942173243E0,6.500925191E0
1.636781582E0,2.909523010E0,-3.854923248E0,4.124285698E0,6.351022746E0
1.641807312E0,2.823107719E0,-3.427211761E0,4.066978455E0,6.021298149E0
1.646833041E0,2.760119438E0,-2.972263813E0,3.881346941E0,5.614041821E0
1.651858770E0,2.753111839E0,-2.503289700E0,3.692459345E0,5.242169411E0
1.656884499E0,2.877844810E0,-1.999953866E0,3.352505922E0,4.849855893E0
1.661910228E0,3.267471313E0,-1.418359041E0,2.857497692E0,4.566552771E0
1.666935957E0,3.911495209E0,-9.448914528E-1,2.255677938E0,4.613100648E0
1.671961687E0,4.966823578E0,-7.038543224E-1,1.556407213E0,5.252347168E0
1.676987416E0,6.336608887E0,-6.812498569E-1,9.699584246E-1,6.446513236E0
1.682013145E0,7.627655029E0,-8.438975811E-1,6.300021410E-1,7.700012147E0
1.687038874E0,8.595820427E0,-1.152858257E0,6.071354747E-1,8.694010838E0
1.692064603E0,9.241586685E0,-1.491591454E0,5.897660255E-1,9.379743786E0
1.697090332E0,9.465255737E0,-1.681278706E0,9.496335387E-1,9.660205387E0
1.702116062E0,9.645696640E0,-1.796581030E0,1.752823591E0,9.966923177E0
1.707141791E0,9.907927513E0,-2.136775970E0,2.847875357E0,1.052821130E1
1.712167520E0,1.000394440E1,-2.651386023E0,4.029105663E0,1.110596433E1
1.717193249E0,9.896592140E0,-3.108246803E0,5.358981609E0,1.167571917E1
1.722218978E0,9.921739578E0,-3.342906952E0,6.871109486E0,1.252310220E1
1.727244707E0,1.044324589E1,-3.273527622E0,8.307367325E0,1.374007713E1
1.732270437E0,1.145089722E1,-2.877489328E0,9.605653763E0,1.522076135E1
1.737296166E0,1.256100368E1,-2.133325577E0,1.071714687E1,1.664893776E1
1.742321895E0,1.349986744E1,-1.154504776E0,1.158760738E1,1.782840282E1
1.747347624E0,1.439089394E1,-1.453053951E-1,1.200584412E1,1.874191119E1
1.752373353E0,1.526132679E1,9.002799988E-1,1.191539955E1,1.938286217E1
1.757399082E0,1.598521233E1,1.868905067E0,1.135215378E1,1.969495404E1
1.762424812E0,1.634136200E1,2.624476910E0,1.041450596E1,1.955479290E1
1.767450541E0,1.624327850E1,3.166346550E0,9.325326920E0,1.899556709E1
1.772476270E0,1.586810303E1,3.676656723E0,8.191702843E0,1.823234746E1
1.777501999E0,1.534989929E1,4.136744976E0,6.952647209E0,1.735140831E1
1.782527728E0,1.480830383E1,4.465906620E0,5.628604412E0,1.645938553E1
1.787553457E0,1.442001343E1,4.697742462E0,4.325243473E0,1.577064687E1
1.792579187E0,1.406963539E1,4.831923008E0,3.042922974E0,1.518425172E1
1.797604916E0,1.350834942E1,4.873495579E0,2.030664921E0,1.450345004E1
1.802630645E0,1.266507912E1,4.761240005E0,1.196610093E0,1.358328057E1
1.807656374E0,1.171325302E1,4.434912682E0,4.487733245E-1,1.253276284E1
1.812682103E0,1.074948120E1,3.992085695E0,-2.846873999E-1,1.147035924E1
1.817707832E0,9.869991302E0,3.845454216E0,-6.249657869E-1,1.061107104E1
1.822733562E0,9.093975067E0,4.272241116E0,-1.470814943E-1,1.004858496E1
1.827759291E0,8.349422455E0,4.802375793E0,4.151188135E-1,9.640953906E0
1.832785020E0,8.716767311E0,5.147560596E0,1.658046961E0,1.025809593E1
1.837810749E0,9.533434868E0,4.874161720E0,2.048178196E0,1.090132408E1
1.842836478E0,9.196594238E0,4.143763542E0,2.045768023E0,1.029238984E1
1.847862207E0,7.895594597E0,3.241221905E0,1.123315334E0,8.608587039E0
1.852887937E0,5.910831451E0,2.452339172E0,-5.994352698E-1,6.427380377E0
1.857913666E0,3.187600136E0,1.780936480E0,-2.365851641E0,4.350837087E0
1.862939395E0,8.862285614E-1,1.112926006E0,-3.823873281E0,4.079952479E0
1.867965124E0,-6.336841583E-1,5.964121819E-1,-4.822776794E0,4.900657008E0
1.872990853E0,-1.406278133E0,4.580860138E-1,-5.197658539E0,5.403990680E0
1.878016582E0,-1.605086803E0,5.874154568E-1,-4.760959148E0,5.058467414E0
1.883042312E0,-1.437288761E0,8.104064465E-1,-3.709044456E0,4.059503464E0
1.888068041E0,-1.019157410E0,1.019298077E0,-2.358151674E0,2.763789014E0
1.893093770E0,-5.194044113E-1,1.206654787E0,-1.091453552E0,1.707942497E0
1.898119499E0,-1.828451157E-1,1.317653656E0,-8.121514320E-2,1.332756314E0
1.903145228E0,-2.153625488E-1,1.370205998E0,6.487935781E-1,1.531266996E0
1.908170957E0,-5.495796204E-1,1.392885685E0,1.223072767E0,1.933410273E0
1.913196687E0,-9.123926163E-1,1.362187862E0,1.632306814E0,2.313534438E0
1.918222416E0,-1.088456154E0,1.292799115E0,1.919733882E0,2.557624783E0
1.923248145E0,-1.254799843E0,1.194372296E0,2.265870810E0,2.852230417E0
1.928273874E0,-1.435019016E0,1.191697001E0,2.587322474E0,3.189617360E0
1.933299603E0,-1.418684483E0,1.274855852E0,2.620474577E0,3.241112481E0
1.938325385E0,-1.545607090E0,1.338070273E0,2.560488701E0,3.276497478E0
1.943351166E0,-1.624237537E0,1.304844737E0,2.335124493E0,3.129468607E0
1.948376947E0,-1.707212925E0,1.160757661E0,1.948564768E0,2.838809429E0
1.953402728E0,-2.043014526E0,9.304298162E-1,1.515664101E0,2.708661231E0
1.958428510E0,-2.673999310E0,6.342909336E-1,9.788976908E-1,2.917334054E0
1.963454291E0,-3.451144695E0,3.218746185E-1,4.536915421E-1,3.495688629E0
1.968480072E0,-4.063118935E0,8.082246780E-2,1.275312901E-2,4.063942715E0
1.973505853E0,-4.390441418E0,-1.118700504E-1,-3.191782832E-1,4.403449276E0
1.978531635E0,-4.538662434E0,-2.223217487E-1,-5.178194642E-1,4.573512943E0
1.983557416E0,-4.474643230E0,-3.320565224E-1,-6.834325194E-1,4.538697344E0
1.988583197E0,-4.232374191E0,-4.464733601E-1,-8.251832128E-1,4.335119040E0
1.993608978E0,-4.046756744E0,-5.712795258E-1,-9.950842857E-1,4.206280207E0
1.998634760E0,-4.066152573E0,-7.353310585E-1,-1.144340992E0,4.287636274E0
2.003660541E0,-4.132567406E0,-9.813547134E-1,-1.157127976E0,4.402285269E0
2.008686322E0,-4.135973930E0,-1.165413380E0,-9.754091501E-1,4.406346753E0
2.013712103E0,-3.995081902E0,-1.311057091E0,-5.896385908E-1,4.245847826E0
2.018737885E0,-3.700520039E0,-1.461378574E0,-1.530668736E-1,3.981570715E0
2.023763666E0,-3.271665573E0,-1.525866747E0,3.100497723E-1,3.623285224E0
2.028789447E0,-2.684893131E0,-1.490810394E0,7.183005810E-1,3.153905909E0
2.033815228E0,-2.002817154E0,-1.386096239E0,1.042883039E0,2.649555504E0
2.038841010E0,-1.393206120E0,-1.251238108E0,1.288439512E0,2.273036839E0
2.043866791E0,-9.231090546E-1,-1.120659351E0,1.430763364E0,2.038404158E0
2.048892572E0,-5.733356476E-1,-9.902818203E-1,1.483731151E0,1.873720891E0
2.053918353E0,-3.342161179E-1,-8.891739845E-1,1.490069866E0,1.767099034E0
2.058944135E0,-1.864824295E-1,-8.557701111E-1,1.463690996E0,1.705728440E0
2.063969916E0,-5.348587036E-2,-8.183481693E-1,1.361233830E0,1.589185957E0
2.068995697E0,6.002140045E-2,-7.099981308E-1,1.259085536E0,1.446719151E0
2.074021478E0,1.827030182E-1,-5.979940891E-1,1.137998223E0,1.298467281E0
2.079047260E0,3.336515427E-1,-5.542309284E-1,1.016931891E0,1.205257543E0
2.084073041E0,3.693847656E-1,-5.835669041E-1,8.761072159E-1,1.115598176E0
2.089098822E0,2.806158066E-1,-6.568896770E-1,7.342660427E-1,1.024400264E0
2.094124603E0,1.154518127E-1,-7.544031143E-1,6.013323069E-1,9.716242706E-1
2.099150385E0,-1.441955566E-3,-8.608562946E-1,4.918639660E-1,9.914664897E-1
2.104176166E0,-2.972602844E-3,-9.849853516E-1,4.205332994E-1,1.071005712E0
2.109201947E0,1.395606995E-1,-1.044890404E0,4.114080667E-1,1.131604941E0
2.114227728E0,3.351469040E-1,-9.832274914E-1,4.308015108E-1,1.124566445E0
2.119253510E0,6.218404770E-1,-8.342039585E-1,4.211137295E-1,1.122460955E0
2.124279291E0,8.940420151E-1,-5.940771103E-1,4.063024521E-1,1.147745799E0
2.129305020E0,1.118006706E0,-3.500108719E-1,3.528375626E-1,1.223495383E0
2.134330749E0,1.226634026E0,-1.313319206E-1,2.512991428E-1,1.258979891E0
2.139356478E0,1.215123177E0,5.191636086E-2,1.160893440E-1,1.221759542E0
2.144382207E0,1.112175941E0,1.898202896E-1,-4.787385464E-2,1.129273648E0
2.149407937E0,9.370517731E-1,2.634079456E-1,-2.070321441E-1,9.951442508E-1
2.154433666E0,7.663974762E-1,3.063545227E-1,-3.136244416E-1,8.829374131E-1
2.159459395E0,6.098499298E-1,3.427646160E-1,-3.345738053E-1,7.754638290E-1
2.164485124E0,4.770193100E-1,3.727948666E-1,-3.084481359E-1,6.794583778E-1
2.169510853E0,3.152465820E-1,3.484830856E-1,-3.024864793E-1,5.588550247E-1
2.174536582E0,7.677078247E-2,2.939302921E-1,-3.309441209E-1,4.492357742E-1
2.179562312E0,-2.190704346E-1,1.952338219E-1,-3.840804696E-1,4.833486398E-1
2.184588041E0,-4.812335968E-1,6.242704391E-2,-4.521025419E-1,6.632342112E-1
2.189613770E0,-7.335186005E-1,-7.998394966E-2,-4.535251856E-1,8.661016473E-1
2.194639499E0,-9.184036255E-1,-2.124273777E-1,-3.741795421E-1,1.014199655E0
2.199665228E0,-1.054970741E0,-3.202476501E-1,-2.766113877E-1,1.136677475E0
2.204690957E0,-1.167110443E0,-4.367761612E-1,-1.945199370E-1,1.261252634E0
2.209716687E0,-1.259582996E0,-5.905354023E-1,-1.374570727E-1,1.397918393E0
2.214742416E0,-1.341888905E0,-7.620511055E-1,-8.141726255E-2,1.545320837E0
2.219768145E0,-1.423496723E0,-9.509494305E-1,1.193809509E-2,1.711955098E0
2.224793874E0,-1.465990543E0,-1.099381685E0,8.507168293E-2,1.834395147E0
2.229819603E0,-1.440654278E0,-1.154635906E0,1.618170738E-1,1.853335801E0
2.234845332E0,-1.342828274E0,-1.145676613E0,2.373991013E-1,1.781044920E0
2.239871062E0,-1.225299358E0,-1.144617319E0,2.592856884E-1,1.696683940E0
2.244896791E0,-1.097709656E0,-1.199337482E0,2.135604620E-1,1.639812476E0
2.249922520E0,-9.075565338E-1,-1.233396530E0,1.294610500E-1,1.536777806E0
2.254948249E0,-7.173271179E-1,-1.170903921E0,8.871185780E-2,1.376024702E0
2.259973978E0,-5.750427246E-1,-1.007650614E0,7.733273506E-2,1.162761474E0
2.264999707E0,-5.430240631E-1,-8.590552807E-1,3.818619251E-2,1.017009977E0
2.270025437E0,-5.590581894E-1,-7.635085583E-1,-9.227752686E-3,9.463490525E-1
2.275051166E0,-5.514802933E-1,-7.211241722E-1,-8.354580402E-2,9.116635821E-1
2.280076895E0,-4.390840530E-1,-6.839871407E-1,-1.507580280E-1,8.266566380E-1
2.285102624E0,-2.843008041E-1,-5.615680218E-1,-1.295307875E-1,6.426226071E-1
2.290128353E0,-1.972169876E-1,-4.547164440E-1,-7.317757607E-2,5.010155110E-1
2.295154082E0,-2.351808548E-1,-4.114005566E-1,-7.276296616E-2,4.794318530E-1
2.300179812E0,-3.214464188E-1,-4.218277931E-1,-1.188534498E-1,5.435003493E-1
2.305205541E0,-4.606246948E-1,-4.664447308E-1,-1.539241076E-1,6.733783685E-1
2.310231270E0,-5.615510941E-1,-5.637087822E-1,-2.259317040E-1,8.271350296E-1
2.315256999E0,-6.288347244E-1,-6.269493103E-1,-3.255255818E-1,9.457618372E-1
2.320282728E0,-6.241283417E-1,-6.367917061E-1,-4.289346337E-1,9.894568125E-1
2.325308457E0,-6.001100540E-1,-5.837676525E-1,-5.698254108E-1,1.012727875E0
2.330334187E0,-6.046209335E-1,-5.588204861E-1,-7.672894597E-1,1.125424331E0
2.335359916E0,-6.471853256E-1,-5.522961617E-1,-1.021099329E0,1.329106367E0
2.340385645E0,-7.228603363E-1,-5.925085545E-1,-1.240124464E0,1.552901201E0
2.345411374E0,-7.549343109E-1,-6.167769432E-1,-1.395516038E0,1.702293930E0
2.350437103E0,-7.529096603E-1,-6.678545475E-1,-1.468148232E0,1.779989293E0
2.355462832E0,-7.071189880E-1,-7.549309731E-1,-1.534600854E0,1.850658752E0
2.360488562E0,-5.983619690E-1,-8.059387207E-1,-1.570943117E0,1.864252275E0
2.365514291E0,-4.123821259E-1,-7.254397869E-1,-1.472153544E0,1.692205059E0
2.370540020E0,-1.398229599E-1,-4.901573658E-1,-1.272230864E0,1.370538607E0
2.375565749E0,2.094192505E-1,-2.732980251E-1,-1.043714643E0,1.099039803E0
2.380591478E0,5.442047119E-1,-1.568331718E-1,-8.782351613E-1,1.045013115E0
2.385617207E0,8.213663101E-1,-1.793587208E-1,-8.621751070E-1,1.204225096E0
2.390642937E0,1.036134720E0,-2.164597511E-1,-9.234814644E-1,1.404723459E0
2.395668666E0,1.255484581E0,-2.585415840E-1,-1.023274422E0,1.640175547E0
2.400694395E0,1.517563820E0,-3.582475185E-1,-1.198972464E0,1.966945907E0
2.405720124E0,1.855727196E0,-5.106270313E-1,-1.478112459E0,2.426783845E0
2.410745853E0,2.274538994E0,-7.108728886E-1,-1.715987325E0,2.936576305E0
2.415771582E0,2.754653931E0,-9.590167999E-1,-1.883017182E0,3.471827359E0
2.420797312E0,3.195535660E0,-1.255001068E0,-1.969166279E0,3.957788735E0
2.425823041E0,3.549530983E0,-1.593814135E0,-1.960334539E0,4.356871033E0
2.430848770E0,3.797841072E0,-1.879418850E0,-1.828405142E0,4.615070680E0
2.435874499E0,3.945619583E0,-2.030261517E0,-1.531177402E0,4.694079245E0
2.440900228E0,3.974081039E0,-2.074978352E0,-1.117666721E0,4.620393291E0
2.445925957E0,3.955164909E0,-1.994696617E0,-6.703828573E-1,4.480129153E0
2.450951687E0,3.850747108E0,-1.851770163E0,-2.477711439E-1,4.280034646E0
2.455977416E0,3.723113060E0,-1.603382349E0,1.300174594E-1,4.055774939E0
2.461003145E0,3.591264725E0,-1.297908783E0,5.196789503E-1,3.853805359E0
2.466028874E0,3.455077171E0,-9.262328148E-1,9.487712979E-1,3.700761065E0
2.471054603E0,3.295236588E0,-5.797562599E-1,1.310972691E0,3.593515115E0
2.476080332E0,3.044589996E0,-2.589330673E-1,1.533776283E0,3.418924431E0
2.481106062E0,2.679248810E0,2.178335190E-2,1.621677876E0,3.131882474E0
2.486131843E0,2.237569809E0,2.911520004E-1,1.637095928E0,2.787753794E0
2.491157624E0,1.753192902E0,5.733530521E-1,1.637915611E0,2.466817104E0
2.496183405E0,1.307498932E0,8.446049690E-1,1.634104967E0,2.256814138E0
2.501209187E0,9.482545853E-1,1.109756231E0,1.564020276E0,2.139370252E0
2.506234968E0,6.848115921E-1,1.325626373E0,1.413917899E0,2.055581675E0
2.511260749E0,4.451828003E-1,1.492080450E0,1.194191098E0,1.962290543E0
2.516286530E0,2.291526794E-1,1.618449926E0,9.774098992E-1,1.904526510E0
2.521312312E0,1.751327515E-2,1.728682280E0,7.786609530E-1,1.896038507E0
2.526338093E0,-1.611585617E-1,1.798720360E0,5.839868784E-1,1.898000972E0
2.531363874E0,-3.691205978E-1,1.828588486E0,4.129927754E-1,1.910640965E0
2.536389655E0,-5.728578568E-1,1.827970505E0,2.421472669E-1,1.930874825E0
2.541415437E0,-7.388315201E-1,1.787554026E0,8.634847403E-2,1.936150167E0
2.546441218E0,-8.527121544E-1,1.745769739E0,-3.016990423E-2,1.943126404E0
2.551466999E0,-9.765534401E-1,1.731581926E0,-1.751822233E-2,1.988049164E0
2.556492780E0,-9.620213509E-1,1.611311674E0,-6.161819696E-1,1.975219130E0
2.561518562E0,-9.241585732E-1,1.518897533E0,-7.727357149E-1,1.938617876E0
2.566544343E0,-9.778113365E-1,1.478084564E0,-1.028646946E0,2.049137264E0
2.571570124E0,-8.215260506E-1,1.422072411E0,-1.569444895E0,2.271640876E0
2.576595905E0,-7.283487320E-1,1.398506641E0,-1.943989277E0,2.503079505E0
2.581621687E0,-7.701449394E-1,1.402165413E0,-2.157132387E0,2.685593269E0
2.586647468E0,-8.272404671E-1,1.385124683E0,-2.294833183E0,2.805201689E0
2.591673249E0,-1.076349735E0,1.476944447E0,-2.256849289E0,2.904007983E0
2.596699030E0,-7.710442543E-1,1.271195173E0,-2.311450958E0,2.748318021E0
2.601724812E0,-6.248102188E-1,1.059491634E0,-2.449195862E0,2.740706242E0
2.606750593E0,-7.760281563E-1,8.993062973E-1,-2.336106539E0,2.620756623E0
2.611776374E0,-8.414568901E-1,7.910411358E-1,-2.135645151E0,2.427915976E0
2.616802155E0,-9.308724403E-1,7.304360867E-1,-1.910614610E0,2.247333657E0
2.621827937E0,-1.005851269E0,6.889283657E-1,-1.666488409E0,2.064834784E0
2.626853718E0,-1.056777477E0,6.187713146E-1,-1.398838758E0,1.859141320E0
2.631879499E0,-1.035895824E0,5.725176334E-1,-1.174813032E0,1.667645724E0
2.636905280E0,-9.337267876E-1,5.358126163E-1,-9.798924923E-1,1.455723246E0
2.641931062E0,-7.552728653E-1,4.988112450E-1,-8.334493637E-1,1.230401398E0
2.646958228E0,-5.341787338E-1,4.517931938E-1,-7.307358980E-1,1.011651601E0
2.651984009E0,-3.281059265E-1,3.990736008E-1,-6.959175467E-1,8.667262946E-1
2.657009790E0,-1.993770599E-1,2.972807884E-1,-7.240373492E-1,8.076863019E-1
2.662035572E0,-1.479215622E-1,1.655564308E-1,-7.621831894E-1,7.938595181E-1
2.667061353E0,-2.022800446E-1,1.841783524E-2,-7.766352892E-1,8.027570028E-1
2.672087082E0,-2.617378235E-1,-9.118175507E-2,-7.145650387E-1,7.664359042E-1
2.677112811E0,-3.261175156E-1,-1.581439972E-1,-6.093324423E-1,7.089768565E-1
2.682138540E0,-3.236141205E-1,-1.728296280E-1,-4.800926745E-1,6.042227697E-1
2.687164270E0,-3.021240234E-1,-1.926617622E-1,-3.457830548E-1,4.979592365E-1
2.692189999E0,-2.712812424E-1,-2.416543961E-1,-2.207461149E-1,4.251108171E-1
2.697215728E0,-2.024278641E-1,-3.150429726E-1,-1.096257269E-1,3.901883067E-1
2.702241457E0,-1.434335709E-1,-4.271545410E-1,2.101530135E-2,4.510829570E-1
2.707267186E0,-7.042980194E-2,-5.254778862E-1,1.518875062E-1,5.515044700E-1
2.712292915E0,-2.646255493E-2,-6.195988655E-1,2.921434641E-1,6.855295942E-1
2.717318645E0,-2.588081360E-2,-7.287502289E-1,3.937261701E-1,8.287140699E-1
2.722344374E0,-5.894756317E-2,-8.335442543E-1,4.756118059E-1,9.614974930E-1
2.727370103E0,-1.255512238E-1,-9.673161507E-1,5.520406961E-1,1.120808893E0
2.732395832E0,-2.207345963E-1,-1.081915617E0,6.083770990E-1,1.260709268E0
2.737421561E0,-2.726182938E-1,-1.172336817E0,6.781046391E-1,1.381492037E0
2.742447290E0,-3.433876038E-1,-1.200248480E0,7.227960229E-1,1.442548284E0
2.747473020E0,-4.138898849E-1,-1.227892876E0,7.087741494E-1,1.476951775E0
2.752498749E0,-5.605621338E-1,-1.245506287E0,6.504136324E-1,1.512796652E0
2.757524478E0,-7.353849411E-1,-1.243288517E0,5.667772293E-1,1.551706730E0
2.762550207E0,-8.759889603E-1,-1.225655317E0,4.485376477E-1,1.571869472E0
2.767575936E0,-9.679975510E-1,-1.197207689E0,3.438355923E-1,1.577513367E0
2.772600415E0,-9.684572220E-1,-1.129307270E0,2.672252059E-1,1.511507066E0
2.777626145E0,-9.588727951E-1,-1.046102762E0,2.234975398E-1,1.436565062E0
2.782651874E0,-9.297981262E-1,-9.765446186E-1,1.646862924E-1,1.358412869E0
2.787677603E0,-9.434537888E-1,-9.302272797E-1,1.002804935E-1,1.328715177E0
2.792703332E0,-9.854822159E-1,-9.024324417E-1,-2.699124068E-2,1.336520870E0
2.797729061E0,-1.041422367E0,-8.881602287E-1,-1.737540215E-1,1.379702721E0
2.802754790E0,-1.082526684E0,-8.538181782E-1,-3.590109348E-1,1.424695881E0
2.807780520E0,-1.094529629E0,-8.091368675E-1,-5.203596950E-1,1.457213708E0
2.812806249E0,-1.072666645E0,-7.349505424E-1,-6.148322821E-1,1.438327072E0
2.817831978E0,-1.055261135E0,-6.648194790E-1,-6.377184987E-1,1.400801873E0
2.822857707E0,-1.051895618E0,-6.083517075E-1,-6.561230421E-1,1.380968370E0
2.827883436E0,-1.062553883E0,-5.703122616E-1,-6.939360499E-1,1.391338949E0
2.832909165E0,-1.096784115E0,-5.315492153E-1,-7.127059698E-1,1.411888722E0
2.837934895E0,-1.101893902E0,-5.014834404E-1,-7.168452144E-1,1.406955178E0
2.842960624E0,-1.058852673E0,-4.659028053E-1,-7.203937173E-1,1.362791809E0
2.847986353E0,-1.001199722E0,-4.104671478E-1,-6.947377920E-1,1.285902315E0
2.853012082E0,-9.433794022E-1,-3.449590206E-1,-6.590352058E-1,1.201369562E0
2.858037811E0,-9.046030045E-1,-2.982792854E-1,-6.515495777E-1,1.154033786E0
2.863063540E0,-8.609542847E-1,-2.656693459E-1,-6.529231668E-1,1.112713415E0
2.868089270E0,-8.220233917E-1,-2.710721493E-1,-6.343539953E-1,1.073129796E0
2.873114999E0,-7.352170944E-1,-2.188391685E-1,-5.766692758E-1,9.596781811E-1
2.878140728E0,-6.246061325E-1,-1.810193062E-1,-5.375679135E-1,8.437298570E-1
2.883166457E0,-5.237760544E-1,-1.625692844E-1,-5.124850869E-1,7.506071487E-1
2.888192186E0,-4.661493301E-1,-1.777148247E-1,-5.207817554E-1,7.211736224E-1
2.893217915E0,-4.325227737E-1,-1.833238602E-1,-5.769360662E-1,7.440018897E-1
2.898243645E0,-4.658889771E-1,-1.793591976E-1,-6.616300941E-1,8.288405408E-1
2.903269374E0,-5.134754181E-1,-1.512937546E-1,-7.124122381E-1,8.911105443E-1
2.908295103E0,-5.417261124E-1,-1.181430817E-1,-7.387335300E-1,9.236623826E-1
2.913320832E0,-5.649318695E-1,-7.972097397E-2,-7.405965924E-1,9.348725922E-1
2.918346561E0,-5.687103271E-1,-3.593897820E-2,-7.418243885E-1,9.354284953E-1
2.923372290E0,-5.770168304E-1,-5.983352661E-3,-7.329294682E-1,9.328289385E-1
2.928398020E0,-5.802202225E-1,1.030731201E-2,-7.093349695E-1,9.164703193E-1
2.933423749E0,-6.069803238E-1,1.304316521E-2,-6.902251244E-1,9.192420573E-1
2.938449478E0,-6.237115860E-1,3.112649918E-2,-6.804930568E-1,9.236102001E-1
2.943475207E0,-6.160373688E-1,4.550242424E-2,-6.369686127E-1,8.873001318E-1
2.948500936E0,-6.031570435E-1,1.134657860E-1,-5.694508553E-1,8.372258836E-1
2.953526665E0,-5.564012527E-1,1.822919846E-1,-5.018607378E-1,7.711529821E-1
2.958552395E0,-5.284614563E-1,2.614452839E-1,-4.392477870E-1,7.352304167E-1
2.963578124E0,-4.428796768E-1,3.602826595E-1,-3.578639627E-1,6.738045849E-1
2.968603853E0,-3.381071091E-1,4.497952461E-1,-2.673839927E-1,6.229978974E-1
2.973629582E0,-2.334642410E-1,5.343945026E-1,-1.487964690E-1,6.018500025E-1
2.978655311E0,-1.577272415E-1,6.091141701E-1,-4.050329328E-2,6.305065199E-1
2.983681040E0,-9.177780151E-2,6.786575317E-1,9.078870714E-2,6.908268955E-1
2.988706770E0,-4.525375366E-2,7.428421974E-1,1.874778718E-1,7.674701199E-1
2.993732499E0,-2.770137787E-2,7.825500965E-1,2.063885331E-1,8.097828391E-1
2.998758228E0,-5.821704865E-2,7.882478237E-1,1.188484132E-1,7.992801772E-1
3.003783957E0,-1.558284760E-1,7.648515701E-1,1.776471734E-3,7.805662010E-1
3.008809686E0,-2.868719101E-1,7.604553699E-1,-1.301070005E-1,8.231134151E-1
3.013835415E0,-3.842601776E-1,7.560908794E-1,-2.333298326E-1,8.796431736E-1
3.018861145E0,-4.861707687E-1,7.472553253E-1,-3.124209046E-1,9.446477435E-1
3.023886874E0,-6.115798950E-1,6.960248947E-1,-3.863322735E-1,1.003859177E0
3.028912603E0,-7.411832809E-1,6.840844154E-1,-4.024668932E-1,1.085957524E0
3.033938332E0,-8.318061829E-1,6.925363541E-1,-3.847631216E-1,1.148717018E0
3.038964061E0,-8.691492081E-1,7.309181690E-1,-3.333947659E-1,1.183559794E0
3.043989790E0,-9.106636047E-1,7.800624371E-1,-2.866720557E-1,1.232877315E0
3.049015572E0,-9.277081490E-1,8.350279331E-1,-2.637813687E-1,1.275732993E0
3.054041353E0,-9.442181587E-1,8.910248280E-1,-2.406677753E-1,1.320376520E0
3.059067134E0,-9.459042549E-1,9.383406639E-1,-1.934136748E-1,1.346338334E0
3.064092915E0,-9.184575081E-1,1.005633354E0,-1.699994951E-1,1.372502264E0
3.069118697E0,-8.428220749E-1,1.054517746E0,-1.560003906E-1,1.358930774E0
3.074144478E0,-7.621612549E-1,1.075307608E0,-1.706447750E-1,1.329020643E0
3.079170259E0,-6.909570694E-1,1.067745686E0,-2.139482647E-1,1.289680728E0
3.084196040E0,-6.196784973E-1,1.084374905E0,-2.620561123E-1,1.276144106E0
3.089221822E0,-5.819139481E-1,1.120135307E0,-3.149473965E-1,1.300968413E0
3.094247603E0,-5.490598679E-1,1.155578613E0,-3.391701877E-1,1.323580404E0
3.099273384E0,-5.546798706E-1,1.166592598E0,-3.871387839E-1,1.348511953E0
3.104299165E0,-6.130533218E-1,1.138895988E0,-4.491924942E-1,1.369194049E0
3.109324947E0,-7.240104675E-1,1.039282560E0,-5.203686953E-1,1.369336692E0
3.114350728E0,-8.203539848E-1,9.447238445E-1,-5.717228651E-1,1.375627434E0
3.119376509E0,-9.305996895E-1,8.412728310E-1,-5.074585676E-1,1.353244234E0
3.124402290E0,-9.875559807E-1,7.485337257E-1,-3.709498048E-1,1.293512007E0
3.129428072E0,-1.005462170E0,6.573040485E-1,-1.627227962E-1,1.212221719E0
3.134453853E0,-9.603228569E-1,6.013505459E-1,7.837282121E-2,1.135774963E0
3.139479634E0,-8.760972023E-1,5.663444996E-1,2.944329083E-1,1.083966391E0
3.144505415E0,-7.481293678E-1,5.138318539E-1,5.426100492E-1,1.057424414E0
3.149531197E0,-6.147375107E-1,4.629421234E-1,7.508793473E-1,1.075191802E0
3.154556978E0,-4.711074829E-1,4.137516022E-1,9.331762195E-1,1.124255534E0
3.159582759E0,-3.364267349E-1,3.900656700E-1,1.065222740E0,1.183230181E0
3.164608540E0,-2.251653671E-1,4.154620171E-1,1.108831525E0,1.205327956E0
3.169634322E0,-1.086616516E-1,4.562387466E-1,1.121502876E0,1.215619122E0
3.174660103E0,1.294708252E-2,5.407576561E-1,1.089222431E0,1.216138139E0
3.179685884E0,1.347265244E-1,6.160430908E-1,1.079056263E0,1.249809083E0
3.184711665E0,2.327632904E-1,6.438112259E-1,1.057619095E0,1.259853084E0
3.189737447E0,2.831659317E-1,6.240782738E-1,9.437402487E-1,1.166319979E0
3.194763228E0,2.812585831E-1,5.760712624E-1,7.714295387E-1,1.003029423E0
3.199789009E0,1.937694550E-1,5.383005142E-1,5.794845223E-1,8.143195668E-1
3.204814790E0,6.881713867E-2,5.349669456E-1,4.401557744E-1,6.961770875E-1
3.209840572E0,-4.551506042E-2,5.902853012E-1,3.345267773E-1,6.800121486E-1
3.214866353E0,-1.107692719E-1,6.614818573E-1,2.530658841E-1,7.168475576E-1
3.219892134E0,-1.412134171E-1,7.343902588E-1,1.957322508E-1,7.730338902E-1
3.224917915E0,-1.558256149E-1,7.806072235E-1,1.479226798E-1,8.096359545E-1
3.229943645E0,-1.928091049E-1,7.715315819E-1,9.030729532E-2,8.003697523E-1
3.234969374E0,-2.280864716E-1,7.695546150E-1,2.782297879E-2,8.031263052E-1
3.239995103E0,-2.854299545E-1,7.700276375E-1,-1.541233808E-2,8.213710255E-1
3.245020832E0,-3.788819313E-1,7.637486458E-1,-6.334660202E-2,8.549130387E-1
3.250046561E0,-5.176730156E-1,7.415175438E-1,-9.689091891E-2,9.095171626E-1
3.255072290E0,-6.918482780E-1,6.989617348E-1,-1.495389491E-1,9.947680352E-1
3.260098020E0,-7.909641266E-1,6.652693748E-1,-1.733119488E-1,1.047971671E0
3.265123749E0,-8.043832779E-1,6.264920235E-1,-2.335384041E-1,1.045975573E0
3.270149478E0,-7.192354202E-1,5.684852600E-1,-3.404903412E-1,9.779615294E-1
3.275175207E0,-5.409526825E-1,5.056128502E-1,-4.650663435E-1,8.743917102E-1
3.280200936E0,-2.606654167E-1,4.473686218E-1,-6.017978191E-1,7.938801915E-1
3.285226665E0,8.276700974E-2,3.411884308E-1,-7.598447204E-1,8.370328084E-1
3.290252395E0,3.872294426E-1,2.030839920E-1,-9.214394093E-1,1.019921729E0
3.295278124E0,6.668419838E-1,4.510211945E-2,-1.038082242E0,1.234636454E0
3.300303853E0,1.046279430E0,-1.182980537E-1,-1.057412982E0,1.492252422E0
3.305329582E0,1.559149265E0,-3.301634789E-1,-1.008596182E0,1.886059546E0
3.310355311E0,2.315325737E0,-5.668301582E-1,-8.732725382E-1,2.538628492E0
3.315381040E0,3.280944824E0,-8.287405968E-1,-7.384941578E-1,3.463637328E0
3.320406770E0,4.326058865E0,-1.073841095E0,-6.958084702E-1,4.511326792E0
3.325432499E0,5.449787617E0,-1.202908039E0,-8.119892478E-1,5.639725114E0
3.330458228E0,6.502556324E0,-1.227215290E0,-1.067482233E0,6.702895974E0
3.335483957E0,7.425574303E0,-1.158142567E0,-1.408746004E0,7.646241772E0
3.340509686E0,8.169519424E0,-9.879198074E-1,-1.677019596E0,8.398180035E0
3.345535415E0,8.675758362E0,-7.657918930E-1,-1.766496420E0,8.886829017E0
3.350561145E0,8.508285522E0,-4.065341949E-1,-1.390272856E0,8.630703980E0
3.355586874E0,8.514438629E0,-2.160220146E-1,-9.271538258E-1,8.567493501E0
3.360612603E0,8.989789009E0,-2.757120132E-1,-1.036557317E0,9.053550387E0
3.365638332E0,9.081547737E0,-2.797679901E-1,-1.090681076E0,9.151085435E0
3.370664061E0,8.870788574E0,-1.998882294E-1,-8.941007257E-1,8.917974060E0
3.375689790E0,8.539449692E0,2.250671387E-3,-5.390184522E-1,8.556444764E0
3.380715520E0,8.097665787E0,3.080449104E-1,-1.126764864E-1,8.104306192E0
3.385741249E0,7.574516296E0,6.987023354E-1,2.452956736E-1,7.610627572E0
3.390766978E0,7.099422455E0,1.131448746E0,4.389746785E-1,7.202407530E0
3.395792707E0,6.586290359E0,1.553845406E0,5.255708694E-1,6.787479722E0
3.400818436E0,6.063654423E0,1.956300735E0,5.291117430E-1,6.393354109E0
3.405844165E0,5.517098427E0,2.314987659E0,5.073833466E-1,6.004579983E0
3.410869895E0,4.951530457E0,2.644491673E0,4.413702488E-1,5.630790155E0
3.415895624E0,4.386049747E0,2.954451561E0,3.551943302E-1,5.300224469E0
3.420921353E0,3.892475605E0,3.249803543E0,2.729534209E-1,5.078099347E0
3.425947082E0,3.489542484E0,3.582952499E0,1.472291648E-1,5.003611874E0
3.430972811E0,3.148112774E0,3.929679394E0,-2.120383084E-3,5.035176131E0
3.435998540E0,2.710133076E0,4.132017612E0,-2.891702354E-1,4.949950531E0
3.441024270E0,2.104448795E0,4.128353596E0,-7.418242097E-1,4.692793550E0
3.446049999E0,1.437391758E0,3.996220589E0,-1.301599264E0,4.441850369E0
3.451075728E0,9.348869324E-1,3.918410778E0,-1.794888616E0,4.410167995E0
3.456101457E0,6.931428909E-1,3.900269985E0,-2.181976318E0,4.522562734E0
3.461127186E0,7.504391670E-1,3.822412014E0,-2.476048470E0,4.615713225E0
3.466152915E0,1.077910900E0,3.531966209E0,-2.676852942E0,4.560944955E0
3.471178645E0,1.325762272E0,2.976167679E0,-2.746231794E0,4.261104167E0
3.476204374E0,1.159183979E0,2.556792736E0,-2.669483185E0,3.873891721E0
3.481230103E0,1.000311852E0,2.556345463E0,-2.336357355E0,3.604731837E0
3.486255832E0,1.486495972E0,2.702709675E0,-1.847831726E0,3.595662936E0
3.491281561E0,2.297073841E0,2.632604122E0,-1.434844136E0,3.777026660E0
3.496307290E0,3.134219170E0,2.149283886E0,-1.296109796E0,4.015302184E0
3.501333020E0,3.599184990E0,1.457160950E0,-1.194337130E0,4.062498222E0
3.506358749E0,3.609929085E0,9.760227203E-1,-7.899677753E-1,3.822075017E0
3.511384478E0,3.410816669E0,9.299883842E-1,4.687723517E-2,3.535639436E0
3.516410207E0,3.261178493E0,1.075157642E0,1.129194140E0,3.614737685E0
3.521435936E0,3.080555439E0,1.163396835E0,2.039092064E0,3.873139612E0
3.526461665E0,2.845627785E0,1.080625534E0,2.573497534E0,3.986005343E0
3.531487395E0,2.609168530E0,8.703107834E-1,2.864897966E0,3.971503699E0
3.536513124E0,2.457169533E0,6.473250389E-1,3.156797409E0,4.052416773E0
3.541538853E0,2.293772221E0,4.593486786E-1,3.616555691E0,4.307187861E0
3.546564582E0,2.128654957E0,3.303418159E-1,4.133622169E0,4.661236947E0
3.551590311E0,1.919050694E0,2.462482452E-1,4.644904613E0,5.031752441E0
3.556616040E0,1.636507034E0,1.690831184E-1,5.106323719E0,5.364819316E0
3.561641770E0,1.209681511E0,7.067012787E-2,5.430609703E0,5.564157202E0
3.566667499E0,6.680583954E-1,-5.288743973E-2,5.564592361E0,5.604800376E0
3.571693228E0,5.558538437E-2,-1.814312935E-1,5.513187408E0,5.516451980E0
3.576718957E0,-5.694899559E-1,-2.853031158E-1,5.267598152E0,5.305968994E0
3.581744686E0,-1.163286686E0,-3.634958267E-1,4.919716835E0,5.068429625E0
3.586770415E0,-1.705932140E0,-4.054684639E-1,4.470670223E0,4.802239206E0
3.591796145E0,-2.192091942E0,-4.056334496E-1,4.002887726E0,4.581802672E0
3.596821874E0,-2.583114624E0,-3.681268692E-1,3.546032667E0,4.402538612E0
3.601847603E0,-2.835964680E0,-2.927408218E-1,3.134397745E0,4.237079428E0
3.606873332E0,-2.922139645E0,-1.842131615E-1,2.787760258E0,4.042825973E0
3.611899061E0,-2.842297554E0,-5.267333984E-2,2.516093969E0,3.796334907E0
3.616924790E0,-2.668705940E0,6.323862076E-2,2.324404716E0,3.539611251E0
3.621950520E0,-2.492908001E0,1.724014282E-1,2.160059452E0,3.303054555E0
3.626976249E0,-2.267654896E0,2.931551933E-1,2.018475771E0,3.049990677E0
3.632001978E0,-2.060467720E0,3.864598274E-1,1.890402555E0,2.822853210E0
3.637027707E0,-1.867030144E0,4.563627243E-1,1.780942440E0,2.620271831E0
3.642053488E0,-1.668674946E0,4.925498962E-1,1.680693626E0,2.419051992E0
3.647079270E0,-1.465744495E0,5.088510513E-1,1.580175519E0,2.214563386E0
3.652105051E0,-1.339890003E0,4.903030396E-1,1.422311306E0,2.014614539E0
3.657130832E0,-1.296011448E0,4.364795685E-1,1.236344695E0,1.843558595E0
3.662156613E0,-1.448837757E0,2.133603096E-1,1.165837049E0,1.871851889E0
3.667182395E0,-1.582690716E0,8.921670914E-2,6.564563513E-1,1.715751866E0
3.672208176E0,-1.783504009E0,6.502628326E-3,3.280189335E-1,1.813429143E0
3.677233957E0,-2.242211342E0,-2.208766937E-1,2.090883851E-1,2.262745272E0
3.682259738E0,-2.613685131E0,-3.767180443E-1,-1.594239473E-2,2.640742435E0
3.687285520E0,-2.864325047E0,-4.941701889E-1,-2.222223282E-1,2.915123481E0
3.692311301E0,-3.051373482E0,-6.348872185E-1,-3.711942434E-1,3.138749285E0
3.697337082E0,-3.232011795E0,-7.982707024E-1,-4.147941470E-1,3.354875637E0
3.702362863E0,-3.396531105E0,-9.886636734E-1,-3.630457520E-1,3.556076718E0
3.707388645E0,-3.492158890E0,-1.167314529E0,-2.879773378E-1,3.693335602E0
3.712414426E0,-3.537912369E0,-1.324165344E0,-1.945772767E-1,3.782604672E0
3.717440207E0,-3.514634132E0,-1.468523502E0,-5.909013748E-2,3.809554568E0
3.722465988E0,-3.460702896E0,-1.547696114E0,1.225944161E-1,3.793001079E0
3.727491770E0,-3.361947060E0,-1.628762245E0,2.919455469E-1,3.747103773E0
3.732517551E0,-3.237771034E0,-1.688054085E0,4.242364764E-1,3.675957624E0
3.737543332E0,-3.117110729E0,-1.759377956E0,5.334272385E-1,3.618885838E0
3.742569113E0,-3.004814625E0,-1.828390121E0,6.717698574E-1,3.580949051E0
3.747594895E0,-2.920146465E0,-1.861768246E0,8.099666834E-1,3.556611085E0
3.752620676E0,-2.853648663E0,-1.888415337E0,8.758553863E-1,3.532215428E0
3.757646457E0,-2.810230732E0,-1.913328648E0,9.266102910E-1,3.523752249E0
3.762672238E0,-2.761253834E0,-1.936598301E0,9.572728872E-1,3.505896047E0
3.767698020E0,-2.716350555E0,-1.953502893E0,9.725405574E-1,3.484331935E0
3.772723801E0,-2.718685150E0,-2.026369572E0,9.863903522E-1,3.531343726E0
3.777749582E0,-3.423306465E0,-2.546797037E0,1.098098516E0,4.405794214E0
3.782775363E0,-3.370147705E0,-2.847770929E0,9.949633479E-1,4.523013032E0
3.787801145E0,-3.090787411E0,-3.044071674E0,5.400394201E-1,4.371610888E0
3.792826926E0,-3.073071003E0,-3.212048769E0,1.177990437E-1,4.446897716E0
3.797852707E0,-3.153975010E0,-3.308467865E0,-2.142339945E-1,4.575960465E0
3.802878488E0,-3.108545780E0,-3.280675411E0,-3.986945748E-1,4.537052500E0
3.807904270E0,-2.932190418E0,-3.109755993E0,-5.027180910E-1,4.303608772E0
3.812930051E0,-3.371172905E0,-2.843719482E0,-1.490038037E-1,4.412907135E0
3.817955780E0,-3.161964893E0,-2.879035711E0,-1.231518388E-1,4.278087772E0
3.822981509E0,-2.463278770E0,-3.168164730E0,-5.472321510E-1,4.050243583E0
3.828007238E0,-1.821234226E0,-3.616242170E0,-9.505332708E-1,4.159040159E0
3.833032967E0,-1.370126724E0,-4.152539253E0,-1.279921055E0,4.556207567E0
3.838058697E0,-9.618754387E-1,-4.653645992E0,-1.511233926E0,4.986527184E0
3.843084426E0,-5.057687759E-1,-5.053164005E0,-1.663623095E0,5.343960172E0
3.848110155E0,-5.941677094E-2,-5.356324673E0,-1.770921826E0,5.641800109E0
3.853135884E0,2.910881042E-1,-5.654080868E0,-1.857522845E0,5.958502653E0
3.858161613E0,4.982538223E-1,-6.070207596E0,-1.947980642E0,6.394552816E0
3.863187342E0,6.247129440E-1,-6.532169819E0,-2.090494156E0,6.886920547E0
3.868213072E0,6.134395599E-1,-6.938986301E0,-2.170151234E0,7.296258998E0
3.873238801E0,5.365142822E-1,-7.256964207E0,-2.230041504E0,7.610812189E0
3.878264530E0,3.751478195E-1,-7.495413303E0,-2.298536301E0,7.848899643E0
3.883290259E0,1.201944351E-1,-7.611034870E0,-2.336610317E0,7.962540190E0
3.888315988E0,-1.561841965E-1,-7.665797234E0,-2.324654579E0,8.012044661E0
3.893341717E0,-3.579902649E-1,-7.712056637E0,-2.290802479E0,8.053058462E0
3.898367447E0,-3.749866486E-1,-7.864455223E0,-2.267396450E0,8.193372786E0
3.903393176E0,-2.214050293E-1,-8.089223862E0,-2.167358160E0,8.377470040E0
3.908418905E0,9.803962708E-2,-8.400602341E0,-1.908700705E0,8.615269574E0
3.913444634E0,5.210618973E-1,-8.774753571E0,-1.525146484E0,8.921540087E0
3.918470363E0,9.807281494E-1,-9.144536972E0,-1.036779165E0,9.255230693E0
3.923496092E0,1.410081863E0,-9.409536362E0,-4.591940641E-1,9.525679219E0
3.928521822E0,1.861699104E0,-9.498273849E0,1.775159836E-1,9.680632293E0
3.933547551E0,2.282769203E0,-9.387262344E0,8.813745975E-1,9.700956176E0
3.938573280E0,2.596387863E0,-9.134690285E0,1.674761057E0,9.643060776E0
3.943599009E0,2.788028717E0,-8.798400879E0,2.474843502E0,9.555616804E0
3.948624738E0,2.809961319E0,-8.397451401E0,3.270689964E0,9.439835035E0
3.953650467E0,2.691099167E0,-7.922081470E0,4.041913986E0,9.291849021E0
3.958676197E0,2.508316994E0,-7.357559204E0,4.763547897E0,9.116837179E0
3.963701926E0,2.372110844E0,-6.674530983E0,5.401123047E0,8.907772104E0
3.968727655E0,2.392625332E0,-5.843988895E0,6.006053448E0,8.714903339E0
3.973753384E0,2.579136848E0,-4.904307842E0,6.538513184E0,8.570667240E0
3.978779113E0,2.863936424E0,-3.894375801E0,6.939266205E0,8.457050915E0
3.983804842E0,3.308359623E0,-2.867601871E0,7.125220299E0,8.362843308E0
3.988830572E0,3.863416672E0,-1.868267536E0,6.975708485E0,8.190050112E0
3.993856301E0,4.470623970E0,-9.074711800E-1,6.620325565E0,8.039819228E0
3.998882030E0,5.071492195E0,-1.084852219E-2,6.103091240E0,7.935229893E0
4.003907759E0,5.588711262E0,8.535017967E-1,5.325683594E0,7.766921181E0
4.008933488E0,6.045701504E0,1.746315002E0,4.362992764E0,7.657403517E0
4.013959217E0,6.408603668E0,2.718942165E0,3.338227749E0,7.720531846E0
4.018984947E0,6.710345268E0,3.707893848E0,2.302685738E0,8.004971706E0
4.024010676E0,6.964635372E0,4.678700447E0,1.350312233E0,8.498219041E0
4.029036405E0,7.170686245E0,5.673609257E0,5.264439583E-1,9.158915136E0
4.034062134E0,7.432835579E0,6.624896049E0,-2.291012406E-1,9.959356394E0
4.039087863E0,7.821760178E0,7.517534733E0,-8.375584483E-1,1.088093585E1
4.044113592E0,8.341054916E0,8.327061653E0,-1.192389727E0,1.184630517E1
4.049139322E0,8.922434807E0,8.995519638E0,-1.259941697E0,1.273250445E1
4.054165051E0,9.186794281E0,9.469783783E0,-1.050695419E0,1.323548091E1
4.059190780E0,8.469997406E0,9.741307259E0,-3.855779171E-1,1.291443353E1
4.064216509E0,9.480122566E0,9.801050186E0,-6.033462286E-2,1.363586994E1
4.069242238E0,1.047774220E1,9.475919724E0,-1.264154911E-2,1.412714748E1
4.074267967E0,1.132290077E1,9.013717651E0,1.878665984E-1,1.447378602E1
4.079293697E0,1.183296967E1,8.327289581E0,7.306398153E-1,1.448781410E1
4.084319426E0,1.210877037E1,7.459639549E0,1.383200407E0,1.428921920E1
4.089345155E0,1.207959366E1,6.444738865E0,1.985257864E0,1.383446749E1
4.094370884E0,1.125039005E1,5.198141575E0,2.596487045E0,1.266229431E1
4.099396613E0,1.026573944E1,3.971160650E0,3.027943611E0,1.141595225E1
4.104422342E0,9.367399216E0,2.875838041E0,3.153975725E0,1.029398734E1
4.109448072E0,8.638725281E0,1.999896049E0,3.022410154E0,9.368143990E0
4.114473801E0,7.952066898E0,1.287042141E0,2.834675550E0,8.539744194E0
4.119499530E0,7.151122570E0,6.619324684E-1,2.662803411E0,7.659453676E0
4.124525259E0,6.361691475E0,1.543765068E-1,2.459081411E0,6.822172082E0
4.129550988E0,5.699514389E0,-2.252836227E-1,2.166362524E0,6.101503386E0
4.134576717E0,5.150725365E0,-5.196933746E-1,1.828310966E0,5.490243526E0
4.139602447E0,4.639094353E0,-7.955703735E-1,1.393211961E0,4.908682939E0
4.144628176E0,4.088541985E0,-1.128948689E0,9.004639387E-1,4.336073801E0
4.149653905E0,3.480456352E0,-1.447382927E0,4.375836849E-1,3.794729666E0
4.154679634E0,2.853540421E0,-1.673750401E0,1.347596943E-1,3.310935443E0
4.159705363E0,2.308539391E0,-1.750194073E0,-7.002419233E-2,2.897833121E0
4.164731092E0,1.821527481E0,-1.671925068E0,-4.501517117E-1,2.513151878E0
4.169756822E0,1.258642197E0,-1.477435112E0,-1.246908426E0,2.306897335E0
4.174782551E0,7.302074432E-1,-1.276803017E0,-2.298609972E0,2.728925916E0
4.179808280E0,2.556123734E-1,-1.126989841E0,-3.398650646E0,3.589745117E0
4.184834009E0,-2.845830917E-1,-1.046579361E0,-4.268129349E0,4.403776111E0
4.189859738E0,-8.613114357E-1,-9.199924469E-1,-4.863381863E0,5.024014991E0
4.194885467E0,-1.268822670E0,-7.806129456E-1,-5.285072327E0,5.491016030E0
4.199911197E0,-1.306556702E0,-1.011105061E0,-5.977726936E0,6.201825794E0
4.204936926E0,-1.324536324E0,-1.018580914E0,-6.504917145E0,6.716088937E0
4.209962655E0,-1.719720840E0,-6.410846710E-1,-6.375120163E0,6.634047514E0
4.214988384E0,-2.223650455E0,-2.903871536E-1,-6.172975063E0,6.567691160E0
4.220014113E0,-2.740448952E0,-9.145259857E-3,-6.065113068E0,6.655504535E0
4.225039842E0,-3.356063843E0,5.542254448E-2,-6.064206123E0,6.931149406E0
4.230065572E0,-3.874680996E0,-6.195831299E-2,-6.157583237E0,7.275494689E0
4.235091301E0,-4.163478374E0,-2.506210804E-1,-6.121766090E0,7.407657063E0
4.240117030E0,-4.439182281E0,-4.100806713E-1,-5.815406799E0,7.327582257E0
4.245142759E0,-4.707693577E0,-4.737358093E-1,-5.179893494E0,7.015561349E0
4.250168540E0,-4.903200626E0,-4.999847412E-1,-4.410928726E0,6.614200885E0
4.255194322E0,-4.993429184E0,-5.088946819E-1,-3.555763483E0,6.151159465E0
4.260220103E0,-4.841197491E0,-5.351834297E-1,-2.752055883E0,5.594410249E0
4.265245884E0,-4.515308380E0,-5.951802731E-1,-1.927224874E0,4.945345796E0
4.270271665E0,-4.217942238E0,-6.530342102E-1,-1.144145727E0,4.418886720E0
4.275297447E0,-4.054837704E0,-7.155582905E-1,-5.188310146E-1,4.150050372E0
4.280323228E0,-4.437384605E0,-7.843821049E-1,-1.097490788E-1,4.507513980E0
4.285349009E0,-5.604377747E0,-8.498747349E-1,-5.279943943E-1,5.692988237E0
4.290374790E0,-6.397859573E0,-9.300203323E-1,-1.120333195E0,6.561454976E0
4.295400572E0,-6.976001740E0,-1.219093561E0,-1.765838385E0,7.298559761E0
4.300426353E0,-7.960997105E0,-1.618969440E0,-3.122195959E0,8.703254825E0
4.305452134E0,-8.914061546E0,-2.154823542E0,-5.014421463E0,1.045218543E1
4.310477915E0,-9.500151634E0,-2.789721727E0,-4.608732224E0,1.092134795E1
4.315503697E0,-9.751901627E0,-3.540549278E0,-3.592532873E0,1.097913325E1
4.320529478E0,-1.003676510E1,-3.823033333E0,-2.480067015E0,1.102283856E1
4.325555259E0,-9.901184082E0,-3.747708082E0,-1.720747709E0,1.072565778E1
4.330581040E0,-9.001311302E0,-3.515659571E0,-1.981734753E0,9.864620621E0
4.335606822E0,-7.560271263E0,-3.212380648E0,-2.508544207E0,8.588939692E0
4.340632603E0,-6.463527679E0,-2.866103649E0,-3.373108387E0,7.833875183E0
4.345658384E0,-5.759661674E0,-2.433989048E0,-3.807393551E0,7.320809446E0
4.350684165E0,-5.128836155E0,-1.956357241E0,-3.002716303E0,6.256884141E0
4.355709947E0,-4.959854603E0,-1.546592474E0,-1.992221117E0,5.564265535E0
4.360735728E0,-4.769957542E0,-1.173445702E0,-1.344898462E0,5.092958045E0
4.365761509E0,-4.467919350E0,-1.028901339E0,-9.954438210E-1,4.691678770E0
4.370787290E0,-4.287997723E0,-1.217642307E0,-8.295190334E-1,4.534057684E0
4.375813072E0,-4.273928165E0,-1.523001909E0,-1.058672428E0,4.659053991E0
4.380838853E0,-4.071356297E0,-1.680964231E0,-9.604408741E-1,4.508217998E0
4.385864634E0,-3.865025520E0,-1.590950966E0,-1.201765299E0,4.348998400E0
4.390890415E0,-3.653862953E0,-1.381577015E0,-1.713597775E0,4.265663707E0
4.395916197E0,-3.462444305E0,-1.066009760E0,-2.669132471E0,4.499907280E0
4.400941978E0,-2.865298271E0,-7.241637707E-1,-3.204746008E0,4.359443121E0
4.405967759E0,-1.656791687E0,-3.273625374E-1,-2.867974520E0,3.328273242E0
4.410993540E0,4.021104813E0,8.564652205E-1,-1.001680613E0,4.231569524E0
4.416019322E0,4.265285492E0,1.494012594E0,-3.129682541E0,5.497239923E0
4.421045051E0,2.863293648E0,2.145891190E0,-4.117596149E0,5.455079977E0
4.426070780E0,2.252391815E0,2.395231962E0,-3.009556532E0,4.457335029E0
4.431096509E0,1.733626366E0,2.385984659E0,-2.276729345E0,3.725839460E0
4.436122238E0,1.908956528E0,2.180891514E0,-1.491026640E0,3.259380809E0
4.441147967E0,2.318171501E0,1.937839866E0,-4.797117710E-1,3.059291721E0
4.446173697E0,2.683436394E0,1.953495145E0,-1.558163166E-1,3.322838077E0
4.451199426E0,3.009054184E0,2.184258938E0,-2.874889374E-1,3.729349015E0
4.456225155E0,3.203183174E0,2.399831533E0,-3.407588005E-1,4.016925490E0
4.461250884E0,3.331734657E0,2.619020939E0,-3.365850449E-1,4.251236996E0
4.466276613E0,3.613547325E0,2.931870699E0,-3.250687122E-1,4.664682169E0
4.471302342E0,3.703755379E0,3.141308784E0,3.442029953E-1,4.868685704E0
4.476328072E0,3.655755043E0,3.094088078E0,1.219018221E0,4.942057404E0
4.481353801E0,3.418897629E0,2.810331821E0,2.070095301E0,4.885910406E0
4.486379530E0,2.985894203E0,2.386993885E0,2.902501822E0,4.799772997E0
4.491405259E0,2.649772644E0,1.853944302E0,3.857999325E0,5.034139780E0
4.496430988E0,2.338048935E0,1.312629938E0,3.690936804E0,4.562070217E0
4.501456717E0,7.734565735E-1,-2.904193401E-1,1.037931442E-2,8.262482644E-1
4.506482447E0,-1.203458309E0,-1.128679991E0,-2.315438986E0,2.843147573E0
4.511508176E0,-2.438810349E0,-1.388866663E0,-5.864531517E0,6.501498015E0
4.516533905E0,-2.441837311E0,-7.623453140E-1,-9.139089584E0,9.490347636E0
4.521559634E0,-1.066316128E0,6.827278137E-1,-1.084252644E1,1.091620478E1
4.526585363E0,1.380492210E0,2.016977072E0,-9.791143417E0,1.009160268E1
4.531611092E0,3.337651253E0,2.334529877E0,-7.464758396E0,8.503679412E0
4.536636822E0,5.482547760E0,2.495457411E0,-5.346224308E0,8.054051898E0
4.541662551E0,8.788269997E0,2.693099976E0,-2.459182739E0,9.514938610E0
4.546688280E0,1.068372917E1,2.191354036E0,9.920563698E-1,1.095117699E1
4.551714009E0,9.835516930E0,1.648675919E0,2.238885403E0,1.022096539E1
4.556739738E0,8.064982414E0,6.660312414E-1,3.862890244E0,8.967132205E0
4.561765467E0,6.130702019E0,-6.131350994E-1,5.838839531E0,8.488432656E0
4.566791197E0,3.910330772E0,-2.087899208E0,7.587027550E0,8.787092630E0
4.571816926E0,1.472218513E0,-3.632365227E0,8.124166489E0,9.020176585E0
4.576842655E0,2.085218430E-1,-4.709570885E0,7.354383469E0,8.735587873E0
4.581868384E0,2.209949493E-2,-5.244334221E0,5.582587719E0,7.659557131E0
4.586894113E0,7.060928345E-1,-5.063575745E0,3.297881126E0,6.083944965E0
4.591919842E0,7.010955811E-1,-4.329887867E0,1.173304558E0,4.540496398E0
4.596945572E0,-6.697378159E-1,-3.638943434E0,-4.592876434E-1,3.728458555E0
4.601971301E0,-1.241611958E0,-2.843839169E0,-1.010235310E0,3.263372006E0
4.606997030E0,-1.923061371E0,-2.636694431E0,-2.781052589E-1,3.275311450E0
4.612022759E0,-1.670980453E0,-2.457905293E0,7.915468216E-1,3.075714628E0
4.617048488E0,-2.505492210E0,-3.357209206E0,1.285609007E0,4.381910016E0
4.622074217E0,-2.479717255E0,-3.794708014E0,1.665710211E0,4.829430306E0
4.627099947E0,-3.001941204E0,-4.075509548E0,1.995901823E0,5.441052578E0
4.632125676E0,-3.479028702E0,-4.244998455E0,2.836438417E0,6.178109378E0
4.637151405E0,-3.389953136E0,-4.316220284E0,4.090132236E0,6.844758689E0
4.642177134E0,-3.229085445E0,-4.250105858E0,4.820134163E0,7.191945909E0
4.647202863E0,-3.112891674E0,-4.112068176E0,4.905344009E0,7.117696194E0
4.652228592E0,-2.985782146E0,-3.866640568E0,4.698981285E0,6.778364805E0
4.657254322E0,-2.825409889E0,-3.544432878E0,4.366954803E0,6.294143288E0
4.662280051E0,-3.149507046E0,-3.332747698E0,3.591650248E0,5.824650492E0
4.667305780E0,-3.752561569E0,-3.196632385E0,2.543720007E0,5.547133351E0
4.672331509E0,-4.194651127E0,-3.013863564E0,1.561046600E0,5.395863058E0
4.677357238E0,-4.351205349E0,-2.743324518E0,7.785584927E-1,5.202400477E0
4.682382967E0,-4.025428295E0,-2.406878710E0,1.331353188E-1,4.691999904E0
4.687408697E0,-3.288094997E0,-2.108453512E0,-3.920772076E-1,3.925668027E0
4.692434426E0,-2.415547848E0,-1.794354081E0,-7.328591347E-1,3.097040601E0
4.697460155E0,-1.487843990E0,-1.301575780E0,-7.152829170E-1,2.102239021E0
4.702485884E0,-7.285737991E-1,-6.543700695E-1,-3.236510754E-1,1.031392257E0
4.707511613E0,-1.667785645E-2,1.608611345E-1,4.759225845E-1,5.026497408E-1
4.712537342E0,8.784713745E-1,1.056222677E0,1.506455898E0,2.038805453E0
4.717563072E0,1.990892410E0,2.096118212E0,2.346860170E0,3.723589237E0
4.722588801E0,2.345033646E0,2.847026348E0,2.275939941E0,4.334125568E0
4.727614530E0,5.452604294E-1,2.722607613E0,8.836340904E-1,2.913882351E0
4.732640259E0,-1.631544590E0,2.192906618E0,-7.596712112E-1,2.836878132E0
4.737665988E0,-3.065469742E0,1.488288641E0,-2.017027140E0,3.959861904E0
4.742691717E0,-3.039711952E0,1.170748472E0,-2.622431755E0,4.181823651E0
4.747717447E0,-1.886280537E0,1.472179413E0,-2.659491062E0,3.577465471E0
4.752743176E0,-4.015445709E-1,1.774972796E0,-1.898452044E0,2.629807337E0
4.757768905E0,8.109779358E-1,1.782425642E0,-1.006609201E0,2.201814812E0
4.762794634E0,1.535577774E0,1.802074194E0,-1.504789591E-1,2.372364731E0
4.767820363E0,1.834064484E0,1.922842264E0,3.576002121E-1,2.681229721E0
4.772846092E0,2.026661873E0,2.105176687E0,5.784447193E-1,2.978879911E0
4.777871822E0,1.945844650E0,2.257613182E0,5.665361881E-1,3.033824638E0
4.782897551E0,1.553600311E0,2.337340117E0,4.143579006E-1,2.836992284E0
4.787923280E0,6.686973572E-1,2.279185295E0,1.664315462E-1,2.381079844E0
4.792949009E0,-3.448667526E-1,1.952164173E0,-8.487842083E-1,2.156458362E0
4.797974738E0,-7.457761765E-1,1.603246689E0,-1.527862668E0,2.336866788E0
4.803000467E0,-2.996330261E-1,1.663381338E0,-1.433830261E-1,1.696224077E0
4.808026197E0,-3.970766068E-1,1.906178713E0,2.120010376E0,2.878477221E0
4.813051926E0,-9.224739075E-1,1.380570292E0,4.834886789E-1,1.729362237E0
4.818077655E0,-1.727813244E0,8.069697022E-1,-1.198204756E0,2.252161926E0
4.823103384E0,-2.406166077E0,6.078230143E-1,-1.877498865E0,3.111926412E0
4.828129113E0,-2.846911907E0,5.301123857E-1,-1.760052204E0,3.388762357E0
4.833154842E0,-4.206835747E0,1.781049967E-1,-1.156648874E0,4.366580471E0
4.838180572E0,-4.208064079E0,-5.804342031E-2,-2.966831684E0,5.149103085E0
4.843206301E0,-3.904964924E0,-1.685310006E-1,-4.320290565E0,5.825981834E0
4.848232030E0,-4.552423000E0,-2.302583605E-1,-4.354897499E0,6.304181653E0
4.853257759E0,-4.246669769E0,5.295006931E-2,-4.078148842E0,5.887979774E0
4.858283488E0,-3.185328484E0,5.778573751E-1,-2.795969486E0,4.277578995E0
4.863309217E0,-2.144284248E0,1.038897634E0,-9.872963428E-1,2.579150500E0
4.868334947E0,-2.611418247E0,9.308248162E-1,8.808915615E-1,2.908936239E0
4.873360676E0,-3.513739109E0,4.884294868E-1,1.824031115E0,3.988986763E0
4.878386405E0,-4.473008633E0,-2.775177360E-2,1.901002169E0,4.860286579E0
4.883412134E0,-5.422727108E0,-5.226864815E-1,1.214711666E0,5.581639085E0
4.888437863E0,-6.425584316E0,-1.020911336E0,7.090966702E-1,6.544708691E0
4.893463592E0,-7.275799751E0,-1.609235883E0,1.004111290E0,7.518985412E0
4.898489322E0,-7.045231819E0,-1.802538872E0,1.512294292E0,7.427750117E0
4.903515103E0,-6.112228394E0,-1.707961321E0,2.330598593E0,6.760780843E0
4.908540884E0,-5.313577175E0,-1.342817903E0,2.474832773E0,6.013489800E0
4.913566665E0,-4.653277874E0,-5.656365752E-1,1.762217045E0,5.007828733E0
4.918592447E0,-3.810694695E0,2.154982686E-1,-4.037833214E-2,3.816996721E0
4.923618228E0,-3.354942799E0,8.281217813E-1,-1.645676851E0,3.827489930E0
4.928644009E0,-2.730780602E0,1.311059117E0,-3.374199152E0,4.534452406E0
4.933669790E0,-3.267882824E0,1.961971164E0,-3.944203854E0,5.484991617E0
4.938695572E0,-4.171351910E0,2.246728420E0,-3.178758383E0,5.705477211E0
4.943721353E0,-5.393015385E0,2.520962238E0,-5.194711685E-1,5.975760691E0
4.948747134E0,-5.254615307E0,2.163126230E0,-5.665636063E-1,5.710612177E0
4.953772915E0,-4.639710426E0,8.519786596E-1,-2.243928194E0,5.223791173E0
4.958798697E0,-5.917169571E0,7.080001831E-1,-2.423811436E0,6.433430023E0
4.963824478E0,-5.373645782E0,1.519438863E0,-3.245316744E0,6.458857811E0
4.968850259E0,-4.961779118E0,2.202325821E0,-4.738588333E0,7.205810879E0
4.973876040E0,-4.986905575E0,3.066104889E0,-5.431223392E0,7.985512754E0
4.978901822E0,-4.836430550E0,2.924643040E0,-5.414635658E0,7.827060539E0
4.983927603E0,-5.811560631E0,2.183638334E0,-4.669865131E0,7.768536135E0
4.988953384E0,-6.686619759E0,2.320381880E0,-4.612714767E0,8.448206519E0
4.993979165E0,-5.854319572E0,2.382457256E0,-4.047255993E0,7.505294219E0
4.999004947E0,-4.625805855E0,1.496557474E0,-2.369819641E0,5.408679063E0
5.004030728E0,-3.420536995E0,1.182030559E0,-1.155220032E0,3.798921281E0
5.009056509E0,-4.513960838E0,1.857608199E0,5.616965294E-1,4.913456387E0
5.014082290E0,-1.835043907E0,2.529932976E0,2.568845510E0,4.045604313E0
5.019108072E0,2.291984558E0,3.501402378E0,4.436156750E0,6.098565285E0
5.024133853E0,6.626534462E0,5.285116673E0,5.785091877E0,1.026210043E1
5.029159634E0,1.000551319E1,6.703777313E0,6.543289185E0,1.370640572E1
5.034185415E0,1.018146706E1,7.438754082E0,5.745473862E0,1.385668805E1
5.039211197E0,9.171158791E0,6.407979965E0,4.743699074E0,1.215216202E1
5.044236978E0,7.889140129E0,4.809260368E0,3.062181473E0,9.733677241E0
5.049262759E0,5.485223770E0,2.496674538E0,1.324037313E0,6.170424488E0
5.054288540E0,2.125831604E0,1.029530764E0,-6.495010853E-1,2.449682686E0
5.059314322E0,5.874547958E-1,-1.990739584E0,-2.416458368E0,3.185501259E0
5.064340103E0,-6.887540817E-1,-3.506092787E0,-3.519135952E0,5.015115818E0
5.069365832E0,-1.435317039E0,-6.104164124E0,-4.732668877E0,7.856151052E0
5.074391561E0,-1.158586025E0,-9.409540176E0,-6.026972771E0,1.123415189E1
5.079417290E0,-1.944694519E-1,-1.153442192E1,-8.736564636E0,1.447094569E1
5.084443020E0,2.452602386E-1,-1.076795387E1,-9.396267891E0,1.429331429E1
5.089468749E0,1.327914238E0,-1.112800026E1,-7.831071854E0,1.367192131E1
5.094494478E0,4.134963989E0,-1.191384315E1,-5.339147568E0,1.369467351E1
5.099520207E0,5.432572365E0,-1.283188438E1,-2.632291079E0,1.418093987E1
5.104545936E0,6.959420204E0,-1.221053886E1,-1.377176523E0,1.412187679E1
5.109571665E0,1.073665237E1,-9.081457138E0,-7.555525303E-1,1.408259307E1
5.114597395E0,1.552601337E1,-7.164178848E0,7.616705894E-1,1.711615295E1
5.119623124E0,1.716125870E1,-4.380860329E0,1.772596836E0,1.780007969E1
5.124648853E0,1.467488289E1,-9.684615135E-1,9.285829067E-1,1.473609079E1
5.129674582E0,1.220039558E1,2.045741796E0,2.237336636E-1,1.237274297E1
5.134700311E0,9.457235336E0,2.743706703E0,-5.611228943E-2,9.847353719E0
5.139726040E0,9.117170334E0,3.596910954E0,1.765971184E-1,9.802639943E0
5.144751770E0,9.908901215E0,4.854969978E0,1.089151859E0,1.108798036E1
5.149777499E0,1.122384834E1,6.287367344E0,1.745391130E0,1.298276357E1
5.154803228E0,1.253291130E1,7.858850479E0,2.109034538E0,1.494267122E1
5.159828957E0,1.352642918E1,9.147783279E0,2.110886812E0,1.646517745E1
5.164854686E0,1.357551479E1,1.077790737E1,1.703775644E0,1.741725411E1
5.169880415E0,1.192099667E1,1.246838856E1,-4.516577721E-2,1.725030187E1
5.174906145E0,1.056778049E1,1.165998936E1,-3.665911913E0,1.615773024E1
5.179931874E0,8.388308525E0,9.207394600E0,-6.883221626E0,1.423090212E1
5.184957603E0,5.941380024E0,6.341644287E0,-7.139726639E0,1.124687269E1
5.189983332E0,4.293994427E0,3.347251415E0,-4.030675888E0,6.774129338E0
5.195009061E0,3.630431175E0,5.095109940E-1,-5.226621628E-1,3.703080840E0
5.200034790E0,3.818305016E0,-2.309338570E0,2.203163624E0,4.976587965E0
5.205060520E0,4.442406654E0,-5.123136997E0,4.134496689E0,7.942013123E0
5.210086249E0,5.041233540E0,-7.356400490E0,5.263621330E0,1.035549966E1
5.215111978E0,5.584807396E0,-9.299543381E0,6.213741302E0,1.250128640E1
5.220137707E0,8.907817841E0,-1.101244164E1,7.604240417E0,1.607630436E1
5.225163436E0,7.130416393E0,-1.266561890E1,8.402452469E0,1.678874467E1
5.230189165E0,2.669464111E0,-1.283633327E1,6.502444744E0,1.463486516E1
5.235214895E0,-1.036024094E0,-1.243024158E1,6.043616295E0,1.386035893E1
5.240240624E0,-4.640663147E0,-1.319357395E1,5.097187996E0,1.488581451E1
5.245266353E0,-5.867747784E0,-1.270216274E1,5.125427246E0,1.490118810E1
5.250292082E0,-4.604092121E0,-1.232375526E1,5.396960258E0,1.421969719E1
5.255317811E0,-3.873297453E0,-1.112695694E1,4.432223797E0,1.258793914E1
5.260343540E0,-5.823925972E0,-7.677577972E0,1.919146776E0,9.825804883E0
5.265369270E0,-9.075012207E0,-3.791025639E0,-4.958348274E-1,9.847516140E0
5.270394999E0,-1.164806747E1,-6.779227257E-1,-1.453960896E0,1.175802098E1
5.275420728E0,-1.246393776E1,1.484229565E0,-2.096235991E0,1.272583542E1
5.280446457E0,-1.218159294E1,2.696790695E0,-2.635069847E0,1.275176379E1
5.285472186E0,-1.156554604E1,3.082756042E0,-3.375566244E0,1.243622480E1
5.290497915E0,-1.053853989E1,3.108116388E0,-4.238356590E0,1.177645435E1
5.295523645E0,-9.442736626E0,2.927141905E0,-4.707222939E0,1.094949234E1
5.300549374E0,-8.598630905E0,2.292391300E0,-3.803162336E0,9.677580022E0
5.305575103E0,-7.628325939E0,1.730523586E0,-2.593599558E0,8.240923928E0
5.310600832E0,-6.242154121E0,1.469869137E0,-1.541778445E0,6.595610975E0
5.315626561E0,-4.631454468E0,1.928397179E0,-1.145025492E0,5.145888606E0
5.320652290E0,-2.763922691E0,2.202604532E0,-2.428391576E-1,3.542556453E0
5.325678020E0,-1.219837666E0,2.652485609E0,2.499506474E-1,2.930214866E0
5.330703749E0,5.032720566E-1,2.926758051E0,1.233982742E-1,2.972275658E0
5.335729478E0,2.170181274E0,3.448135614E0,5.600893497E-1,4.112544961E0
5.340755207E0,3.445773125E0,3.945390224E0,1.007590175E0,5.334294181E0
5.345780936E0,4.220447540E0,4.320617676E0,6.829927564E-1,6.078354518E0
5.350806665E0,3.949997902E0,3.649976492E0,-9.658468366E-1,5.464217412E0
5.355832395E0,1.891708374E0,3.452563286E0,-3.927439928E0,5.560893652E0
5.360858124E0,8.534269333E-1,3.032019138E0,-4.997081280E0,5.906970366E0
5.365883853E0,-1.961193085E-1,1.912943125E0,-3.468503952E0,3.965896348E0
5.370909582E0,-7.761540413E-1,4.013662338E-1,-9.551837444E-1,1.294560132E0
5.375935311E0,-2.519197464E-1,-1.080339432E0,1.234062910E0,1.659369794E0
5.380961040E0,-5.451011658E-2,-2.504880905E0,3.686462879E0,4.457287097E0
5.385986770E0,-2.639236450E-1,-3.789201975E0,7.921296120E0,8.784909761E0
5.391012499E0,-1.990451813E-1,-4.537952423E0,1.741017151E1,1.799296260E1
5.396038228E0,4.639062881E-1,-4.791273594E0,2.286817551E1,2.336931669E1
5.401063957E0,-3.422141075E-1,-3.775056124E0,1.827348328E1,1.866248510E1
5.406089686E0,-2.477739811E0,-6.639299393E-1,8.140732765E0,8.535310626E0
5.411115415E0,-4.251995087E0,4.695949554E0,-3.032352209E0,7.023287290E0
5.416141145E0,-5.229197502E0,8.758481979E0,-7.511041641E0,1.266772512E1
5.421166874E0,-5.458833694E0,9.571759224E0,-3.323890686E0,1.150937397E1
5.426192603E0,-6.307793617E0,8.769653320E0,3.631185293E0,1.139651641E1
5.431218332E0,-7.814860821E0,7.341389179E0,1.127592182E1,1.556002756E1
5.436244061E0,-7.957412720E0,1.971484900E0,6.453958988E0,1.043363582E1
5.441269790E0,-6.932688713E0,-2.249601126E0,4.469300270E0,8.549708938E0
5.446295520E0,-4.998054504E0,-2.068860292E0,4.485288143E0,7.026986656E0
5.451321249E0,-5.374421120E0,-1.457878351E0,3.569899321E0,6.614680099E0
5.456346978E0,-9.044161797E0,-6.908302307E-1,2.386377811E0,9.379174168E0
5.461372707E0,-1.017085266E1,-1.355855703E0,2.373440027E0,1.053175228E1
5.466398436E0,-9.585897446E0,-2.561829329E0,2.472737551E0,1.022579241E1
5.471424165E0,-9.839625359E0,-3.743979454E0,2.664356709E0,1.085976086E1
5.476449895E0,-8.750628471E0,-5.223970413E0,3.500282288E0,1.077568288E1
5.481475624E0,-7.093882084E0,-6.578821659E0,4.409102440E0,1.063222657E1
5.486501353E0,-5.490818024E0,-7.812751293E0,4.903011799E0,1.073441615E1
5.491527082E0,-4.327435493E0,-7.929812908E0,5.084319592E0,1.036624023E1
5.496552811E0,-2.721230507E0,-7.709278584E0,4.569393158E0,9.365758142E0
5.501578540E0,-1.538224220E-1,-7.683444977E0,3.147171021E0,8.304436976E0
5.506604270E0,2.863075733E0,-6.693510056E0,2.000457525E0,7.549974161E0
5.511629999E0,3.641000748E0,-4.135023594E0,1.661757469E0,5.754714976E0
5.516655728E0,2.029716015E0,-2.245414734E0,1.962243795E0,3.607219863E0
5.521681457E0,9.999752045E-2,-1.610338211E0,1.955815554E0,2.535429577E0
5.526707186E0,-1.647456646E0,-1.729446411E0,1.573922396E0,2.860477232E0
5.531732915E0,-3.419196367E0,-1.242799282E0,1.591412067E0,3.970899926E0
5.536758645E0,-4.525748730E0,-1.011816025E0,1.445122004E0,4.857422242E0
5.541784374E0,-4.766768456E0,-6.239175797E-1,5.499315262E-1,4.838778703E0
5.546810103E0,-4.411262035E0,2.986898422E-1,-2.630430222E0,5.144668261E0
5.551835832E0,-5.823618889E0,1.648668289E0,-6.969530106E0,9.230763456E0
5.556861561E0,-6.368329525E0,2.466056585E0,-1.093838501E1,1.289516664E1
5.561887290E0,-6.399916172E0,2.754369020E0,-1.387323570E1,1.552456584E1
5.566913020E0,-5.768686295E0,2.705255270E0,-1.496279430E1,1.626288292E1
5.571938749E0,-4.431188107E0,2.520218372E0,-1.424539375E1,1.513004203E1
5.576964478E0,-2.608667135E0,2.390541077E0,-1.325325966E1,1.371746050E1
5.581990207E0,-5.269074440E-1,2.682599545E0,-1.275343990E1,1.304316684E1
5.587015936E0,1.613199234E0,2.981995583E0,-1.257653427E1,1.302551050E1
5.592041665E0,3.826681614E0,2.119002819E0,-1.224564075E1,1.300343734E1
5.597067447E0,6.393739700E0,8.043828011E-1,-1.167967033E1,1.333947668E1
5.602093228E0,8.009785652E0,-1.270198822E0,-1.037540817E1,1.316887110E1
5.607119009E0,8.166817665E0,-2.894562244E0,-8.933175087E0,1.244495956E1
5.612144790E0,7.812548637E0,-4.451118946E0,-6.935510635E0,1.135560143E1
5.617170572E0,6.022656918E0,-5.458209515E0,-3.941219568E0,9.033142263E0
5.622196353E0,2.273088932E0,-4.807364941E0,-1.289944649E-1,5.319241538E0
5.627222134E0,-1.932888031E-1,-3.474765778E0,3.627841234E0,5.027185076E0
5.632247915E0,-8.907728195E-1,-2.277263165E0,5.633495331E0,6.141308768E0
5.637273697E0,1.666002274E-1,-1.619389534E0,7.708226204E0,7.878256743E0
5.642299478E0,2.254447460E0,-1.161164284E0,7.567220688E0,7.980831084E0
5.647325259E0,3.410567760E0,-4.418997765E-1,2.995659828E0,4.560836071E0
5.652351040E0,6.992654324E0,-1.356539726E-1,-1.876391172E0,7.241302391E0
5.657376822E0,1.041499710E1,-1.615734100E-1,-5.899395943E0,1.197084555E1
5.662402603E0,1.157047367E1,-5.005807877E-1,-6.051654816E0,1.306709486E1
5.667428384E0,1.043607712E1,-1.405645370E0,-1.858577490E0,1.069307509E1
5.672454165E0,8.307195663E0,-1.823506832E0,3.672745705E0,9.264110209E0
5.677479947E0,6.124732494E0,-1.797086239E0,6.636519909E0,9.207891375E0
5.682505728E0,5.262041092E0,-1.544547081E0,6.505092621E0,8.508286087E0
5.687531509E0,5.978398323E0,-1.885622025E0,5.962711334E0,8.651632412E0
5.692557290E0,6.804696560E0,-2.851170063E0,6.251663208E0,9.670385663E0
5.697583072E0,7.331024647E0,-3.289905071E0,6.780264378E0,1.051377110E1
5.702608853E0,7.344966412E0,-3.419415474E0,7.255060673E0,1.087551558E1
5.707634634E0,5.925251961E0,-4.823920727E0,6.686262131E0,1.015307457E1
5.712660415E0,3.741827011E0,-5.635879040E0,5.688453674E0,8.838716374E0
5.717686197E0,3.742996216E0,-5.830463409E0,-7.848834991E-1,6.972830584E0
5.722711978E0,3.278784752E-1,-6.902921200E0,-6.865509033E0,9.741305850E0
5.727737759E0,-4.949033737E0,-6.418496609E0,-3.267924309E0,8.738956627E0
5.732763540E0,-7.074266434E0,-4.513537407E0,2.930556536E0,8.888499711E0
5.737789322E0,-9.498345375E0,1.523285389E0,4.528302193E0,1.063223796E1
5.742815103E0,-8.525670052E0,1.449884415E0,8.119380951E0,1.186227473E1
5.747840884E0,-7.799173832E0,9.378762245E-1,8.673403740E0,1.170190825E1
5.752866613E0,-7.991881371E0,8.716750145E-1,6.370620728E0,1.025742627E1
5.757892342E0,-7.192933559E0,-1.681871414E-1,4.722143173E0,8.606115050E0
5.762918072E0,-6.192941666E0,-1.495453358E0,4.595887661E0,7.855640688E0
5.767943801E0,-4.536407948E0,-2.239799023E0,6.347866058E0,8.117333320E0
5.772969530E0,-2.149960518E0,-1.869110107E0,8.839754105E0,9.287473039E0
5.777995259E0,4.502296448E-1,-3.063588142E-1,1.151219463E1,1.152506780E1
5.783020988E0,2.248548508E0,1.894132137E0,1.317727280E1,1.350126754E1
5.788046717E0,2.982795715E0,3.666424036E0,1.291875839E1,1.375623691E1
5.793072447E0,2.895447731E0,4.346744537E0,1.111229134E1,1.227846995E1
5.798098176E0,2.464254379E0,4.135933399E0,8.438919067E0,9.715649734E0
5.803123905E0,1.700389385E0,3.515121937E0,5.498672485E0,6.744094112E0
5.808149634E0,9.110469818E-1,2.408441067E0,2.792292833E0,3.798354149E0
5.813175363E0,-3.696837425E-1,1.194855213E0,7.015724182E-1,1.434067261E0
5.818201092E0,-1.409895420E0,-4.034962654E-1,2.876062393E-1,1.494433565E0
5.823226822E0,-1.507037640E0,-1.991989136E0,1.714615822E0,3.029701401E0
5.828252551E0,-1.412174225E0,-2.371321201E0,5.194714546E0,5.882385528E0
5.833278280E0,-2.207514524E0,-2.077507019E0,5.952883720E0,6.680267987E0
5.838304009E0,-2.754539967E0,-1.952150345E0,1.016645908E0,3.525897091E0
5.843329738E0,-4.028988838E0,-1.464256287E0,-3.879720688E0,5.781784339E0
5.848355467E0,-4.638117790E0,-3.757696152E-1,-6.279929161E0,7.816063569E0
5.853381197E0,-4.489385605E0,8.879885674E-1,-5.975703239E0,7.526761323E0
5.858406926E0,-4.111365795E0,2.521724701E0,-3.363829136E0,5.880286611E0
5.863432655E0,-4.398213387E0,3.196503162E0,-5.226436853E-1,5.462148834E0
5.868458384E0,-5.545243263E0,3.069891930E0,1.772281051E0,6.581408621E0
5.873484113E0,-6.721282959E0,2.199553013E0,3.222743034E0,7.771727655E0
5.878509842E0,-7.459585667E0,1.172705173E0,3.912925005E0,8.504800870E0
5.883535572E0,-7.611472130E0,3.630681038E-1,3.921902418E0,8.570160151E0
5.888561301E0,-6.882492065E0,6.059384346E-1,4.516713142E0,8.254487024E0
5.893587030E0,-6.440580845E0,1.313816547E0,5.057104111E0,8.293461131E0
5.898612759E0,-6.854021072E0,1.256836891E0,4.772737503E0,8.446079985E0
5.903638488E0,-7.143453598E0,1.096601486E0,4.497111797E0,8.512078397E0
5.908664217E0,-7.282584190E0,9.913430214E-1,4.116035938E0,8.423808243E0
5.913689947E0,-7.421992779E0,1.007915020E0,3.616726160E0,8.317606483E0
5.918715676E0,-7.621068478E0,1.031085491E0,3.049279928E0,8.272963805E0
5.923741405E0,-7.809454441E0,8.835678101E-1,2.449168205E0,8.232052942E0
5.928767134E0,-7.650264740E0,7.223348618E-1,1.980329752E0,7.935365409E0
5.933792863E0,-5.964773178E0,1.754757881E0,1.867382526E0,6.491903557E0
5.938818592E0,-3.763828278E0,3.472868443E0,1.677888870E0,5.389112133E0
5.943844322E0,-2.695208311E0,4.275938511E0,1.182070494E0,5.190865885E0
5.948870051E0,-1.771488547E0,4.661304951E0,4.244123697E-1,5.004604018E0
5.953895780E0,-1.396883249E0,5.011660576E0,-5.391597748E-3,5.202696763E0
5.958921509E0,-1.098413348E0,5.346324444E0,-1.608691216E-1,5.460364074E0
5.963947238E0,-2.007066488E0,1.715692997E0,4.819105566E-1,2.684055911E0
5.968972967E0,-3.294138312E-1,4.889827728E0,3.331146240E-1,4.912218851E0
5.973998697E0,3.846240640E-1,4.989126205E0,1.443030536E-1,5.006010321E0
5.979024426E0,8.087605834E-1,5.475271702E0,5.541163683E-2,5.534958386E0
5.984050155E0,1.234739423E0,4.946781158E0,1.098488569E0,5.215544306E0
5.989075884E0,2.000545502E0,5.016966820E0,-6.620491743E-1,5.441548262E0
5.994101613E0,2.519715309E0,3.978551865E0,-6.670367718E-1,4.756340845E0
5.999127342E0,3.712065935E0,-2.490210533E0,3.825905800E0,5.883717974E0
6.004153072E0,4.117445946E0,-7.786055565E0,-7.011946201E0,1.125803766E1
6.009178801E0,4.896601200E0,-6.152575493E0,-9.877929688E0,1.262554488E1
6.014204530E0,5.212518692E0,-5.782815933E0,-7.098493576E0,1.053565006E1
6.019230259E0,4.789950371E0,-9.945722580E0,1.094922900E0,1.109323570E1
6.024255988E0,2.526330948E0,-1.139563656E1,1.597514153E0,1.178112610E1
6.029281717E0,2.121198177E0,-1.166500282E1,-4.078917503E-1,1.186331102E1
6.034307447E0,1.761709213E0,-1.249923229E1,-1.475905895E0,1.270876569E1
6.039333176E0,1.904853344E0,-1.305498695E1,-1.012633801E0,1.323202849E1
6.044358905E0,9.947206974E-1,-1.322794628E1,4.781601429E-1,1.327390934E1
6.049384634E0,-6.650309563E-1,-1.254701042E1,1.999116182E0,1.272266490E1
6.054410363E0,-2.371079445E0,-1.163217354E1,3.486510992E0,1.237276193E1
6.059436092E0,-3.484278917E0,-1.027964687E1,4.187434196E0,1.163382760E1
6.064461822E0,-4.187499046E0,-8.859092712E0,4.330397129E0,1.071312332E1
6.069487551E0,-4.149663925E0,-7.203518867E0,4.000665665E0,9.225818149E0
6.074513280E0,-3.664901733E0,-5.576287270E0,3.465427160E0,7.519020537E0
6.079539009E0,-3.005385399E0,-4.101598740E0,2.843767643E0,5.826016480E0
6.084564738E0,-2.343680143E0,-2.740903854E0,2.144985676E0,4.195992624E0
6.089590467E0,-1.671347141E0,-1.604005814E0,1.383411169E0,2.698159072E0
6.094616197E0,-9.569272995E-1,-7.241201401E-1,6.500000954E-1,1.364756373E0
6.099641926E0,-2.799720466E-1,-4.837989807E-2,-2.174782753E-2,2.849525038E-1
6.104667655E0,3.760107160E-1,2.942962646E-1,-5.455873013E-1,7.250240363E-1
6.109693384E0,9.366517067E-1,3.425531387E-1,-1.026646376E0,1.431314729E0
6.114719113E0,1.409194231E0,1.063623428E-1,-1.421555996E0,2.004485664E0
6.119744842E0,1.896787167E0,-3.803634644E-1,-1.916566610E0,2.723179299E0
6.124770572E0,2.496839046E0,-1.011885643E0,-2.482528448E0,3.663477211E0
6.129796301E0,2.961893320E0,-1.797188759E0,-3.329372883E0,4.804937384E0
6.134822030E0,3.092457771E0,-2.735312462E0,-5.221078873E0,6.656192149E0
6.139847759E0,4.149035931E0,-3.980584145E0,-2.067268372E1,2.145738571E1
6.144873488E0,7.472716331E0,-5.452858925E0,-3.637706375E1,3.753486282E1
6.149899217E0,7.844716072E0,-6.385150909E0,-3.182392311E1,3.339269089E1
6.154924947E0,7.771156311E0,-7.202064514E0,-2.331420708E1,2.560884330E1
6.159950676E0,7.864728451E0,-7.555522919E0,-1.810589600E1,2.113677719E1
6.164976405E0,7.627384186E0,-7.670970917E0,-1.430378437E1,1.793374003E1
6.170002134E0,6.990505219E0,-7.758484840E0,-1.105723763E1,1.520933115E1
6.175027863E0,5.764842510E0,-8.084500313E0,-8.386589050E0,1.299720856E1
6.180053592E0,4.797797203E0,-8.019867897E0,-6.157986641E0,1.119186931E1
6.185079322E0,4.110439777E0,-7.236494064E0,-4.857817650E0,9.636438856E0
6.190105051E0,3.883200407E0,-6.352684975E0,-4.309988022E0,8.603013922E0
6.195130780E0,3.954125881E0,-5.368077278E0,-4.307505608E0,7.937629981E0
6.200156509E0,4.203702927E0,-4.386702538E0,-4.784630299E0,7.733496269E0
6.205182238E0,4.555731773E0,-4.066823006E0,-5.415915489E0,8.162467883E0
6.210207967E0,5.077910900E0,-4.348403931E0,-6.052490711E0,9.018117301E0
6.215233697E0,5.641573906E0,-4.655389786E0,-6.316886902E0,9.664526389E0
6.220259426E0,6.127009392E0,-4.824279785E0,-6.259177208E0,9.999560933E0
6.225285155E0,6.605845451E0,-4.979213715E0,-6.035769463E0,1.024013068E1
6.230310884E0,7.140279293E0,-5.115477562E0,-5.564610958E0,1.039791297E1
6.235336613E0,7.367615223E0,-4.999352455E0,-4.712221146E0,1.007374345E1
6.240362342E0,7.256761074E0,-4.948029518E0,-3.734202862E0,9.543995411E0
6.245388072E0,7.012511253E0,-5.111245155E0,-2.867219925E0,9.138987428E0
6.250413801E0,6.773493767E0,-5.433207512E0,-2.176493883E0,8.951932043E0
6.255439530E0,6.488419056E0,-5.910812378E0,-1.674684882E0,8.935426921E0
6.260465259E0,6.064259529E0,-6.483383179E0,-1.331156492E0,8.976718704E0
6.265490988E0,5.480897427E0,-7.085232735E0,-9.092001319E-1,9.003743909E0
6.270516717E0,4.632888317E0,-7.765128136E0,-2.246536613E-1,9.044962045E0
6.275542447E0,3.688604593E0,-8.423081398E0,7.296841145E-1,9.224236716E0
6.280568176E0,2.840007305E0,-8.958664894E0,1.938457847E0,9.595881252E0
6.285593905E0,2.090674877E0,-9.256889343E0,3.105685234E0,9.985299321E0
6.290619634E0,1.581265569E0,-9.317649841E0,4.008323193E0,1.026575152E1
6.295645363E0,1.154716730E0,-9.317923546E0,4.624749184E0,1.046639264E1
6.300671092E0,6.015851498E-1,-9.348503113E0,4.995089054E0,1.061637084E1
6.305696822E0,-4.271894693E-2,-9.509589195E0,5.339959145E0,1.090638690E1
6.310722551E0,-4.946836233E-1,-9.738603592E0,5.448353291E0,1.117003426E1
6.315748280E0,-1.150741339E0,-1.010213089E1,5.592323303E0,1.160393615E1
6.320774009E0,-1.947870016E0,-1.063295841E1,6.142694473E0,1.243328989E1
6.325799738E0,-2.417307615E0,-1.106200695E1,6.960348129E0,1.329126856E1
6.330825467E0,-2.829676151E0,-1.146926308E1,8.005096436E0,1.426999060E1
6.335851197E0,-3.222453117E0,-1.177181816E1,8.959575653E0,1.514047234E1
6.340876926E0,-3.494580269E0,-1.160975266E1,9.537975311E0,1.542632234E1
6.345902655E0,-3.969981194E0,-1.062885761E1,9.854407310E0,1.502806402E1
6.350928384E0,-4.477564812E0,-9.025876999E0,9.829521179E0,1.407602674E1
6.355954165E0,-4.711924553E0,-7.346628189E0,9.828960419E0,1.314471915E1
6.360979947E0,-4.664936066E0,-5.849250793E0,9.857966423E0,1.237557535E1
6.366005728E0,-4.548079967E0,-4.561803818E0,9.906424522E0,1.181661256E1
6.371031509E0,-4.729219437E0,-3.550374031E0,9.629146576E0,1.130005027E1
6.376057290E0,-5.272339821E0,-2.627379417E0,8.974002838E0,1.073468289E1
6.381083072E0,-5.742202759E0,-1.634237289E0,7.766128540E0,9.795732568E0
6.386108853E0,-5.900356293E0,-7.430763245E-1,6.330075741E0,8.685403024E0
6.391134634E0,-5.987748146E0,-1.133918762E-2,4.980988503E0,7.788677866E0
6.396160415E0,-6.002737999E0,5.940799713E-1,3.818543673E0,7.139122514E0
6.401186197E0,-5.868558884E0,1.211374283E0,2.960545063E0,6.683729355E0
6.406211978E0,-5.671939850E0,1.739566803E0,2.250859499E0,6.345341820E0
6.411237759E0,-5.379962444E0,2.192663670E0,1.624003649E0,6.032342640E0
6.416263540E0,-5.017018318E0,2.680488586E0,1.128727198E0,5.799096219E0
6.421289322E0,-4.717315674E0,3.030525208E0,5.795505047E-1,5.636756957E0
6.426315103E0,-3.840589046E0,3.519703388E0,-4.425485134E-1,5.228220094E0
6.431340884E0,-1.941426516E0,4.112572193E0,-1.953078985E0,4.949434764E0
6.436366665E0,-7.230858803E-1,4.376472950E0,-2.623606443E0,5.153608390E0
6.441392447E0,-7.178943157E-1,4.301239491E0,-2.066878557E0,4.825766299E0
6.446418228E0,-1.169526100E0,4.136131763E0,-5.348317623E-1,4.331445749E0
6.451444009E0,-1.613713384E0,4.068486691E0,1.083599091E0,4.508973478E0
6.456469790E0,-1.988555670E0,4.098842144E0,2.383843184E0,5.141747650E0
6.461495572E0,-2.393959284E0,4.222906590E0,3.388570070E0,5.919999007E0
6.466521353E0,-2.684965134E0,4.388462543E0,4.131199837E0,6.598064364E0
6.471547134E0,-2.927074909E0,4.562326431E0,4.727094173E0,7.192218664E0
6.476572915E0,-3.362480164E0,4.735324860E0,5.272368431E0,7.843943093E0
6.481598697E0,-3.774003029E0,4.874366283E0,5.738720894E0,8.422319338E0
6.486624478E0,-4.178761959E0,4.870081425E0,6.260208130E0,8.964928913E0
6.491650259E0,-4.326784134E0,4.900053501E0,6.812614441E0,9.441573003E0
6.496676040E0,-4.461430073E0,4.916759014E0,7.342988014E0,9.899411623E0
6.501701822E0,-4.510170460E0,4.958842754E0,7.726551056E0,1.022894668E1
6.506727551E0,-4.472934723E0,4.988075733E0,8.011088371E0,1.044344682E1
6.511753280E0,-4.512474060E0,4.980513573E0,8.215662003E0,1.061437891E1
6.516779009E0,-4.547947407E0,4.983918190E0,8.559877396E0,1.089930122E1
6.521804738E0,-4.566173553E0,5.012557983E0,9.023417473E0,1.128706079E1
6.526830467E0,-4.511273861E0,5.052020073E0,9.375349998E0,1.156597105E1
6.531856197E0,-4.408520222E0,5.068769455E0,9.681848526E0,1.178412768E1
6.536881926E0,-4.307410240E0,5.014889717E0,9.741269112E0,1.177264736E1
6.541907655E0,-4.290709019E0,4.962102890E0,9.687174797E0,1.169931641E1
6.546933384E0,-4.287752151E0,4.920183182E0,9.729076385E0,1.171528695E1
6.551959113E0,-4.285326958E0,4.913485527E0,9.970636368E0,1.191301627E1
6.556984842E0,-4.250447273E0,5.024116516E0,1.034763145E1,1.226301454E1
6.562010572E0,-4.212005615E0,5.205070496E0,1.068592644E1,1.261042323E1
6.567036301E0,-4.121941090E0,5.447626114E0,1.102708054E1,1.297164345E1
6.572062030E0,-3.979699373E0,5.790829659E0,1.125979519E1,1.327232847E1
6.577087759E0,-3.713054180E0,6.144268990E0,1.137376404E1,1.344995618E1
6.582113488E0,-3.383638382E0,6.503454685E0,1.126348495E1,1.343912292E1
6.587139217E0,-2.986078978E0,6.830153465E0,1.110610771E1,1.337584736E1
6.592164947E0,-2.510580301E0,7.071806908E0,1.088695908E1,1.322268295E1
6.597190676E0,-2.024566412E0,7.218747139E0,1.066309452E1,1.303498232E1
6.602216405E0,-1.548160195E0,7.232529640E0,1.043869209E1,1.279345839E1
6.607242134E0,-1.053987503E0,7.132106781E0,9.973798752E0,1.230668511E1
6.612267863E0,-4.820038676E-1,6.988759995E0,8.947598457E0,1.136374112E1
6.617293592E0,5.038338900E-1,6.725202560E0,6.580500603E0,9.422589148E0
6.622319322E0,2.629131794E0,6.135074615E0,-2.406687737E-1,6.679026575E0
6.627345051E0,6.298484325E0,4.449902534E0,-1.734021568E1,1.897776639E1
6.632370780E0,8.778659821E0,4.460353851E-1,-3.832099533E1,3.931618622E1
6.637396509E0,1.160297680E1,-6.890211105E0,-5.730606842E1,5.887350472E1
6.642422238E0,1.131119823E1,-1.397675037E1,-4.724122620E1,5.054726708E1
6.647447967E0,6.672159195E0,-1.671477127E1,-2.904621887E1,3.416993002E1
6.652473697E0,3.970110416E0,-1.629245758E1,-1.422926521E1,2.199267922E1
6.657499426E0,3.262131214E0,-1.628675461E1,-5.764001846E0,1.758191096E1
6.662525155E0,3.521974087E0,-1.668485641E1,-2.668550014E0,1.726006646E1
6.667550884E0,3.846607685E0,-1.658745575E1,-3.103476286E0,1.730813809E1
6.672576613E0,4.048006535E0,-1.687580109E1,-4.535402298E0,1.793736026E1
6.677602342E0,3.825988293E0,-1.736124420E1,-4.766862869E0,1.840581344E1
6.682628072E0,3.604589462E0,-1.817926025E1,-5.449230194E0,1.931767787E1
6.687653801E0,3.540881634E0,-1.925032043E1,-6.862833023E0,2.074153217E1
6.692679530E0,3.582185507E0,-1.990172577E1,-8.279848099E0,2.185100973E1
6.697705259E0,3.472103119E0,-1.912663460E1,-8.998297691E0,2.142085462E1
6.702730988E0,1.784041405E0,-1.585947037E1,-4.415380478E0,1.655902137E1
6.707756717E0,-1.756831050E0,-1.114107800E1,2.900172472E0,1.164564617E1
6.712782447E0,-4.553479195E0,-6.669706345E0,8.480129242E0,1.171032653E1
6.717808176E0,-5.749103069E0,-2.918536186E0,1.202041912E1,1.364040012E1
6.722833905E0,-6.107180595E0,-1.851444244E-1,1.354382038E1,1.485823017E1
6.727859634E0,-6.033329010E0,1.834208488E0,1.388605309E1,1.525083113E1
6.732885363E0,-5.910925388E0,3.389636040E0,1.395824623E1,1.553258862E1
6.737911092E0,-5.543773651E0,4.759272575E0,1.350446892E1,1.535430827E1
6.742936822E0,-4.955123425E0,5.914354801E0,1.283973408E1,1.497970667E1
6.747962551E0,-4.401118279E0,6.773346901E0,1.209806156E1,1.454686096E1
6.752988280E0,-3.945370197E0,7.302699089E0,1.152350807E1,1.420164069E1
6.758014009E0,-3.379159927E0,7.660224915E0,1.122561264E1,1.400400467E1
6.763039738E0,-2.830064297E0,7.841157436E0,1.112149429E1,1.389894417E1
6.768065467E0,-2.634966850E0,7.773796558E0,1.083715439E1,1.359481072E1
6.773091197E0,-2.422025204E0,7.534715652E0,1.042988205E1,1.309276845E1
6.778116926E0,-2.154263735E0,7.071114063E0,1.002432728E1,1.245506498E1
6.783142655E0,-1.943112135E0,6.397351265E0,1.004116249E1,1.206344611E1
6.788168384E0,-1.636863232E0,5.523161888E0,1.014928818E1,1.167016234E1
6.793194113E0,-1.289993048E0,4.453571320E0,1.021380806E1,1.121696281E1
6.798219842E0,-1.105097532E0,3.097756863E0,1.014826775E1,1.066792746E1
6.803245572E0,-1.035500407E0,1.627833366E0,1.018727112E1,1.036834584E1
6.808271301E0,-1.000849366E0,2.252531052E-1,1.027820110E1,1.032927182E1
6.813297030E0,-9.206274748E-1,-1.062698364E0,1.015812683E1,1.025497067E1
6.818322759E0,-7.425440550E-1,-2.122113228E0,9.737312317E0,9.993497255E0
6.823348488E0,-4.481317997E-1,-2.939751625E0,9.299413681E0,9.763301518E0
6.828374217E0,-5.720850825E-2,-3.521575928E0,8.802807808E0,9.481254934E0
6.833399947E0,3.528493643E-1,-3.820961952E0,8.158393860E0,9.015744189E0
6.838425676E0,7.623196244E-1,-4.068672180E0,7.377798080E0,8.459735754E0
6.843451405E0,1.113981962E0,-4.126853943E0,6.496720791E0,7.776841281E0
6.848477341E0,1.480005622E0,-4.063308716E0,5.679800987E0,7.138699715E0
6.853503070E0,1.802868605E0,-3.902544022E0,4.933423042E0,6.543611232E0
6.858528799E0,1.982229948E0,-3.654533386E0,4.230219364E0,5.931239812E0
6.863554529E0,2.066495419E0,-3.223937988E0,3.499773502E0,5.187734962E0
6.868580258E0,1.922250152E0,-2.615894318E0,2.891779423E0,4.347451777E0
6.873605987E0,1.655987978E0,-1.969325066E0,2.402390957E0,3.520230064E0
6.878631716E0,1.264523983E0,-1.379845619E0,1.994066954E0,2.734830498E0
6.883657445E0,9.122262001E-1,-7.563638687E-1,1.643373013E0,2.026059673E0
6.888683174E0,5.382890105E-1,-2.278242111E-1,1.316986799E0,1.440872361E0
6.893708904E0,1.107343882E-1,2.778491974E-1,1.000905395E0,1.044640555E0
6.898734633E0,-2.208799422E-1,6.222677231E-1,7.859252095E-1,1.026490868E0
6.903760362E0,-4.891922474E-1,8.106737137E-1,3.036472201E-1,9.943352348E-1
6.908786091E0,-1.204977751E0,1.020481110E0,-2.827503920E0,3.238538481E0
6.913811820E0,-2.471544266E0,1.094118118E0,-7.287764072E0,7.772845727E0
6.918837549E0,-3.607546568E0,8.216876984E-1,-9.621372223E0,1.030826689E1
6.923863279E0,-4.567639828E0,2.757329941E-1,-1.048465729E1,1.143972905E1
6.928889008E0,-4.876186371E0,-3.517265320E-1,-1.001687336E1,1.114623959E1
6.933914737E0,-4.475298405E0,-8.976907730E-1,-8.674160004E0,9.801795565E0
6.938940466E0,-3.586521626E0,-1.376445770E0,-7.089931965E0,8.063800320E0
6.943966195E0,-2.656996012E0,-1.663681984E0,-5.552743435E0,6.376552768E0
6.948991924E0,-1.807921529E0,-1.793094635E0,-4.206984520E0,4.917569255E0
6.954017654E0,-8.307051063E-1,-1.769686699E0,-2.895932674E0,3.494036067E0
6.959043383E0,1.478760689E-1,-1.622373581E0,-1.926816463E0,2.523209276E0
6.964069112E0,1.015807629E0,-1.351298332E0,-1.237663507E0,2.095157101E0
6.969094841E0,1.771471620E0,-1.076139450E0,-6.660085917E-1,2.177097898E0
6.974120570E0,2.423252106E0,-7.585916519E-1,-2.935417891E-1,2.556125749E0
6.979146299E0,2.927023649E0,-3.938722610E-1,-1.529622078E-2,2.953444900E0
6.984172029E0,3.291669846E0,-8.722400665E-2,2.542023063E-1,3.302622778E0
6.989197758E0,3.602719545E0,1.614341736E-1,4.806419611E-1,3.638222892E0
6.994223487E0,3.754571199E0,3.904314041E-1,6.442978978E-1,3.829407442E0
6.999249216E0,3.804893494E0,6.236028671E-1,7.917925715E-1,3.936118711E0
7.004274945E0,3.753902674E0,9.135122299E-1,9.371969700E-1,3.975503495E0
7.009300674E0,3.731798887E0,1.193039894E0,9.748572111E-1,4.037327545E0
7.014326404E0,3.725067616E0,1.380819321E0,8.521478176E-1,4.063120308E0
7.019352133E0,3.748625517E0,1.529520988E0,6.507086754E-1,4.100615746E0
7.024377862E0,3.659856081E0,1.691771984E0,4.474896193E-1,4.056708757E0
7.029403591E0,3.579199791E0,1.819719791E0,1.615759134E-1,4.018477080E0
7.034429320E0,3.373972654E0,1.894257069E0,9.468233585E-2,3.870512377E0
7.039455049E0,3.026331186E0,1.819782734E0,-1.071102619E-1,3.532953758E0
7.044480779E0,2.733929396E0,1.692124844E0,-3.237751722E-1,3.231483682E0
7.049506508E0,2.626432180E0,1.487465858E0,-5.214861631E-1,3.063110918E0
7.054532237E0,2.688901663E0,1.292029381E0,-7.286959291E-1,3.070916774E0
7.059557966E0,2.781263590E0,1.058074951E0,-1.011940002E0,3.143083252E0
7.064583695E0,2.830136776E0,8.575000763E-1,-1.236856222E0,3.205431931E0
7.069609424E0,2.709852219E0,7.429790497E-1,-1.226238489E0,3.065775228E0
7.074635154E0,2.363023281E0,6.139459610E-1,-1.023659706E0,2.647392654E0
7.079660883E0,1.924462914E0,4.798984528E-1,-7.732305527E-1,2.128789685E0
7.084686612E0,1.466940045E0,4.172630310E-1,-6.810181141E-1,1.670271596E0
7.089712341E0,1.134512901E0,3.636941910E-1,-9.049439430E-1,1.496100440E0
7.094738070E0,9.369021654E-1,2.761878967E-1,-1.267383099E0,1.600101666E0
7.099763799E0,9.023084044E-1,2.409648895E-1,-1.533459663E0,1.795472939E0
7.104789529E0,9.485716820E-1,3.106365204E-1,-1.779599786E0,2.040406499E0
7.109815258E0,1.012601972E0,3.942766190E-1,-1.996101141E0,2.272715682E0
7.114840987E0,1.055383563E0,5.014905930E-1,-2.106358528E0,2.408749370E0
7.119866716E0,9.525106549E-1,6.609582901E-1,-2.134415627E0,2.428965310E0
7.124892445E0,8.001495600E-1,8.391475677E-1,-2.094703913E0,2.394199750E0
7.129918174E0,5.657207966E-1,1.002498627E0,-1.977920532E0,2.288495827E0
7.134943904E0,3.504757881E-1,1.184424400E0,-1.856170416E0,2.229588090E0
7.139969633E0,2.506496310E-1,1.380012989E0,-1.753699064E0,2.245600475E0
7.144995362E0,2.757793069E-1,1.546130657E0,-1.732883453E0,2.338687516E0
7.150021091E0,4.350042939E-1,1.630241871E0,-1.783942223E0,2.455476969E0
7.155046820E0,5.604892373E-1,1.646878719E0,-1.796521187E0,2.500769097E0
7.160072549E0,6.424340010E-1,1.596185207E0,-1.770500898E0,2.468846308E0
7.165098279E0,6.473643184E-1,1.468722820E0,-1.763204575E0,2.384348476E0
7.170124008E0,5.565004349E-1,1.274189472E0,-1.712330341E0,2.205748567E0
7.175149737E0,4.612694979E-1,9.840145111E-1,-1.670438528E0,1.992841936E0
7.180175466E0,4.193286896E-1,5.744657516E-1,-1.656505823E0,1.802736529E0
7.185201195E0,3.256787062E-1,9.829139709E-2,-1.589257956E0,1.625259569E0
7.190226924E0,2.808606923E-1,-4.301233292E-1,-1.578916788E0,1.660381592E0
7.195252706E0,2.320990860E-1,-9.485492706E-1,-1.601561785E0,1.875797392E0
7.200278487E0,1.076761931E-1,-1.423535347E0,-1.595038891E0,2.140606482E0
7.205304268E0,-9.681083262E-2,-1.850366592E0,-1.664652824E0,2.490842807E0
7.210330049E0,-3.808584213E-1,-2.229079247E0,-1.767221451E0,2.870003324E0
7.215355831E0,-6.862867475E-1,-2.492734909E0,-2.012602568E0,3.276474618E0
7.220381612E0,-1.160759449E0,-2.837664604E0,-2.735669136E0,4.108964410E0
7.225407393E0,-1.732140422E0,-3.249714851E0,-3.907844543E0,5.369562927E0
7.230433174E0,-2.146346807E0,-3.499422073E0,-5.347221375E0,6.741330425E0
7.235458956E0,-2.249858379E0,-3.467178345E0,-6.660654068E0,7.838845643E0
7.240484737E0,-1.989715576E0,-3.243490219E0,-7.545326233E0,8.450511513E0
7.245510518E0,-1.437730551E0,-2.966345787E0,-8.004418373E0,8.656615387E0
7.250536299E0,-6.660396457E-1,-2.778452873E0,-7.945801258E0,8.443883396E0
7.255562081E0,3.290133178E-1,-2.755732536E0,-7.512652397E0,8.008886166E0
7.260587862E0,1.259246111E0,-2.969498634E0,-6.996839523E0,7.704504281E0
7.265613643E0,2.113600492E0,-3.347614288E0,-6.513206005E0,7.622052278E0
7.270639424E0,2.914170742E0,-3.736914635E0,-6.119504452E0,7.739848631E0
7.275665206E0,3.697364569E0,-4.137685776E0,-5.873929977E0,8.080470389E0
7.280690987E0,4.452023506E0,-4.540798187E0,-5.854043007E0,8.643447287E0
7.285716768E0,5.324966908E0,-4.927649498E0,-5.965316772E0,9.392657043E0
7.290742549E0,6.176166534E0,-5.207975388E0,-6.424277306E0,1.032179149E1
7.295768331E0,6.785685539E0,-5.650003433E0,-7.054222107E0,1.130177493E1
7.300794112E0,7.235868931E0,-6.277399063E0,-7.821340561E0,1.236676620E1
7.305819893E0,7.775570869E0,-6.917064667E0,-8.719179153E0,1.357679532E1
7.310845674E0,8.557045937E0,-7.366960526E0,-9.702048302E0,1.488707103E1
7.315871456E0,9.550533295E0,-7.659205437E0,-1.094806099E1,1.642364617E1
7.320897237E0,1.072712612E1,-7.595796585E0,-1.235628510E1,1.804009817E1
7.325923018E0,1.158999252E1,-7.218285561E0,-1.311330414E1,1.893119961E1
7.330948799E0,1.179172707E1,-6.597815514E0,-1.288174534E1,1.866856609E1
7.335974581E0,1.138766861E1,-5.863854408E0,-1.210114956E1,1.762105574E1
7.341000310E0,1.067658520E1,-5.232742310E0,-1.091583157E1,1.614083153E1
7.346026039E0,1.012308884E1,-4.763169289E0,-9.805555344E0,1.487661335E1
7.351051768E0,9.553689957E0,-4.427715302E0,-8.909906387E0,1.379362485E1
7.356077497E0,8.995624542E0,-4.079581261E0,-7.880721569E0,1.263606017E1
7.361103227E0,8.403734207E0,-3.935976982E0,-6.333082676E0,1.123488316E1
7.366128956E0,7.671004295E0,-4.041974068E0,-4.237845421E0,9.650968608E0
7.371154685E0,6.614453793E0,-4.217896461E0,-1.887717962E0,8.068774916E0
7.376180414E0,5.506371498E0,-4.326935768E0,5.586192608E-1,7.025279759E0
7.381206143E0,4.309235573E0,-4.461315155E0,2.623021126E0,6.734469835E0
7.386231872E0,3.402973890E0,-4.640645981E0,3.901175499E0,6.952337498E0
7.391257602E0,2.765536308E0,-4.946152687E0,4.908796310E0,7.497259412E0
7.396283331E0,2.106684446E0,-5.430036545E0,5.821812153E0,8.235102487E0
7.401309060E0,1.491368294E0,-6.043343544E0,5.843689919E0,8.537850575E0
7.406334789E0,6.800479889E-1,-7.910374641E0,4.390618801E0,9.072707738E0
7.411360518E0,-9.211379290E-2,-1.006607246E1,4.210701466E0,1.091165921E1
7.416386247E0,-9.309971333E-1,-1.223271370E1,6.274721146E0,1.377962864E1
7.421411977E0,-2.182404995E0,-1.140508652E1,1.555026627E1,1.940746431E1
7.426437706E0,-1.912766457E0,-1.074061489E1,2.232502174E1,2.484805988E1
7.431463435E0,-3.605227470E0,-1.147548199E1,1.517467976E1,1.936376145E1
7.436489164E0,-4.655848026E0,-1.105335999E1,9.837185860E0,1.551205703E1
7.441514893E0,-4.093451977E0,-9.239463806E0,9.023352623E0,1.354787559E1
7.446540622E0,-3.216320038E0,-6.834005356E0,6.473281860E0,9.947448006E0
7.451566352E0,-3.664063931E0,-5.478887558E0,3.770966768E0,7.593666027E0
7.456592081E0,-4.314949989E0,-4.814716339E0,1.492968798E0,6.635453464E0
7.461617810E0,-4.444545269E0,-4.147741318E0,-4.515696764E-1,6.096036078E0
7.466643539E0,-4.711446762E0,-3.440309525E0,-2.264887810E0,6.258048978E0
7.471669268E0,-5.060164928E0,-2.989487648E0,-3.390290260E0,6.785010947E0
7.476694997E0,-5.349077225E0,-2.886176109E0,-3.116936207E0,6.830661096E0
7.481720727E0,-5.398353100E0,-3.053290367E0,-1.189293265E0,6.314999345E0
7.486746456E0,-5.310927868E0,-3.140611649E0,1.266035199E0,6.298590435E0
7.491772185E0,-5.017923355E0,-2.922158241E0,3.432510614E0,6.745420128E0
7.496797914E0,-3.998870850E0,-2.143500328E0,5.105971336E0,6.830556713E0
7.501823643E0,-2.574338436E0,-9.958572388E-1,6.079240799E0,6.676534933E0
7.506849372E0,-9.465042353E-1,3.291893005E-1,6.339509964E0,6.418225802E0
7.511875102E0,5.769722462E-1,1.553680897E0,5.991252899E0,6.216263556E0
7.516900831E0,1.627648950E0,2.322952271E0,4.692353249E0,5.483021737E0
7.521926560E0,2.084328651E0,2.407040119E0,3.193635941E0,4.509720455E0
7.526952289E0,2.148916960E0,2.140666962E0,1.844238758E0,3.549861369E0
7.531978018E0,1.704757690E0,1.681576252E0,1.379777670E0,2.763635991E0
7.537003747E0,7.994010448E-1,1.321837902E0,1.820863605E0,2.387852955E0
7.542029477E0,-2.087941170E-1,1.181530952E0,2.822624445E0,3.067053820E0
7.547055206E0,-1.158379078E0,1.184693336E0,3.848551989E0,4.190070739E0
7.552080935E0,-1.951014757E0,1.260190487E0,4.692563057E0,5.235903617E0
7.557106664E0,-2.527542830E0,1.427658558E0,5.397615433E0,6.128697584E0
7.562132393E0,-2.882232904E0,1.505708218E0,5.858247757E0,6.700260483E0
7.567158122E0,-2.962600946E0,1.881917000E0,6.151165485E0,7.082051454E0
7.572183852E0,-2.875912666E0,2.526884556E0,6.496304512E0,7.540423830E0
7.577209581E0,-2.778278828E0,3.095611095E0,6.825550079E0,7.993107980E0
7.582235310E0,-2.695573092E0,3.454043865E0,6.947002411E0,8.213243927E0
7.587261039E0,-2.562337875E0,3.779181480E0,6.999280930E0,8.356896648E0
7.592286768E0,-2.241909266E0,4.137920856E0,7.215949059E0,8.615014044E0
7.597312497E0,-1.736920953E0,4.439270020E0,7.342314720E0,8.754061809E0
7.602338227E0,-1.083596230E0,4.348514080E0,7.563887596E0,8.791822966E0
7.607363956E0,-4.665920734E-1,4.091088772E0,7.654167175E0,8.691432025E0
7.612389685E0,-3.078638315E-1,3.992597103E0,7.569565773E0,8.563523677E0
7.617415414E0,-4.292812347E-1,3.933572292E0,7.606757164E0,8.574382072E0
7.622441143E0,-6.858967543E-1,3.856772900E0,7.445539474E0,8.413156936E0
7.627466872E0,-1.014297128E0,3.814958096E0,7.340048790E0,8.334207831E0
7.632492602E0,-1.403531075E0,3.770033360E0,7.242688656E0,8.284901326E0
7.637518331E0,-1.871409655E0,3.674303055E0,7.201701164E0,8.298624988E0
7.642544060E0,-2.440793991E0,3.614058495E0,7.112010002E0,8.342636297E0
7.647569789E0,-3.114769936E0,3.818900585E0,7.117816925E0,8.657315474E0
7.652595518E0,-3.819042206E0,4.202608585E0,7.239011765E0,9.200559419E0
7.657621247E0,-4.398414612E0,4.507003784E0,7.342020988E0,9.672869605E0
7.662646977E0,-4.837178707E0,4.847239971E0,7.785722733E0,1.036877580E1
7.667672706E0,-5.187240601E0,5.257158279E0,8.186529160E0,1.102562642E1
7.672698435E0,-5.385927200E0,5.607727051E0,8.324287415E0,1.139072322E1
7.677724164E0,-5.452815533E0,5.927660465E0,8.414353371E0,1.164781947E1
7.682749893E0,-5.092707634E0,6.537207603E0,8.528162003E0,1.189118587E1
7.687775622E0,-4.828969002E0,6.943063259E0,8.526761055E0,1.200960962E1
7.692801352E0,-4.605736256E0,7.202619553E0,8.854509354E0,1.230824402E1
7.697827081E0,-4.787434101E0,7.143834114E0,8.783329964E0,1.229230558E1
7.702852810E0,-5.281690598E0,6.718849182E0,7.363365173E0,1.128088368E1
7.707878539E0,-4.914677620E0,7.127711773E0,6.268173695E0,1.068870117E1
7.712904268E0,-4.132194996E0,7.756534576E0,5.360365868E0,1.029428902E1
7.717929997E0,-3.250950813E0,8.264835358E0,4.263312340E0,9.851498200E0
7.722955727E0,-2.424272060E0,8.365276337E0,3.136475325E0,9.257020075E0
7.727981456E0,-1.613744378E0,7.995734692E0,1.919115305E0,8.379674679E0
7.733007185E0,-1.135245681E0,7.170675755E0,4.070010185E-1,7.271383868E0
7.738032914E0,-7.968819141E-1,5.966575146E0,-2.200942516E0,6.409304776E0
7.743058643E0,1.376924515E-1,4.463870049E0,-7.224028111E0,8.493036981E0
7.748084372E0,2.382717609E0,2.770064354E0,-1.719553375E1,1.757944768E1
7.753110102E0,6.647196293E0,2.838201523E-1,-2.819329262E1,2.896769789E1
7.758135831E0,8.904443741E0,-4.491204262E0,-3.153996086E1,3.307913489E1
7.763161560E0,7.685926914E0,-9.690876007E0,-2.398457527E1,2.698604086E1
7.768187289E0,4.944496155E0,-1.357643986E1,-1.555465508E1,2.123005078E1
7.773213018E0,2.419494629E0,-1.634616089E1,-9.296866417E0,1.896002783E1
7.778238747E0,-1.897245646E-1,-1.807169342E1,-5.640645027E0,1.893248464E1
7.783264477E0,-2.711383581E0,-1.836264801E1,-4.197660446E0,1.903047020E1
7.788290206E0,-3.886202335E0,-1.693574524E1,-2.918008566E0,1.761921705E1
7.793315935E0,-2.958655357E0,-1.247409248E1,7.620742321E-1,1.284279494E1
7.798341664E0,-8.832480311E-1,-5.972701073E0,-7.933440208E-1,6.089554986E0
7.803367393E0,-2.952442169E0,-3.053897858E0,-8.148136139E0,9.188869867E0
7.808393122E0,-4.376783848E0,-9.757375717E-1,-1.736674309E1,1.793633369E1
7.813418852E0,2.741352320E-1,3.964900970E-2,-8.016278267E0,8.021062238E0
7.818444581E0,4.371071339E0,2.355233669E0,5.581168175E0,7.470129080E0
7.823470310E0,3.704612970E0,3.224048138E0,3.320666790E0,5.928361627E0
7.828496039E0,2.936599493E0,2.846451759E0,-2.826574564E0,4.971461351E0
7.833521768E0,3.360199213E0,1.853362083E0,-6.184391499E0,7.278226980E0
7.838547497E0,4.461222649E0,-5.831661224E-1,-8.157737732E0,9.316183508E0
7.843573227E0,6.348009586E0,-4.310855865E0,-6.989892960E0,1.037975470E1
7.848598956E0,1.075826073E1,-8.353281975E0,-4.216354847E0,1.425816053E1
7.853624685E0,1.510207939E1,-1.170496655E1,-1.288831234E0,1.915046030E1
7.858650414E0,1.600243759E1,-1.339539146E1,1.351301432E0,2.091268842E1
7.863676143E0,1.441400719E1,-1.418894196E1,2.549897432E0,2.038606519E1
7.868701872E0,1.221231556E1,-1.421142483E1,2.550415516E0,1.891057551E1
7.873727602E0,8.639755249E0,-1.377371502E1,3.144997120E0,1.656054356E1
7.878753331E0,3.961570978E0,-1.188442326E1,3.135514021E0,1.291375270E1
7.883779060E0,-1.569291353E0,-9.682322502E0,1.543638468E0,9.929393945E0
7.888804789E0,-7.753598213E0,-7.917815208E0,2.020396233E0,1.126463865E1
7.893830518E0,-1.114223671E1,-4.561510086E0,6.293229580E0,1.358534327E1
7.898856247E0,-1.195377064E1,-5.082073212E-1,1.088286495E1,1.617367171E1
7.903881977E0,-1.335035133E1,1.463853359E0,1.056116199E1,1.708545844E1
7.908907706E0,-1.330433846E1,2.041057110E0,8.552785873E0,1.594746005E1
7.913933435E0,-1.301395416E1,3.056460857E0,7.634245872E0,1.539437124E1
7.918959164E0,-1.259944725E1,4.447558403E0,7.525811195E0,1.533508008E1
7.923984893E0,-1.128419590E1,5.453451157E0,7.683480263E0,1.470064881E1
7.929010622E0,-9.718357086E0,5.921030998E0,7.760923386E0,1.377450559E1
7.934036352E0,-8.531475067E0,5.764140129E0,7.356008053E0,1.265394139E1
7.939062081E0,-7.233096123E0,5.327216148E0,7.386827469E0,1.163022491E1
7.944087810E0,-6.384897232E0,4.739130974E0,6.580158234E0,1.032108315E1
7.949113539E0,-5.713606358E0,3.980270386E0,5.268772125E0,8.731999179E0
7.954139268E0,-5.202873707E0,3.246571064E0,4.158789635E0,7.409834661E0
7.959164997E0,-4.778389454E0,2.514056683E0,3.505594730E0,6.437599024E0
7.964190727E0,-4.394748688E0,1.835491180E0,3.008877277E0,5.633487940E0
7.969216456E0,-4.054534912E0,1.268274784E0,2.436152458E0,4.897204619E0
7.974242185E0,-3.855738163E0,7.980499268E-1,2.067348003E0,4.447193299E0
7.979267914E0,-3.705718040E0,3.817710876E-1,1.913586140E0,4.188067248E0
7.984293643E0,-3.502660751E0,-1.886081696E-2,1.833110094E0,3.953388507E0
7.989319372E0,-3.388247490E0,-4.326009750E-1,1.680716753E0,3.806858739E0
7.994345102E0,-3.255794764E0,-7.878074646E-1,1.851456165E0,3.827365945E0
7.999370831E0,-3.048246384E0,-1.075124741E0,2.555584192E0,4.120522999E0
8.004396560E0,-2.920366287E0,-1.189617157E0,3.427219391E0,4.657205276E0
8.009422289E0,-2.835962772E0,-1.155663490E0,4.138459206E0,5.148309193E0
8.014448018E0,-2.625752926E0,-1.026402473E0,4.772661686E0,5.543138103E0
8.019473747E0,-2.446455002E0,-8.931436539E-1,5.068262100E0,5.698256609E0
8.024499477E0,-2.386901855E0,-8.995914459E-1,4.908451557E0,5.531678039E0
8.029525206E0,-2.200661659E0,-8.878993988E-1,4.846598148E0,5.396368287E0
8.034550935E0,-1.980860591E0,-8.149938583E-1,4.937586308E0,5.382172630E0
8.039576664E0,-1.886684895E0,-6.903123856E-1,5.016361237E0,5.403701614E0
8.044602393E0,-1.961111903E0,-6.523580551E-1,4.737275600E0,5.168492144E0
8.049628122E0,-1.925377846E0,-5.907669067E-1,4.334766388E0,4.779778763E0
8.054653852E0,-1.768670678E0,-4.862709045E-1,4.000310898E0,4.400811589E0
8.059679581E0,-1.494605780E0,-4.201841354E-1,3.547698498E0,3.872539964E0
8.064705310E0,-1.193580866E0,-3.064956665E-1,3.116332531E0,3.351134632E0
8.069731039E0,-8.699437976E-1,-1.741104126E-1,2.706690788E0,2.848384045E0
8.074756768E0,-4.904669523E-1,4.363822937E-2,2.285942554E0,2.338374540E0
8.079782497E0,-9.875655174E-2,3.129119873E-1,1.907087803E0,1.935109986E0
8.084808227E0,3.809385300E-1,6.285924911E-1,1.647057891E0,1.803619245E0
8.089833956E0,7.854720354E-1,8.708600998E-1,1.539401770E0,1.935231624E0
8.094859685E0,1.167157888E0,1.135259628E0,1.421645284E0,2.161515041E0
8.099885414E0,1.592445612E0,1.402421951E0,1.193994999E0,2.434808907E0
8.104911143E0,2.084915400E0,1.595659256E0,8.955559134E-1,2.773990101E0
8.109936872E0,2.371941566E0,1.705392361E0,5.225461125E-1,2.967747351E0
8.114962602E0,2.511483431E0,1.769931316E0,9.061263502E-2,3.073827669E0
8.119988331E0,2.676426411E0,1.789350986E0,-2.225681990E-1,3.227161584E0
8.125014060E0,2.872058392E0,1.830693722E0,-5.936242342E-1,3.457245817E0
8.130039789E0,2.889648676E0,1.960971355E0,-1.534197032E-1,3.495570874E0
8.135065518E0,2.858197451E0,2.242237091E0,1.590399444E-1,3.636236178E0
8.140091247E0,3.198468208E0,2.382415771E0,-8.107755184E-1,4.069823182E0
8.145116977E0,3.768545389E0,2.376730919E0,-2.116461039E0,4.932564398E0
8.150142706E0,4.323732376E0,2.258766174E0,-3.389753819E0,5.940296057E0
8.155168435E0,5.000548840E0,1.990522861E0,-4.133411884E0,6.786218665E0
8.160194164E0,5.556628704E0,1.711097240E0,-4.454816341E0,7.324572681E0
8.165219945E0,5.836385727E0,1.616886616E0,-4.515182018E0,7.554110758E0
8.170245727E0,5.915059090E0,1.626683712E0,-4.476683140E0,7.594387129E0
8.175271508E0,5.930141449E0,1.678471088E0,-4.439815521E0,7.595775448E0
8.180297289E0,5.923168182E0,1.671956539E0,-4.386003494E0,7.557538398E0
8.185323070E0,5.816024780E0,1.473406792E0,-4.277995110E0,7.368738968E0
8.190348852E0,5.555169582E0,1.226615906E0,-4.121653557E0,7.025135138E0
8.195374633E0,5.053904057E0,1.032146454E0,-4.027895927E0,6.544556373E0
8.200400414E0,4.303319454E0,7.656812668E-1,-4.011639118E0,5.932796519E0
8.205426195E0,3.481332779E0,4.992275238E-1,-4.087174416E0,5.392021953E0
8.210451977E0,2.637200832E0,1.851825714E-1,-4.254167080E0,5.008698270E0
8.215477758E0,1.877673388E0,-1.331167221E-1,-4.430854797E0,4.814130414E0
8.220503539E0,1.232698321E0,-3.979797363E-1,-4.693121910E0,4.868606195E0
8.225529320E0,6.696072221E-1,-7.240037918E-1,-4.916083813E0,5.014023871E0
8.230555102E0,1.316892952E-1,-1.125378609E0,-4.832132339E0,4.963196755E0
8.235580883E0,-2.851771116E-1,-1.506500244E0,-4.480771065E0,4.735839768E0
