"Time (s)","Linear Acceleration x (m/s^2)","Linear Acceleration y (m/s^2)","Linear Acceleration z (m/s^2)","Absolute acceleration (m/s^2)"
8.366912000E-2,0.000000000E0,0.000000000E0,0.000000000E0,0.000000000E0
9.366912000E-2,-2.814817429E-2,-2.729225159E-2,-5.583703518E-2,6.822727614E-2
1.036696410E-1,-9.085249901E-2,-2.714157104E-2,-5.613716841E-1,5.693232905E-1
1.136722450E-1,-6.428319216E-1,-1.444530487E-2,-4.721190929E-1,7.977079567E-1
1.236696410E-1,-5.839768648E-1,2.535867691E-2,-4.371538162E-1,7.299147212E-1
1.336748490E-1,-5.788043737E-1,7.113170624E-2,-4.184887409E-1,7.177792481E-1
1.436805790E-1,-1.127008438E0,1.101746559E-1,-3.528130054E-1,1.186070610E0
1.536678180E-1,-1.877304912E0,1.274757385E-1,-2.133021355E-1,1.893679380E0
1.636696410E-1,-1.633159995E0,8.424139023E-2,5.215075016E-1,1.716472620E0
1.736693810E-1,-1.593781829E0,7.560563087E-1,1.547194242E0,2.346395466E0
1.836792760E-1,-1.424299955E0,3.249964714E0,1.454928160E0,3.835064140E0
1.936797970E-1,1.178753138E0,5.908081055E0,1.379933596E0,6.180541840E0
2.036741200E-1,2.172798634E0,7.194953918E0,1.318509698E0,7.630654206E0
2.136555260E-1,2.158838034E0,7.775582314E0,1.267942429E0,8.168717156E0
2.236657870E-1,3.012445927E0,8.208465576E0,1.038695931E0,8.805261314E0
2.336704740E-1,2.932884216E0,8.722456932E0,1.015243292E0,9.258173886E0
2.436756310E-1,2.846412182E0,9.071630478E0,9.966186285E-1,9.559800758E0
2.536756310E-1,2.661465645E0,8.573229790E0,9.820597768E-1,9.030399206E0
2.636683390E-1,1.384246826E0,5.877007484E0,9.709567428E-1,6.115399680E0
2.736732870E-1,-3.623671532E-1,3.426823616E0,7.723397613E-1,3.531421634E0
2.836712040E-1,-1.412935734E0,2.108502388E0,7.754151821E-1,2.653947703E0
2.937264120E-1,-2.382460833E0,1.894670486E0,7.799623609E-1,3.142329893E0
3.036675580E-1,-2.244858265E0,1.128559113E0,7.857972980E-1,2.632586503E0
3.136719850E-1,-2.116663933E0,1.033927917E0,7.927653790E-1,2.485508014E0
3.236655260E-1,-1.112943649E0,9.177684784E-1,6.084282994E-1,1.565607723E0
3.336709430E-1,-4.155967236E-1,2.561473846E-1,6.244124174E-1,7.926051894E-1
3.436722450E-1,-2.865484953E-1,1.733722687E-1,6.406834126E-1,7.229406745E-1
3.536685990E-1,3.708770275E-1,6.499385834E-2,6.572116017E-1,7.574305649E-1
3.636868290E-1,4.819843769E-1,-1.739406586E-2,2.305521250E0,2.355427716E0
3.736804220E-1,1.369334221E0,-1.246034622E0,2.970029354E0,3.499821832E0
3.836808910E-1,1.435894966E0,-1.187721252E0,2.974424839E0,3.509940064E0
3.937064640E-1,1.488159895E0,-1.132335663E0,2.940887928E0,3.485057493E0
4.036665680E-1,1.523510695E0,-1.079620361E0,2.846819639E0,3.404562677E0
4.136683390E-1,1.525442839E0,-1.029345512E0,2.692130327E0,3.260995820E0
4.236696410E-1,1.503801823E0,-1.078530312E0,2.481568575E0,3.095614664E0
4.336569330E-1,1.481313229E0,-1.029921532E0,1.505993843E0,2.350115890E0
4.436738080E-1,1.377022266E0,-9.833440781E-1,1.308163524E0,2.138795853E0
4.536693810E-1,5.144641399E-1,-9.197607040E-1,1.688642800E-2,1.054001070E0
4.636683390E-1,-2.754242420E-1,-9.753761292E-1,-1.396229863E-1,1.023089285E0
4.736691200E-1,-3.216452599E-1,-9.326295853E-1,-9.725102037E-2,9.913180002E-1
4.836685990E-1,-3.412053585E-1,-8.914051056E-1,-5.591960251E-2,9.561125252E-1
4.936753700E-1,-3.427400589E-1,-8.516006470E-1,-1.555779576E-2,9.181157089E-1
5.036688600E-1,-3.048808575E-1,-2.019438744E0,2.389904484E-2,2.042463302E0
5.136709430E-1,-2.189853191E-1,-2.114917755E0,-1.331422329E-1,2.130389292E0
5.236683390E-1,4.026427269E-1,-2.997622967E0,-9.116049111E-2,3.025917192E0
5.336683390E-1,4.874000549E-1,-3.032498360E0,-5.009464547E-2,3.071825937E0
5.437021930E-1,1.097171068E0,-3.592013359E0,-9.888634086E-3,3.755854378E0
5.536644330E-1,1.127380848E0,-3.595007896E0,2.950913832E-2,3.767750010E0
5.636616200E-1,1.141308069E0,-3.614071846E0,-1.279322207E-1,3.792158497E0
5.736717240E-1,1.126842737E0,-3.642207623E0,-8.624121547E-2,3.813513926E0
5.836673490E-1,1.073624611E0,-4.214924812E0,-4.536873847E-2,4.349749338E0
5.936787560E-1,9.728040695E-1,-4.161417484E0,-5.269318819E-3,4.273613343E0
6.036683390E-1,8.505542278E-1,-4.116874218E0,3.409921378E-2,4.203957490E0
6.136717240E-1,7.341814041E-2,-4.085051537E0,-1.236525550E-1,4.087581954E0
6.236688600E-1,-1.090550423E-2,-4.064336777E0,-8.218497038E-2,4.065182251E0
6.336706830E-1,-1.838071346E-1,-4.092960358E0,-2.147935331E-3,4.097086058E0
6.436738080E-1,-2.559435368E-1,-4.066823483E0,3.722119704E-2,4.075039356E0
6.536678180E-1,-3.079147339E-1,-4.022507668E0,-1.207660288E-1,4.036082736E0
6.636704220E-1,-3.279738426E-1,-3.967539310E0,-7.946335524E-2,3.981865071E0
6.736704220E-1,-3.301866055E-1,-3.898752213E0,-3.883695230E-2,3.912901777E0
6.836680790E-1,-3.073740005E-1,-3.818261623E0,1.144874841E-3,3.830613777E0
6.936738080E-1,-2.485508919E-1,-3.713406086E0,4.051187634E-2,3.721935453E0
7.036665160E-1,-1.781148911E-1,-3.592625618E0,-1.176776886E-1,3.598962598E0
7.136678180E-1,-9.777569771E-2,-3.463208199E0,-7.651832700E-2,3.465433042E0
7.236896930E-1,6.506443024E-4,-3.331441402E0,-3.598129004E-2,3.331635769E0
7.336671410E-1,7.136983871E-1,-3.202741623E0,3.960467875E-3,3.281300806E0
7.436840160E-1,7.717907429E-1,-3.081771851E0,4.333246127E-2,3.177240374E0
7.536641200E-1,8.448688984E-1,-2.972538471E0,-1.150243282E-1,3.092413138E0
7.636673490E-1,9.356307983E-1,-2.859128952E0,-7.398232818E-2,3.009235242E0
7.736717240E-1,1.543358088E0,-2.742325783E0,-3.351681679E-2,3.146971284E0
7.836691200E-1,1.544316769E0,-2.055031776E0,6.395570934E-3,2.570624591E0
7.936771930E-1,1.557339191E0,-1.968359947E0,4.577696323E-2,2.510346942E0
8.036696410E-1,1.571106195E0,-1.856698990E0,-1.127201021E-1,2.434832979E0
8.136714640E-1,1.583578348E0,-1.128062248E0,-3.230061010E-2,1.944553458E0
8.236678180E-1,1.555539846E0,-1.044477463E0,7.601927966E-3,1.873684918E0
8.336688600E-1,1.509721756E0,-9.756140709E-1,4.700690135E-2,1.798135769E0
8.436779740E-1,1.443775892E0,-9.292664528E-1,-1.115981191E-1,1.720604286E0
8.536680790E-1,1.345999479E0,-9.266834259E-1,9.620763063E-1,1.896324758E0
8.636678180E-1,6.525504589E-1,-9.328689575E-1,1.044170499E0,1.544784329E0
8.736696410E-1,5.623288155E-1,-9.224042892E-1,1.750907779E0,2.057357873E0
8.836696410E-1,4.641635418E-1,-8.830242157E-1,1.804818273E0,2.062170836E0
8.936782350E-1,3.689515591E-1,-7.896037102E-1,1.829641223E0,2.026619421E0
9.036922970E-1,-2.422320843E-1,1.002278328E0,1.805053473E0,2.078811263E0
9.136717760E-1,-2.955627441E-1,1.010662079E0,1.723225951E0,2.019480837E0
9.236564640E-1,-3.655750751E-1,2.439308167E0,1.625951767E0,2.954249247E0
9.336915680E-1,-4.305391312E-1,4.050735474E0,1.530001044E0,4.351404947E0
9.436764640E-1,-4.765090942E-1,5.912442207E0,1.435326457E0,6.102802292E0
9.536676100E-1,-4.865829945E-1,7.849569321E0,1.361293435E0,7.981580128E0
9.636847450E-1,-3.733692169E-1,9.328948021E0,1.266402841E0,9.421913389E0
9.736787560E-1,6.224422455E-1,1.006993103E1,-1.993091702E-1,1.009111834E1
9.836824010E-1,7.805738449E-1,9.986449242E0,-1.576322466E-1,1.001814913E1
9.936792760E-1,1.911632776E0,8.484333992E0,-2.747700512E-1,8.701365510E0
1.003679016E0,1.986129761E0,6.961969376E0,-2.323744446E-1,7.243460975E0
1.013681099E0,2.028903723E0,5.066421509E0,-1.904312670E-1,5.460891987E0
1.023677454E0,1.990748405E0,2.995682716E0,-2.174863577E0,4.203239909E0
1.033679016E0,1.264315367E0,1.256422997E0,-3.046064854E0,3.529249663E0
1.043677193E0,1.048507690E-1,1.929731369E-1,-3.161809206E0,3.169427357E0
1.053677714E0,-8.584218025E-1,2.109060287E-1,-3.898086548E0,3.997054926E0
1.063680579E0,-1.004472136E0,-7.952518463E-1,-3.897013664E0,4.102207366E0
1.073677974E0,-1.824810505E0,2.561635971E-1,-3.848026991E0,4.266481559E0
1.083689433E0,-1.848608375E0,1.745014191E-1,-3.723581314E0,4.160872681E0
1.093670370E0,-1.842920899E0,1.926832199E-1,-2.863967896E0,3.411128313E0
1.103669381E0,-1.792253494E0,2.107143402E-1,-2.703024149E0,3.250063487E0
1.113689849E0,-1.722100735E0,2.285976410E-1,-1.831046343E0,2.524008425E0
1.123683756E0,-1.635138273E0,2.463378906E-1,-1.739467025E0,2.400021887E0
1.133681881E0,-1.533699870E0,1.648397446E-1,-1.682532668E0,2.282613330E0
1.143678756E0,-9.122636318E-1,1.831884384E-1,-1.684885025E0,1.924739069E0
1.153680579E0,-8.459329605E-1,2.013912201E-1,-1.733804107E0,1.939648854E0
1.163680058E0,-7.437667847E-1,2.194490433E-1,-1.803627968E0,1.963267878E0
1.173677974E0,7.803487778E-2,1.580753326E-1,-1.888090491E0,1.896302443E0
1.183682662E0,1.945500374E-1,1.765527725E-1,-1.817134976E0,1.836028355E0
1.193668079E0,9.779810905E-1,1.948871613E-1,-1.675936341E0,1.950177079E0
1.203669120E0,1.027681828E0,2.130813599E-1,-8.107419014E-1,1.326211158E0
1.213666776E0,1.074665546E0,2.311391830E-1,2.798532546E-1,1.134305604E0
1.223669901E0,1.094929934E0,1.498899460E-1,1.188627332E-1,1.111515589E0
1.233673026E0,1.087131023E0,1.684970856E-1,1.575605869E-1,1.111337243E0
1.243667558E0,1.035527229E0,1.869649887E-1,1.959543973E-1,1.070360068E0
1.253666776E0,9.459567070E-1,2.052955627E-1,2.340515256E-1,9.958717168E-1
1.263667558E0,8.381171227E-1,2.234935760E-1,2.718591094E-1,9.090088367E-1
1.273674485E0,1.626875401E-1,1.423549652E-1,1.109713614E-1,2.429955038E-1
1.283693131E0,9.398484230E-2,-8.816871643E-1,-8.631832004E-1,1.237453289E0
1.293673235E0,9.915113449E-3,-9.194250107E-1,-9.295331240E-1,1.307467968E0
1.303667610E0,-5.937395096E-1,-9.416122437E-1,-9.570808411E-1,1.468047669E0
1.313667558E0,-6.450664997E-1,-9.356794357E-1,-9.265793562E-1,1.466341058E0
1.323668079E0,-6.939210892E-1,-8.858671188E-1,-8.651788235E-1,1.419444056E0
1.333674849E0,-7.308545113E-1,-8.077373505E-1,-7.770037055E-1,1.338029410E0
1.343670162E0,-7.525401115E-1,2.224960327E-1,2.306404263E-1,8.179340501E-1
1.353669641E0,-7.755777836E-1,2.406854630E-1,2.686207294E-1,8.553405677E-1
1.363668599E0,-8.071506023E-1,1.793575287E-1,1.475279182E-1,8.398962463E-1
1.373667297E0,-7.827143669E-1,1.979017258E-1,1.861591041E-1,8.285300751E-1
1.383673287E0,-7.169816494E-1,2.163228989E-1,2.245202661E-1,7.818360647E-1
1.393667558E0,-6.056902409E-1,2.346220016E-1,2.626172304E-1,7.006254072E-1
1.403669641E0,1.490931511E-1,2.528038025E-1,3.004556894E-1,4.200144659E-1
1.413667037E0,2.299094200E-1,1.715784073E-1,1.394595504E-1,3.189772052E-1
1.423668339E0,3.389046192E-1,1.902284622E-1,1.781957448E-1,4.275475789E-1
1.433662662E0,1.009503603E0,2.087583542E-1,2.166699022E-1,1.053386644E0
1.443667558E0,1.029780626E0,2.271690369E-1,2.548874617E-1,1.084906230E0
1.453687401E0,1.031939983E0,2.454652786E-1,2.928537726E-1,1.100416587E0
1.463686308E0,1.003741980E0,1.643323898E-1,1.319438070E-1,1.025627742E0
1.473666099E0,9.394435883E-1,1.830778122E-1,1.707741320E-1,9.722322485E-1
1.483694433E0,8.438246250E-1,2.017059326E-1,-1.308044434E0,1.569619547E0
1.493669641E0,2.280972004E-1,-1.437304497E0,-1.329111934E0,1.970890936E0
1.503669641E0,1.808595657E-1,-1.464023590E0,-1.297635555E0,1.964671293E0
1.513667297E0,1.591515541E-1,-1.374003410E0,-1.186403632E0,1.822297497E0
1.523670422E0,1.596517563E-1,2.090187073E-1,2.039207220E-1,3.328079989E-1
1.533674329E0,1.794579029E-1,2.275218964E-1,2.423264682E-1,3.777478914E-1
1.543666256E0,2.825770378E-1,2.497583389E0,3.202469349E-1,2.533837143E0
1.553667297E0,3.688423634E-1,3.208648682E0,1.665916204E0,3.634108949E0
1.563670422E0,9.686427116E-1,3.288849831E0,1.813006759E0,3.878375358E0
1.573668339E0,1.022812366E0,3.282973289E0,2.590071917E0,4.304942658E0
1.583673287E0,1.098395109E0,3.158394814E0,2.559584856E0,4.211104873E0
1.593670162E0,1.177922487E0,2.121897697E0,2.462910175E0,3.457727253E0
1.603669381E0,1.764723778E0,7.480716705E-2,2.342889071E0,2.934105540E0
1.613667037E0,1.755162001E0,9.422111511E-2,1.602433562E0,2.378500492E0
1.623669120E0,1.711428404E0,1.135206223E-1,1.503950000E0,2.281170690E0
1.633718599E0,1.633138418E0,-1.427343369E0,1.747383475E-1,2.176001764E0
1.643674745E0,1.529732227E0,-1.555099487E0,2.134369165E-1,2.191796163E0
1.653770579E0,7.558839321E-1,-2.344826698E0,5.311501026E-2,2.464222792E0
1.663671516E0,6.285707951E-1,-2.379519463E0,9.255743772E-2,2.462880630E0
1.673669901E0,-1.841962337E-1,-2.407999039E0,1.317684054E-1,2.418625754E0
1.683677714E0,-2.674512863E-1,-2.421310902E0,1.707520187E-1,2.442014112E0
1.693669901E0,-3.543138504E-1,-2.416553020E0,2.095123082E-1,2.451359258E0
1.703668339E0,-4.198713303E-1,-2.400966644E0,1.405419588E0,2.813563040E0
1.713669901E0,-4.717304707E-1,-2.390612602E0,1.403248310E0,2.811879100E0
1.723668860E0,-5.440881252E-1,-2.438881874E0,1.306253314E0,2.819658562E0
1.733673287E0,-5.449671745E-1,-2.493516922E0,1.198086262E0,2.819579145E0
1.743673026E0,-5.502386093E-1,-2.583253384E0,1.849716157E-2,2.641269149E0
1.753670422E0,-5.690867901E-1,-3.335460663E0,5.816666782E-2,3.384160305E0
1.763671464E0,-5.899808407E-1,-3.399601936E0,9.761516750E-2,3.451796552E0
1.773671204E0,-6.370365620E-1,-3.492160320E0,1.368463635E-1,3.552425398E0
1.783673808E0,-7.117073536E-1,-4.170752525E0,1.758638918E-1,4.234693861E0
1.793669120E0,-8.103628159E-1,-4.192223072E0,1.577623934E-2,4.269856095E0
1.803667818E0,-1.502034426E0,-4.203260422E0,5.546977371E-2,4.463920080E0
1.813732766E0,-1.540490150E0,-4.190587997E0,9.494808316E-2,4.465775723E0
1.823667506E0,-1.568070412E0,-4.137788773E0,1.342146695E-1,4.426980271E0
1.833820683E0,-1.581294894E0,-4.045235157E0,1.732729673E-1,4.346774038E0
1.843659068E0,-1.601541042E0,-3.918155193E0,1.320160925E-2,4.232853424E0
1.853667089E0,-1.603492498E0,-3.118649960E0,5.291710794E-2,3.507130734E0
1.863668131E0,-1.574885845E0,-3.024255753E0,9.242286533E-2,3.411001359E0
1.873674329E0,-1.519704938E0,-2.910892010E0,1.317222118E-1,3.286357578E0
1.883676412E0,-1.431672215E0,-2.252786636E0,1.402252197E0,3.015135849E0
1.893670162E0,-1.315102696E0,-2.211744785E0,1.469917893E0,2.963438663E0
1.903674068E0,-4.845001698E-1,-2.209033966E0,1.593298197E0,2.766436448E0
1.913668079E0,-3.821573257E-1,-2.244169235E0,1.595301867E0,2.779807156E0
1.923671724E0,2.645912170E-1,-2.302653313E0,1.542371988E0,2.784085512E0
1.933675891E0,2.748908997E-1,-2.357031822E0,1.451418281E0,2.781686367E0
1.943673547E0,2.592840195E-1,-2.398048401E0,1.337182641E0,2.757883564E0
1.953666516E0,1.918461323E-1,-2.412771702E0,3.759550303E-2,2.420678757E0
1.963667297E0,7.932448387E-2,-2.385077953E0,7.720557600E-2,2.387645266E0
1.973671464E0,-7.268757820E-1,-2.291189194E0,1.166195422E-1,2.406552813E0
1.983673026E0,-7.982540131E-1,-1.361734390E0,-4.316462576E-2,1.579048196E0
1.993782506E0,-8.843322992E-1,-3.555507660E-1,-3.148961812E-3,9.531368625E-1
2.003663026E0,-9.636360407E-1,6.635274887E-1,1.493464112E0,1.897181647E0
2.013688547E0,-1.002825260E0,2.501519203E0,1.543008089E0,3.105500087E0
2.023676464E0,-1.026594162E0,4.215555191E0,1.512009025E0,4.594667826E0
2.033685683E0,-1.032042980E0,6.073713303E0,1.449955702E0,6.329097687E0
2.043669901E0,-1.002010107E0,8.155442238E0,1.424368978E0,8.339309884E0
2.053670162E0,-8.922759295E-1,1.014826393E1,1.445202589E0,1.028941338E1
2.063671204E0,2.956902981E-1,1.146477699E1,1.415056348E0,1.155555835E1
2.073670422E0,1.469508171E0,1.151325893E1,1.291331649E0,1.167827568E1
2.083675110E0,3.234097719E0,1.042843819E1,-8.932442963E-2,1.091877694E1
2.093665995E0,3.481935978E0,8.878547668E0,-4.281026870E-2,9.536997409E0
2.103669120E0,4.394805908E0,6.939512253E0,6.849054247E-3,8.214085231E0
2.113670422E0,4.480622292E0,4.472229958E0,-1.570995212E0,6.522640789E0
2.123668079E0,4.405342102E0,1.928467751E0,-2.265657187E0,5.315941063E0
2.133672506E0,3.187386036E0,6.769847870E-2,-2.380110502E0,3.978559894E0
2.143670422E0,1.860957146E0,-1.559530258E0,-2.979107857E0,3.843225175E0
2.153669641E0,6.179418564E-1,-2.348211288E0,-2.922881365E0,3.799892612E0
2.163668860E0,-2.685465813E-1,-2.410966873E0,-2.834869385E0,3.731134272E0
2.173786568E0,-4.537810087E-1,-2.420549393E0,-2.713464022E0,3.664404940E0
2.183702766E0,-1.300834060E0,-2.346091270E0,-2.549824953E0,3.701070222E0
2.193687245E0,-1.382708073E0,-1.628996372E0,-2.351166248E0,3.177025893E0
2.203665995E0,-1.392719388E0,2.712965012E-1,-1.637104869E0,2.166421343E0
2.213670214E0,-6.957018375E-1,3.088245392E-1,-1.481594563E0,1.665681870E0
2.223687089E0,-5.728700161E-1,2.358760834E-1,-1.298480630E0,1.438704114E0
2.233679537E0,2.071788311E-1,2.625026703E-1,-5.963630676E-1,6.837248192E-1
2.243677974E0,2.677829266E-1,2.887639999E-1,-4.665008783E-1,6.105042284E-1
2.253682401E0,3.176467419E-1,3.146677017E-1,-3.369839191E-1,5.598869322E-1
2.263677974E0,3.286380768E-1,2.603530884E-1,-1.016415358E-1,4.314136274E-1
2.273677974E0,2.516088486E-1,2.857084274E-1,1.135146618E0,1.197286166E0
2.283682662E0,-4.326305389E-1,3.084411621E-1,1.213701129E0,1.324905870E0
2.293680579E0,-5.279173851E-1,3.309192657E-1,1.288906097E0,1.431601639E0
2.303718860E0,-1.207294345E0,3.531055450E-1,1.360709548E0,1.853044423E0
2.313677454E0,-1.235206127E0,2.752065659E-1,1.229049921E0,1.764096522E0
2.323669120E0,-1.229602695E0,2.969264984E-1,1.293110490E0,1.808928653E0
2.333678495E0,-1.170651793E0,3.130817413E-1,1.316064715E0,1.788986342E0
2.343679016E0,-1.045206189E0,3.291082382E-1,1.337878466E0,1.729360286E0
2.353818183E0,-8.627390862E-2,3.391265869E-1,1.360146761E0,1.404439120E0
2.363674485E0,8.108639717E-2,2.497920990E-1,1.182169557E0,1.210989660E0
2.373677766E0,1.072406054E0,2.608919144E-1,1.204589009E0,1.633754576E0
2.383671308E0,1.245300293E0,2.723464966E-1,1.227390766E0,1.769585694E0
2.393667401E0,2.233683825E0,2.841529846E-1,1.250576854E0,2.575660850E0
2.403696464E0,2.307952881E0,2.960357666E-1,1.272664666E0,2.652161199E0
2.413679589E0,2.344149590E0,2.110929489E-1,1.095964313E0,2.596292608E0
2.423671985E0,2.272560358E0,2.367963791E-1,1.121054173E0,2.545066908E0
2.433668391E0,2.147112846E0,2.637958527E-1,1.146456122E0,2.448273569E0
2.443669641E0,1.145254374E0,3.186864853E-1,-3.623182774E-1,1.242756288E0
2.453667818E0,9.688861370E-1,2.536087036E-1,-1.018247962E0,1.428245999E0
2.463679276E0,1.336309910E-1,2.882261276E-1,-1.170742750E0,1.213082903E0
2.473668079E0,7.793664932E-3,3.227062225E-1,-2.107218742E0,2.131799915E0
2.483669381E0,-1.018037796E-1,3.567762375E-1,-2.181649208E0,2.212972336E0
2.493671204E0,-1.677467823E-1,3.906192780E-1,-2.225030899E0,2.265278108E0
2.503693079E0,-2.099916935E-1,3.304119110E-1,-2.178943157E0,2.213834191E0
2.513675370E0,-2.132086754E-1,3.611698151E-1,-2.106436253E0,2.147783802E0
2.523669641E0,-2.233519554E-1,3.936462402E-1,-1.994881988E0,2.045580016E0
2.533788131E0,-2.114012241E-1,4.182119370E-1,-1.875455260E0,1.933112551E0
2.543680006E0,-2.173578739E-1,4.478540421E-1,-1.724898696E0,1.795297524E0
2.553678704E0,-2.437880039E-1,3.779067993E-1,-1.569303632E0,1.632470529E0
2.563657818E0,-3.045003414E-1,4.084987640E-1,-1.404863358E0,1.494400466E0
2.573666829E0,-3.848514557E-1,4.393548965E-1,-1.213631749E0,1.346865023E0
2.583671985E0,-1.102911592E0,4.703874588E-1,-4.119175673E-1,1.267814822E0
2.593669120E0,-1.154716015E0,5.014305115E-1,-2.587479353E-1,1.285205091E0
2.603695943E0,-1.217072845E0,4.323616028E-1,-1.053307056E-1,1.295877086E0
2.613676412E0,-1.282829165E0,4.623851776E-1,6.220579147E-2,1.365034901E0
2.623670943E0,-1.344995379E0,5.107069016E-1,9.072424173E-1,1.700859463E0
2.633667818E0,-1.297201872E0,5.320749283E-1,1.039829373E0,1.745589170E0
2.643672245E0,-1.187843204E0,4.455261230E-1,1.166493177E0,1.723418503E0
2.653667558E0,-1.027134776E0,4.581680298E-1,1.272058964E0,1.697956949E0
2.663676412E0,-1.918241978E-1,4.698915482E-1,2.312660217E0,2.367697588E0
2.673669120E0,-5.639576912E-2,4.759511948E-1,2.344444036E0,2.392932900E0
2.683666776E0,8.994460106E-2,4.819917679E-1,2.373464346E0,2.423579810E0
2.693668860E0,7.801299095E-1,3.881034851E-1,2.199533224E0,2.365834609E0
2.703691776E0,8.492288589E-1,3.943881989E-1,2.222450972E0,2.411642599E0
2.713794954E0,8.976261616E-1,4.005956650E-1,2.242731333E0,2.448684023E0
2.723669589E0,9.073495865E-1,4.069623947E-1,2.227761030E0,2.439635397E0
2.733843443E0,8.834290504E-1,4.144515991E-1,2.212916613E0,2.418515443E0
2.743692714E0,8.436024189E-1,3.236494064E-1,3.091405869E0,3.220745911E0
2.753667610E0,8.040030003E-1,2.281945229E0,3.118288517E0,3.946823802E0
2.763673547E0,7.815155983E-1,2.405083656E0,3.154390812E0,4.042941432E0
2.773670162E0,7.697846889E-1,3.141506195E0,3.706926823E0,4.919647966E0
2.783670943E0,7.626972198E-1,3.171177864E0,3.684265614E0,4.920557815E0
2.793671204E0,7.392408848E-1,3.159860611E0,3.633390903E0,4.871624536E0
2.803696464E0,6.443259716E-1,3.006166458E0,3.502889633E0,4.660732616E0
2.813674589E0,5.435693264E-1,2.194624901E0,3.313947201E0,4.011744274E0
2.823670422E0,-2.257266045E-1,2.028509140E0,2.485262394E0,3.215949471E0
2.833668339E0,-3.264050484E-1,1.676712036E-1,1.273606420E0,1.325415859E0
2.843668599E0,-9.401232004E-1,1.740932465E-1,1.218374252E0,1.548733647E0
2.853668860E0,-9.776816368E-1,1.819009781E-1,1.167842388E0,1.533885652E0
2.863673808E0,-9.707953930E-1,1.910448074E-1,1.121836305E0,1.495813661E0
2.873665474E0,-9.284816980E-1,-1.424376488E0,1.080120444E0,2.014345258E0
2.883671464E0,-8.495895863E-1,-2.111467361E0,8.431607485E-1,2.427141720E0
2.893766151E0,-7.202035189E-1,-2.829844475E0,8.361500502E-1,3.037410043E0
2.903685631E0,-4.452538490E-2,-2.982705593E0,8.664580584E-1,3.106326566E0
2.913701516E0,3.071928024E-2,-4.038902283E0,8.983796835E-1,4.137724179E0
2.923673287E0,8.785939217E-2,-4.176616192E0,9.303612709E-1,4.279884833E0
2.933667297E0,1.142940521E-1,-5.116727352E0,7.630949020E-1,5.174579766E0
2.943673808E0,6.476593018E-2,-5.202270508E0,7.978978157E-1,5.263502065E0
2.953668339E0,-3.910112381E-2,-5.853320599E0,8.328723311E-1,5.912407906E0
2.963676933E0,-6.870073080E-1,-5.918887138E0,8.679769039E-1,6.021510434E0
2.973670683E0,-7.517715693E-1,-5.995098114E0,9.018301964E-1,6.108981879E0
2.983671204E0,-8.995218277E-1,-6.609801292E0,7.761960626E-1,6.715734731E0
2.993668079E0,-9.555727243E-1,-6.583901882E0,8.123147488E-1,6.702293524E0
3.003691776E0,-9.932899475E-1,-6.523386955E0,8.483552933E-1,6.652887267E0
3.013674849E0,-9.972116947E-1,-6.421066284E0,8.845138550E-1,6.557963720E0
3.023671464E0,-9.604687691E-1,-6.269490242E0,7.195365429E-1,6.383317397E0
3.033668860E0,-8.918979168E-1,-5.133866787E0,7.562016845E-1,5.265350042E0
3.043672245E0,-2.571544647E-1,-4.255801201E0,7.927685380E-1,4.336640893E0
3.053668860E0,-2.172794342E-1,-3.122303009E0,8.292322159E-1,3.237840716E0
3.063673808E0,-1.817717552E-1,-1.863137245E0,8.656298518E-1,2.062434582E0
3.073717766E0,-1.448953152E-1,-6.412773132E-1,7.006698251E-1,9.608170734E-1
3.083665735E0,-1.165103912E-1,4.966888428E-1,2.062558174E0,2.124716616E0
3.093696412E0,-8.071517944E-2,5.213565826E-1,2.153332233E0,2.217017667E0
3.103691308E0,-7.493591309E-2,5.513515472E-1,2.234283447E0,2.302526100E0
3.113673079E0,-7.533335686E-2,5.770168304E-1,2.274041176E0,2.347314808E0
3.123670943E0,-6.234049797E-2,4.976644516E-1,2.246510029E0,2.301817446E0
3.133668339E0,-3.689765930E-2,5.135326385E-1,2.132889271E0,2.194149915E0
3.143668599E0,1.132440567E-2,5.261211395E-1,7.117770314E-1,8.851882501E-1
3.153671464E0,7.268571854E-2,5.394763947E-1,7.441810966E-1,9.220214198E-1
3.163677714E0,2.718162537E-1,3.597091675E0,6.171250343E-1,3.659753530E0
3.173671985E0,1.112958431E0,5.747613907E0,6.501358747E-1,5.890366606E0
3.183667818E0,1.207821369E0,8.334887505E0,6.832628250E-1,8.449617167E0
3.193670683E0,1.857941389E0,1.025585365E1,7.163965702E-1,1.044737787E1
3.203692818E0,1.949006557E0,1.121631432E1,1.779278636E0,1.152259371E1
3.213673547E0,2.039123058E0,1.123416233E1,1.718737602E0,1.154636242E1
3.223668079E0,2.081626654E0,1.109988403E1,6.111333966E-1,1.130991066E1
3.233669641E0,2.068769932E0,9.877529144E0,6.472396255E-1,1.011258178E1
3.243667297E0,2.026562452E0,8.234135628E0,6.834989190E-1,8.507356563E0
3.253702037E0,1.338631868E0,5.857608795E0,-4.668396115E-1,6.026728408E0
3.263669120E0,1.249310970E0,3.017959595E0,-1.773059368E0,3.716530309E0
3.273799329E0,4.530293941E-1,1.463556290E-1,-2.831512451E0,2.871257279E0
3.283667349E0,3.549587727E-1,1.609201431E-1,-2.906970739E0,2.932979697E0
3.293668391E0,2.934172153E-1,-1.299923897E0,-2.868826151E0,3.163235572E0
3.303696724E0,2.880501747E-1,-1.349721909E0,-2.760903835E0,3.086634433E0
3.313675631E0,3.062713146E-1,-1.318782806E0,-2.673739195E0,2.996977059E0
3.323665214E0,3.516340256E-1,-1.200630188E0,-2.565283060E0,2.854091189E0
3.333668860E0,3.900024891E-1,1.781864166E-1,-2.369819880E0,2.408297864E0
3.343669901E0,4.916312695E-1,2.302742004E-1,-1.605268955E0,1.694584294E0
3.353668339E0,5.219817162E-1,1.632204056E-1,-1.442418098E0,1.542619779E0
3.363675891E0,5.037810802E-1,1.966342926E-1,-1.295298338E0,1.403658864E0
3.373666776E0,4.185786247E-1,2.304944992E-1,-1.137808919E0,1.234076544E0
3.383673287E0,2.917671204E-1,2.640848160E-1,-9.524091482E-1,1.030510567E0
3.393668339E0,-5.677962303E-1,2.937326431E-1,-1.608774662E-1,6.592063288E-1
3.403692297E0,-6.725856066E-1,-8.176031113E-1,-1.997601986E-2,1.058888704E0
3.413677714E0,-1.335297585E0,-1.494322777E0,1.312447786E-1,2.008294150E0
3.423678495E0,-1.400393724E0,-1.501219749E0,1.612661481E0,2.610639840E0
3.434081151E0,-1.476253629E0,-1.457022667E0,1.699960589E0,2.681810179E0
3.443677141E0,-1.542146683E0,-1.358694077E0,1.782063007E0,2.720296776E0
3.453681620E0,-1.569255829E0,2.829742432E-1,1.637725711E0,2.285778594E0
3.463667089E0,-1.509806633E0,2.975263596E-1,1.690611601E0,2.286089585E0
3.473679797E0,-1.397507548E0,3.107967377E-1,1.739625812E0,2.252980232E0
3.483674329E0,-1.220947146E0,3.101167679E-1,1.740861535E0,2.148832992E0
3.493681360E0,-3.349936008E-1,3.101787567E-1,1.741571069E0,1.800416996E0
3.503718339E0,-1.907334328E-1,2.115716934E-1,1.543912053E0,1.569970144E0
3.513682141E0,6.252980232E-1,2.138528824E-1,1.547207952E0,1.682433689E0
3.523679276E0,1.452464581E0,2.367544174E-1,5.319892168E-1,1.564838183E0
3.533679016E0,1.562733412E0,2.404823303E-1,-1.708678007E-1,1.590334327E0
3.543677454E0,1.629087687E0,1.518163681E-1,-2.209483385E-1,1.650997598E0
3.553683183E0,1.669943810E0,1.644449234E-1,-2.220391035E-1,1.692647578E0
3.563679276E0,1.644232988E0,1.837463379E-1,-1.916774511E-1,1.665534473E0
3.573680058E0,1.581652403E0,2.040176392E-1,-1.334229708E-1,1.600327844E0
3.583678756E0,1.461230278E0,2.303819656E-1,1.458280444E0,2.077222094E0
3.593677974E0,1.321071386E0,1.572971344E-1,1.270480871E0,1.839590618E0
3.603725110E0,6.149051189E-1,1.841802597E-1,1.283614159E0,1.435164096E0
3.613704016E0,5.058104992E-1,2.109470367E-1,2.917524576E-1,6.208561910E-1
3.623673339E0,4.124395847E-1,2.420902252E-1,1.944893599E-1,5.162753135E-1
3.633689745E0,3.519606590E-1,2.729434967E-1,-5.478390455E-1,7.060467957E-1
3.643658495E0,3.304214478E-1,2.063589096E-1,-5.600718260E-1,6.822336718E-1
3.653666568E0,3.378608227E-1,-1.146758080E0,-5.402002335E-1,1.311876641E0
3.663671724E0,3.642513752E-1,-1.148095131E0,-5.001981258E-1,1.304223776E0
3.673668599E0,4.263265133E-1,-1.139039993E0,-4.130718708E-1,1.284443371E0
3.683669641E0,4.993185997E-1,-1.105604172E0,-2.754466534E-1,1.244005831E0
3.693670943E0,5.524380207E-1,-1.046525955E0,1.435184717E0,1.860150401E0
3.703693860E0,5.653378963E-1,3.084487915E-1,1.516405344E0,1.647492871E0
3.713667558E0,5.643720627E-1,3.299484253E-1,1.557271957E0,1.688927985E0
3.723669381E0,5.729289055E-1,3.512229919E-1,1.597798347E0,1.733368016E0
3.733668339E0,5.922789574E-1,1.914370537E0,2.526027203E0,3.224348360E0
3.743670683E0,6.250159740E-1,2.604881287E0,2.538757801E0,3.690710319E0
3.753667818E0,6.675257683E-1,2.736958504E0,2.559313297E0,3.806128881E0
3.763667297E0,7.383952141E-1,3.471746445E0,2.552376509E0,4.371827617E0
3.773667037E0,1.392706633E0,3.485811234E0,2.526377678E0,4.524720532E0
3.783666776E0,1.422900915E0,3.452757835E0,2.493576288E0,4.490446124E0
3.793683391E0,1.453577518E0,3.310399055E0,2.373376369E0,4.324875131E0
3.803732558E0,1.451990604E0,2.145024300E0,2.249150276E0,3.430463952E0
3.813729381E0,1.395589352E0,1.236986160E0,2.144611359E0,2.842034883E0
3.823667349E0,7.198641300E-1,2.342548370E-1,2.038181782E0,2.174227373E0
3.833672245E0,5.932295322E-1,1.455802917E-1,8.871229887E-1,1.077080357E0
3.843668599E0,-2.573361397E-1,1.576528549E-1,8.679490089E-1,9.189188177E-1
3.853670162E0,-3.517589569E-1,-1.357680321E0,8.517833948E-1,1.640903766E0
3.863674589E0,-4.582903385E-1,-1.460259438E0,8.385020494E-1,1.745128461E0
3.873674329E0,-1.146353245E0,-1.555557251E0,8.292191029E-1,2.102733565E0
3.883668599E0,-1.163216114E0,-2.239417076E0,1.706118345E0,3.046128752E0
3.893667818E0,-1.118741035E0,-2.271018982E0,1.667214870E0,3.031289189E0
3.903693860E0,-1.022685051E0,-2.330245972E0,1.643734217E0,3.029487280E0
3.913669120E0,-9.245558977E-1,-2.392968178E0,1.604573131E0,3.025847855E0
3.923667037E0,-8.307070732E-1,-2.462567329E0,1.546495914E0,3.024229110E0
3.933669641E0,-7.359573841E-1,-2.550595760E0,4.506478012E-1,2.692629838E0
3.943669901E0,-6.666790247E-1,-3.214849949E0,4.886478782E-1,3.319412277E0
3.953669641E0,-6.301350594E-1,-3.261447430E0,5.264400244E-1,3.363219979E0
3.963669641E0,-6.267580986E-1,-3.325742722E0,5.641472936E-1,3.430984193E0
3.973682506E0,-6.476838589E-1,-3.390715599E0,4.022564292E-1,3.475378669E0
3.983684693E0,-6.753108501E-1,-3.446425438E0,4.402674139E-1,3.539453127E0
3.993717662E0,-7.243981361E-1,-3.498668671E0,4.782122374E-1,3.604736061E0
4.003689224E0,-7.673485279E-1,-3.533298492E0,5.160623193E-1,3.652306438E0
4.013667089E0,-8.164168596E-1,-3.536073208E0,5.537074208E-1,3.671095494E0
4.023674849E0,-8.596632481E-1,-3.493089199E0,3.933500051E-1,3.618759080E0
4.033671724E0,-8.885073662E-1,-3.419904232E0,4.328776300E-1,3.559855803E0
4.043671204E0,-8.899049759E-1,-3.305669308E0,4.739846289E-1,3.456015316E0
4.053671724E0,-8.716880083E-1,-2.588861465E0,5.149374008E-1,2.779784919E0
4.063673808E0,-7.817325592E-1,-2.394580841E0,3.944265842E-1,2.549646158E0
4.073669120E0,-7.115843296E-1,-1.678663254E0,1.975868702E0,2.688553460E0
4.083670943E0,-6.309319735E-1,-1.641121387E0,2.072161913E0,2.717574204E0
4.093668860E0,-5.359265804E-1,-1.607826710E0,2.170255423E0,2.753603571E0
4.103689433E0,1.076836586E-1,-1.600151539E0,2.240741968E0,2.755540834E0
4.113671204E0,1.532392502E-1,-1.637526989E0,2.270468473E0,2.803569866E0
4.123667558E0,2.195522785E-1,-1.704473972E0,2.241784334E0,2.824717991E0
4.133669641E0,3.030238152E-1,-1.820640087E0,2.087508678E0,2.786439707E0
4.143669120E0,3.737726212E-1,-2.666523933E0,1.351903915E0,3.012922179E0
4.153688287E0,4.372730255E-1,-2.745291233E0,3.119353652E-1,2.797344334E0
4.163688704E0,4.613661766E-1,-2.805771351E0,8.837239444E-2,2.844823598E0
4.173667818E0,4.743764400E-1,-2.856535435E0,6.715652347E-2,2.896435343E0
4.183665266E0,4.765057564E-1,-2.854400635E0,4.833343253E-2,2.894304207E0
4.193670474E0,4.541339874E-1,-2.786402225E0,3.174635023E-2,2.823346042E0
4.203696204E0,3.992228508E-1,-2.650728226E0,1.708605886E-2,2.680677329E0
4.213682141E0,3.215935230E-1,-1.587144852E0,-1.694936007E-1,1.628244225E0
4.223670943E0,2.268266678E-1,-6.585578918E-1,1.608617663E0,1.752940279E0
4.233669901E0,1.269650459E-1,4.028978348E-1,2.302322149E0,2.340755021E0
4.243670162E0,-6.554436684E-2,2.626436234E0,2.444947243E0,3.588903784E0
4.253669381E0,-8.519628048E-1,3.526689529E0,2.401257515E0,4.350795021E0
4.263670162E0,-9.459613562E-1,3.686200142E0,2.228655338E0,4.410194893E0
4.273673287E0,-1.040735364E0,4.643747330E0,8.775246143E-1,4.839170260E0
4.283669120E0,-1.651549459E0,4.730043411E0,-2.914775908E-1,5.018554122E0
4.293668599E0,-1.655381322E0,5.480795860E0,-2.878164649E-1,5.732560414E0
4.303691256E0,-1.619799137E0,6.181277275E0,-4.776863456E-1,6.407817276E0
4.313669381E0,-1.457543015E0,7.042245865E0,-4.624274373E-1,7.206351199E0
4.323666776E0,-2.696812153E-1,7.138053894E0,-4.457468390E-1,7.157040701E0
4.333682297E0,5.510003567E-1,7.171826363E0,-4.237961471E-1,7.205435306E0
4.343670162E0,7.642641068E-1,7.123925209E0,-3.771049976E-1,7.174720774E0
4.353690214E0,1.675700903E0,6.977810860E0,-4.836944342E-1,7.192480672E0
4.363667089E0,1.855723143E0,5.932949066E0,-3.906883895E-1,6.228662009E0
4.373668599E0,2.016222715E0,4.781214714E0,-3.021038175E-1,5.197733631E0
4.383668860E0,2.106750250E0,3.197904587E0,-2.172406614E-1,3.835646473E0
4.393667297E0,2.063875675E0,1.445058823E0,-1.871356010E0,3.138431315E0
4.403694381E0,1.368015289E0,-8.220672607E-3,-2.623773098E0,2.959006367E0
4.413671985E0,1.273114443E0,8.880615234E-3,-2.712811708E0,2.996705961E0
4.423670683E0,1.135520697E0,4.625892639E-2,-2.806397676E0,3.027773945E0
4.433656672E0,1.091164112E0,6.580829620E-2,-2.814902306E0,3.019709397E0
4.443674329E0,1.078933001E0,-1.164245605E-2,-2.801269770E0,3.001890119E0
4.453669641E0,1.106460094E0,1.425075531E-2,-2.724520206E0,2.940657644E0
4.463669901E0,1.146113873E0,4.352664948E-2,-2.569941759E0,2.814262288E0
4.473670422E0,1.196014166E0,7.279491425E-2,-2.337221146E0,2.626471334E0
4.483669641E0,1.238327742E0,1.024665833E-1,-1.301701188E0,1.799550216E0
4.493669901E0,1.258260250E0,3.294467926E-2,-1.077619314E0,1.656975436E0
4.503693079E0,1.233720779E0,6.402778625E-2,5.546733737E-1,1.354189451E0
4.513676099E0,1.160707951E0,9.558010101E-2,6.835454702E-1,1.350412127E0
4.523660526E0,1.045850515E0,1.274185181E-1,8.089373112E-1,1.328314102E0
4.533686776E0,2.742369175E-1,1.590538025E-1,9.309285879E-1,9.834287136E-1
4.543664485E0,1.177177429E-1,8.811664581E-2,8.168126345E-1,8.299427029E-1
4.553666568E0,-7.966909409E-1,-1.374202728E0,8.963674307E-1,1.823903551E0
4.563669381E0,-8.998185396E-1,-1.346882820E0,9.202972651E-1,1.862985183E0
4.573668079E0,-9.911969900E-1,-1.273471832E0,9.430881739E-1,1.869122062E0
4.583671464E0,-1.043051481E0,-1.164574623E0,9.663450122E-1,1.837937194E0
4.593669641E0,-9.389232397E-1,1.374034882E-1,8.306257725E-1,1.261108934E0
4.603689693E0,-2.613282204E-1,1.533823013E-1,8.553272486E-1,9.074157103E-1
4.613668339E0,-1.121745110E-1,1.664457321E-1,8.789308071E-1,9.015579107E-1
4.623668599E0,8.014183044E-1,1.797437668E-1,9.029505253E-1,1.220614096E0
4.633670162E0,9.315204620E-1,9.354400635E-2,7.278894782E-1,1.185876867E0
4.643670162E0,1.707070827E0,1.075696945E-1,7.531509995E-1,1.868929768E0
4.653682401E0,1.793147087E0,1.217937469E-1,7.787715793E-1,1.958748418E0
4.663679016E0,1.874496698E0,1.361503601E-1,8.047088981E-1,2.044463549E0
4.673680058E0,1.932094812E0,1.518220901E-1,8.310436606E-1,2.108713797E0
4.683695943E0,1.946517706E0,7.538700104E-2,6.565890908E-1,2.055656492E0
4.693673391E0,1.957638264E0,9.993553162E-2,6.840882301E-1,2.076128943E0
4.703725266E0,1.923151016E0,1.310987473E-1,7.118982673E-1,2.054871250E0
4.713677610E0,1.871114254E0,1.626539230E-1,-6.019686460E-1,1.972280685E0
4.723671256E0,1.784468889E0,1.945152283E-1,-6.579887867E-1,1.911835410E0
4.733667349E0,1.677841902E0,1.269245148E-1,-7.353243828E-1,1.836291161E0
4.743673079E0,1.550470829E0,1.590900421E-1,-8.325651288E-1,1.767041065E0
4.753679797E0,1.405335426E0,1.910648346E-1,-9.211304188E-1,1.691140053E0
4.763681881E0,6.834664345E-1,2.227039337E-1,-9.839056730E-1,1.218521146E0
4.773680839E0,4.927110672E-1,1.774368286E-1,-9.203759432E-1,1.058933379E0
4.783679016E0,3.532028198E-1,2.119493484E-1,-7.798925042E-1,8.819904061E-1
4.793685266E0,-3.627138138E-1,2.465105057E-1,-6.261974573E-1,7.644946015E-1
4.803721464E0,-4.528357983E-1,2.803192139E-1,8.888533115E-1,1.036194640E0
4.813677193E0,-5.357563496E-1,3.126707077E-1,9.663559198E-1,1.148321210E0
4.823681881E0,-5.772845745E-1,2.376060486E-1,8.427235484E-1,1.048759788E0
4.833676933E0,-6.117389202E-1,1.522186279E0,9.174048901E-1,1.879602965E0
4.843678235E0,-6.388766766E-1,1.653582573E0,9.904729128E-1,2.030648991E0
4.853677714E0,-6.438860893E-1,2.524457932E0,1.061930776E0,2.813391924E0
4.863691256E0,-6.149747372E-1,2.592348099E0,1.080882072E0,2.875198888E0
4.873672558E0,-5.604720116E-1,2.654067993E0,8.993386626E-1,2.857799121E0
4.883661620E0,-4.692056179E-1,2.691064835E0,9.184331894E-1,2.881927025E0
4.893687037E0,-3.636181355E-1,2.673351288E0,9.344899654E-1,2.855222715E0
4.903697297E0,-2.565424442E-1,2.557746887E0,9.511048198E-1,2.740891013E0
4.913673079E0,-1.385602951E-1,1.677455902E0,9.668247700E-1,1.941084077E0
4.923670683E0,-2.821111679E-2,1.113939285E-1,7.844310999E-1,7.928030177E-1
4.933676151E0,7.585906982E-2,1.194581985E-1,8.045297861E-1,8.168800624E-1
4.943671204E0,1.776638031E-1,1.286621094E-1,8.254632950E-1,8.541124145E-1
4.953677974E0,3.379366398E-1,-2.377343655E0,8.871278763E-1,2.559874976E0
4.963667297E0,4.299571514E-1,-2.544139385E0,7.087411284E-1,2.675784437E0
4.973675110E0,5.093564987E-1,-3.544949532E0,7.311649323E-1,3.655230962E0
4.983673547E0,5.577893257E-1,-3.620386124E0,2.210747719E0,4.278519615E0
4.993666776E0,5.872633457E-1,-3.699070930E0,2.256936312E0,4.372844098E0
5.003667818E0,5.999987125E-1,-3.780630112E0,2.259964466E0,4.445289854E0
5.013669120E0,5.912196636E-1,-3.840386868E0,2.208850861E0,4.469578739E0
5.023667558E0,5.414047241E-1,-3.883076668E0,2.103058815E0,4.449074046E0
5.033668599E0,4.658722878E-1,-3.912115097E0,6.769719124E-1,3.997495778E0
5.043677714E0,3.541946411E-1,-3.921732426E0,7.064223886E-1,4.000558918E0
5.053667089E0,2.356700897E-1,-3.926922798E0,7.359935641E-1,4.002243069E0
5.063660006E0,1.014680862E-1,-3.923329830E0,5.661193728E-1,3.965262144E0
5.073652818E0,-5.537514687E-1,-3.911981106E0,5.963393450E-1,3.995729905E0
5.083667870E0,-6.537284851E-1,-3.884124279E0,-4.900090694E-1,3.969117186E0
5.093671204E0,-7.909412384E-1,-3.836939812E0,-5.238360763E-1,3.952480158E0
5.103670683E0,-1.464650631E0,-3.768034458E0,-5.344927907E-1,4.077863128E0
5.113668599E0,-1.575848460E0,-3.671078205E0,-5.183012486E-1,4.028492242E0
5.123671724E0,-1.708922386E0,-3.545147419E0,-4.393340945E-1,3.959987423E0
5.133667037E0,-3.045653105E0,-2.584642887E0,6.425675750E-1,4.045896041E0
5.143669381E0,-3.010601997E0,-1.828689575E0,6.768926382E-1,3.586922580E0
5.153668079E0,-3.171268940E0,-1.742159843E0,5.116868019E-1,3.654297606E0
5.163670162E0,-3.105649948E0,-1.640089035E0,2.596404314E0,4.367638836E0
5.173670943E0,-1.558450460E0,-9.868917465E-1,2.723210096E0,3.289163478E0
5.183669120E0,-1.382887840E0,-9.622249603E-1,3.507878065E0,3.891460416E0
5.193672245E0,-3.411467075E-1,-9.468641281E-1,3.538241386E0,3.678598220E0
5.203669381E0,-1.687521935E-1,-9.473791122E-1,3.526512384E0,3.655447180E0
5.213671204E0,6.304993629E-1,-9.539833069E-1,3.468581200E0,3.652214278E0
5.223685787E0,7.089774609E-1,-9.799404144E-1,3.271668673E0,3.488086604E0
5.233667193E0,7.409019470E-1,-1.005418777E0,2.459177971E0,2.758144105E0
5.243657662E0,6.796951294E-1,-1.035909653E0,2.237389565E0,2.557539118E0
5.253687245E0,-2.601704597E-1,-1.032149315E0,1.236905932E0,1.631856967E0
5.263684016E0,-1.003472447E0,-9.742212296E-1,-2.938179299E-2,1.398902158E0
5.273666829E0,-2.722773790E0,-8.445224762E-1,-7.508051395E-2,2.851727969E0
5.283670422E0,-2.670393944E0,3.687171936E-1,-1.169544682E-1,2.698265097E0
5.293670943E0,-2.617920160E0,3.876857758E-1,-1.552334875E-1,2.651019363E0
5.303671724E0,-2.764970303E0,1.738419533E0,-3.895311952E-1,3.289209297E0
5.313672245E0,-2.672535658E0,2.651047707E0,-3.336434066E-1,3.779129358E0
5.323670422E0,-2.587181330E0,3.462312698E0,-2.686364651E-1,4.330505976E0
5.333668599E0,-2.417661667E0,3.470336914E0,-2.008788437E-1,4.234227030E0
5.343669901E0,-8.350362778E-1,3.504582405E0,-3.339415193E-1,3.618134928E0
5.353670683E0,1.110904217E-1,4.164854050E0,-2.648751140E-1,4.174746599E0
5.363671724E0,1.117562056E0,4.952449799E0,-1.938393563E-1,5.080676889E0
5.373669381E0,2.165667772E0,5.973313332E0,-1.244621798E-1,6.355004319E0
5.383666516E0,3.158226967E0,6.717786789E0,-5.520749092E-2,7.423348623E0
5.393669381E0,3.428604126E0,6.791778564E0,-1.891517490E-1,7.610477035E0
5.403686047E0,4.186448097E0,6.840056419E0,-1.225999072E-1,8.020458231E0
5.413664276E0,4.177963257E0,6.806284904E0,-5.646277964E-2,7.986493550E0
5.423658079E0,4.073465347E0,6.637650490E0,9.212866426E-3,7.787914280E0
5.433663808E0,3.185572624E0,5.038570404E0,7.341596484E-2,5.961581549E0
5.443670735E0,2.325628519E0,3.255541801E0,-1.261248589E0,4.194978955E0
5.453675370E0,1.289153695E0,1.230340004E0,-2.126827955E0,2.774716369E0
5.463668131E0,2.265976667E-1,-2.856254578E-2,-3.074567318E0,3.083038520E0
5.473670162E0,-6.117706299E-1,-1.461907387E0,-3.730695963E0,4.053335525E0
5.483669120E0,-7.158558369E-1,-1.577793121E0,-3.725945711E0,4.109081668E0
5.493669120E0,-7.862284184E-1,-1.632285118E0,-3.543436289E0,3.979755089E0
5.503668599E0,-7.719070911E-1,-1.539851189E0,-2.702453852E0,3.204721370E0
5.513667558E0,-6.756045818E-1,-1.391948700E0,-2.487259150E0,2.929235534E0
5.523671464E0,2.751572132E-1,6.669902802E-2,-1.444727302E0,1.472208283E0
5.533671204E0,4.241211414E-1,-9.929656982E-3,-1.188138962E0,1.261606727E0
5.543669901E0,1.360314131E0,1.417636871E-2,5.729185939E-1,1.476106778E0
5.553667818E0,1.441382647E0,3.886413574E-2,7.042564154E-1,1.604702918E0
5.563668599E0,1.512685776E0,6.408405304E-2,8.320984840E-1,1.727632168E0
5.573669381E0,1.575444937E0,8.975315094E-2,9.565134048E-1,1.845264282E0
5.583683964E0,1.609420061E0,1.413154602E-2,8.439049125E-1,1.817307936E0
5.593667714E0,1.604325533E0,3.900337219E-2,9.236670732E-1,1.851632399E0
5.603663183E0,1.511442184E0,6.505393982E-2,9.420999885E-1,1.782201414E0
5.613654120E0,1.379740000E0,9.147739410E-2,9.596738219E-1,1.683159061E0
5.623668599E0,1.226788282E0,1.177654266E-1,9.778881073E-1,1.573258827E0
5.633669381E0,4.731981754E-1,4.421424866E-2,7.973015308E-1,9.282031804E-1
5.643671204E0,4.234294891E-1,7.055282593E-2,8.173809648E-1,9.232452952E-1
5.653672506E0,3.962709904E-1,9.663963318E-2,8.366112113E-1,9.307460639E-1
5.663671204E0,3.987846375E-1,1.225948334E-1,8.564972878E-1,9.527047203E-1
5.673671724E0,5.529499054E-1,6.846427917E-2,7.159374356E-1,9.071975348E-1
5.683667818E0,1.267669439E0,9.347915649E-2,7.361080050E-1,1.468870027E0
5.693672766E0,1.295274258E0,1.185379028E-1,7.584530115E-1,1.505668492E0
5.703669381E0,1.306838274E0,1.434440613E-1,7.813386321E-1,1.529343824E0
5.713669381E0,1.299564362E0,1.682062149E-1,8.047610521E-1,1.537791017E0
5.723669901E0,1.266522408E0,9.284877777E-2,6.275535822E-1,1.416518056E0
5.733670162E0,1.210655212E0,1.174745560E-1,6.523708105E-1,1.380244177E0
5.743669901E0,1.111719370E0,1.442298889E-1,6.776050925E-1,1.309912547E0
5.753667558E0,1.007189274E0,1.709051132E-1,7.032461762E-1,1.240239483E0
5.763689693E0,9.081525803E-1,1.973628998E-1,7.293227315E-1,1.181357215E0
5.773667610E0,8.289108276E-1,1.236982346E-1,5.547856092E-1,1.005077851E0
5.783661985E0,7.814793587E-1,1.499404907E-1,-8.223000169E-1,1.144276827E0
5.793682193E0,7.718200684E-1,1.759490967E-1,-8.708410263E-1,1.176872294E0
5.803681412E0,7.952015400E-1,2.017269135E-1,-9.383120537E-1,1.246382264E0
5.813666308E0,8.476829529E-1,2.272243500E-1,-1.012461066E0,1.339878616E0
5.823669901E0,9.107801914E-1,1.528387070E-1,-1.081067443E0,1.421825251E0
5.833670683E0,9.732236862E-1,1.783714294E-1,-1.154433727E0,1.520426894E0
5.843672245E0,1.015755177E0,2.036705017E-1,-1.247981787E0,1.621942907E0
5.853669641E0,9.889109135E-1,2.520141602E-1,-1.881545305E0,2.140483279E0
5.863670943E0,9.028985500E-1,1.807775497E-1,-1.846453428E0,2.063321734E0
5.873681099E0,7.809958458E-1,2.098646164E-1,-1.764490724E0,1.940985621E0
5.883680839E0,-1.541233063E-2,2.390642166E-1,-1.636828184E0,1.654265923E0
5.893682141E0,-1.276016235E-1,2.685728073E-1,-1.458965540E0,1.488957345E0
5.903683964E0,-8.283865452E-1,2.984018326E-1,-5.134447813E-1,1.019261235E0
5.913681881E0,-9.427742958E-1,2.281465530E-1,-3.578798175E-1,1.033901439E0
5.923678235E0,-1.073120475E0,1.364342690E0,9.695535302E-1,1.988228502E0
5.933682401E0,-1.878665447E0,1.472655296E0,1.053213835E0,2.609091195E0
5.943683443E0,-1.959563494E0,2.241592407E0,1.134819627E0,3.186289565E0
5.953678443E0,-2.907046556E0,2.357794762E0,1.214969277E0,3.935259352E0
5.963674016E0,-3.043520212E0,3.110921860E0,1.078131914E0,4.483661286E0
5.973668391E0,-2.956831932E0,3.158128738E0,1.136650681E0,4.473098141E0
5.983674381E0,-2.857816458E0,3.152984619E0,1.142779350E0,4.406174254E0
5.993678756E0,-1.752899289E0,3.105620384E0,1.149984717E0,3.746998631E0
6.003679797E0,-9.572665691E-1,3.013984680E0,1.155076146E0,3.366699250E0
6.013669120E0,-7.941691875E-1,2.882634163E0,9.619765878E-1,3.140968540E0
6.023680058E0,-1.096315384E-1,1.947162628E0,9.702987075E-1,2.178288538E0
6.033679276E0,4.571676254E-3,1.255838394E0,9.800735712E-1,1.593014494E0
6.043678495E0,1.453187466E-1,1.164770126E-1,1.031196237E0,1.047878863E0
6.053679276E0,1.866636276E-1,2.058410645E-2,8.425639272E-1,8.632386615E-1
6.063678756E0,2.034795284E-1,-1.258112907E0,8.553386331E-1,1.534879860E0
6.073679797E0,1.903035641E-1,-1.365874290E0,8.705575466E-1,1.630858199E0
6.083678495E0,1.909112930E-1,-1.983318329E0,2.249715090E0,3.005198280E0
6.093681360E0,2.013778687E-1,-2.044999599E0,2.294317722E0,3.080011399E0
6.103669901E0,2.206859589E-1,-2.120476723E0,2.321536779E0,3.151929067E0
6.113668339E0,2.514157295E-1,-2.224747658E0,2.303919792E0,3.212593721E0
6.123666256E0,3.017733097E-1,-3.021325111E0,2.242357254E0,3.774604431E0
6.133685631E0,3.426606655E-1,-3.104096413E0,2.127998352E0,3.779048539E0
6.143686099E0,3.848450184E-1,-3.795036793E0,7.436776757E-1,3.886317850E0
6.153722141E0,4.041104317E-1,-3.924911499E0,5.203675032E-1,3.979826360E0
6.163665006E0,4.028894901E-1,-5.007688046E0,4.984709918E-1,5.048537692E0
6.173667558E0,3.792984486E-1,-5.140439034E0,4.779651761E-1,5.176526971E0
6.183667818E0,3.202047348E-1,-6.156461716E0,4.588505924E-1,6.181835957E0
6.193669641E0,2.363917828E-1,-6.247608185E0,4.412513971E-1,6.267630485E0
6.203679276E0,1.196832657E-1,-6.867386818E0,2.251420170E-1,6.872118648E0
6.213667297E0,-5.368363857E-1,-6.887102127E0,2.625485957E-1,6.912980600E0
6.223671985E0,-7.273606062E-1,-6.834228039E0,3.413355350E-1,6.881296120E0
6.233671724E0,-8.605791330E-1,-6.680180550E0,3.800248504E-1,6.746097206E0
6.243668860E0,-9.807620049E-1,-5.669111252E0,2.190854400E-1,5.757492069E0
6.253674329E0,-1.079088211E0,-4.796035290E0,2.598109841E-1,4.922792664E0
6.263669381E0,-1.156331658E0,-3.855529785E0,3.004204929E-1,4.036392610E0
6.273668339E0,-1.176887751E0,-2.909467697E0,3.408650756E-1,3.156937766E0
6.283666516E0,-1.172028780E0,-1.958866596E0,3.811886907E-1,2.314328114E0
6.293670162E0,-1.144523621E0,-1.085985184E0,1.653475165E0,2.285449247E0
6.303674068E0,-1.116446018E0,4.066543579E-1,1.758207679E0,2.122054128E0
6.313687349E0,-1.077264786E0,4.297046661E-1,2.476903439E0,2.734994728E0
6.323690110E0,-1.035273075E0,4.482250214E-1,2.558850050E0,2.796499524E0
6.333681464E0,-9.889777899E-1,4.621458054E-1,2.647217751E0,2.863462525E0
6.343666568E0,-9.521877766E-1,3.719768524E-1,2.694041252E0,2.881472993E0
6.353676933E0,-8.900291920E-1,1.474492073E0,2.597275257E0,3.116427056E0
6.363669641E0,-7.984290123E-1,1.589137077E0,2.419331312E0,3.002667071E0
6.373667818E0,-7.354450226E-1,2.645737648E0,1.443786263E0,3.102470928E0
6.383670683E0,-6.985499859E-1,3.310258865E0,6.935585290E-2,3.383872940E0
6.393672766E0,-6.966013908E-1,3.984111786E0,-1.461814940E-1,4.047192762E0
6.403676933E0,-6.964950562E-1,6.055712700E0,-1.167352200E-1,6.096752314E0
6.413668079E0,-5.348849297E-1,7.458794594E0,-1.238828823E-1,7.478974906E0
6.423671204E0,5.900263786E-1,8.550962448E0,-1.258215010E-1,8.572217972E0
6.433657193E0,1.570760965E0,8.639004707E0,-3.194610476E-1,8.786452510E0
6.443670943E0,2.445770264E0,8.592309952E0,-2.507525086E-1,8.937139325E0
6.453674329E0,2.653877258E0,8.414052010E0,-1.827542335E-1,8.824552954E0
6.463667037E0,3.507640600E0,7.195973396E0,-1.132973805E-1,8.006148387E0
6.473672245E0,3.605405569E0,6.029827118E0,-4.423129559E-2,7.025647358E0
6.483670683E0,3.579120874E0,4.384863853E0,-1.773003042E-1,5.662912029E0
6.493687454E0,2.740976810E0,2.290541649E0,-1.112202033E-1,3.573780191E0
6.503703026E0,1.595455647E0,-9.018898010E-3,-1.968194246E0,2.533643355E0
6.513692297E0,2.863602638E-1,-1.066468239E0,-2.744168520E0,2.958009055E0
6.523665006E0,-6.906815767E-1,-1.216573715E0,-2.822877645E0,3.150512791E0
6.533667037E0,-8.299940825E-1,-1.292941093E0,-2.868598700E0,3.254142798E0
6.543670943E0,-9.174575806E-1,-1.278439522E0,-2.883264303E0,3.284714457E0
6.553676933E0,-9.446970224E-1,-1.188353539E0,-2.869759560E0,3.246560723E0
6.563670162E0,-9.097608328E-1,7.209110260E-2,-2.823389292E0,2.967219067E0
6.573673026E0,-1.490890980E-1,9.269332886E-2,-2.643695831E0,2.649518307E0
6.583670683E0,9.970371723E-1,1.247007370E0,-1.494217515E0,2.186731919E0
6.593677193E0,1.097313404E0,1.240892410E0,-1.281852961E0,2.094530423E0
6.603676412E0,1.171555996E0,1.167489052E0,5.479047298E-1,1.742347190E0
6.613669381E0,1.192884684E0,9.103298187E-2,6.759627461E-1,1.374112989E0
6.623672245E0,1.153455257E0,1.462745667E-2,6.013765335E-1,1.300894588E0
6.633664433E0,1.055974245E0,3.875350952E-2,7.237443924E-1,1.280776868E0
6.643669901E0,1.736586094E-1,6.864356995E-2,8.098714352E-1,8.311203245E-1
6.653671724E0,8.675813675E-3,-1.715931892E0,8.901000023E-1,1.933074117E0
6.663667297E0,-9.120078087E-1,-1.734446049E0,9.114001393E-1,2.161182906E0
6.673689485E0,-1.022529602E0,-1.705677986E0,7.321312428E-1,2.119179166E0
6.683685318E0,-1.121036649E0,-1.606086731E0,7.534293532E-1,2.098545579E0
6.693706776E0,-1.174846292E0,-9.039783478E-1,7.739136219E-1,1.672238905E0
6.703679068E0,-1.169505596E0,1.396141052E-1,7.949131131E-1,1.420958231E0
6.713677714E0,-1.075090885E0,1.561708450E-1,8.153486848E-1,1.358308957E0
6.723669641E0,-3.607842922E-1,7.192420959E-2,6.368907690E-1,7.355054378E-1
6.733670162E0,-2.153086662E-1,8.655834198E-2,6.604380608E-1,7.000204286E-1
6.743668079E0,6.981887817E-1,1.013679504E-1,6.843856573E-1,9.829174758E-1
6.753676933E0,8.292417526E-1,1.163358688E-1,7.087287903E-1,1.097028904E0
6.763667558E0,1.553230047E0,5.152416229E-2,5.723749399E-1,1.656137492E0
6.773670683E0,1.577578545E0,6.689548492E-2,5.964447856E-1,1.687890830E0
6.783671724E0,1.584922791E0,8.251953125E-2,-4.071446657E-1,1.638461627E0
6.793669641E0,1.531604528E0,1.059274673E-1,-4.514398575E-1,1.600259668E0
6.803676151E0,1.454400778E0,1.302318573E-1,-4.763777256E-1,1.535961489E0
6.813667818E0,1.328442335E0,6.029796600E-2,-5.027303696E-1,1.421665469E0
6.823669120E0,1.175090551E0,9.014797211E-2,-5.509114265E-1,1.300948831E0
6.833668860E0,3.870341778E-1,1.198444366E-1,-5.969778299E-1,7.214850471E-1
6.843670683E0,3.020167351E-1,1.491956711E-1,-6.231084466E-1,7.083343792E-1
6.853698443E0,2.250971794E-1,1.802206039E-1,-5.864414573E-1,6.534996473E-1
6.863659797E0,1.453101635E-1,1.111927032E-1,-5.212590098E-1,5.524398757E-1
6.873688339E0,4.803419113E-2,1.419515610E-1,-4.367254376E-1,4.617213847E-1
6.883687141E0,-6.623530388E-2,1.715869904E-1,-3.114818931E-1,3.617321944E-1
6.893671985E0,-1.743338108E-1,1.997995377E-1,7.525990605E-1,7.979457869E-1
6.903675891E0,-2.249598503E-1,2.201900482E-1,8.154389262E-1,8.740888021E-1
6.913669641E0,-2.425765991E-1,1.900436401E0,6.776266694E-1,2.032161368E0
6.923667558E0,-2.216641903E-1,2.021023750E0,7.387201786E-1,2.163187351E0
6.933669381E0,-7.984495163E-2,3.022377968E0,8.356899619E-1,3.136801159E0
6.943668339E0,5.954999924E-1,3.042635918E0,8.569780588E-1,3.216623223E0
6.953674329E0,7.241594791E-1,2.941456795E0,6.778324842E-1,3.104195855E0
6.963672766E0,1.539676189E0,1.989175797E0,6.966375113E-1,2.610120101E0
6.973669120E0,1.618625641E0,1.133432388E-1,7.161303163E-1,1.773594735E0
6.983670422E0,1.669545412E0,1.241531372E-1,7.350538969E-1,1.828414645E0
6.993669901E0,1.656716824E0,1.355075836E-1,7.549483180E-1,1.825656020E0
7.003676672E0,1.585435390E0,-1.749838829E0,5.744670630E-1,2.430134505E0
7.013669381E0,1.469773054E0,-2.516742706E0,5.964097977E-1,2.974883414E0
7.023677714E0,6.825547218E-1,-2.650034904E0,6.190127730E-1,2.805662623E0
7.033670214E0,5.829420090E-1,-3.344696045E0,6.424584985E-1,3.455367700E0
7.043657974E0,4.510133266E-1,-3.344810009E0,6.688099504E-1,3.440708323E0
7.053677714E0,3.368651867E-1,-3.313307285E0,4.960846901E-1,3.367132807E0
7.063675943E0,2.529120445E-1,-3.239511013E0,5.238580704E-1,3.291325475E0
7.073670995E0,2.006654739E-1,-3.132795811E0,2.074835539E0,3.762926884E0
7.083666256E0,1.655399799E-1,-2.999861717E0,2.135936499E0,3.686298758E0
7.093669381E0,1.687281132E-1,-2.308084488E0,2.186591864E0,3.183850995E0
7.103679797E0,1.751048565E-1,-2.264019966E0,2.194993973E0,3.158234738E0
7.113683183E0,1.024284363E-1,-2.278197765E0,2.018864155E0,3.045732936E0
7.123675110E0,-2.398300171E-2,-2.335706234E0,4.676243961E-1,2.382177863E0
7.133684485E0,-7.914841175E-1,-2.448060513E0,4.424145818E-1,2.610589597E0
7.143680058E0,-9.418549538E-1,-3.371382236E0,2.192014605E-1,3.507329214E0
7.153681881E0,-1.900724649E0,-3.479890347E0,1.973749101E-1,3.970056407E0
7.163678235E0,-2.050193071E0,-4.318429470E0,1.769901067E-1,4.783664936E0
7.173678756E0,-3.126422167E0,-4.405021191E0,1.580813527E-1,5.404046352E0
7.183677454E0,-3.101693153E0,-5.006551743E0,1.406745166E-1,5.891167124E0
7.193679016E0,-3.274853945E0,-5.039781094E0,-1.545602083E-2,6.010349467E0
7.203688912E0,-3.220158100E0,-5.075788021E0,2.790669352E-2,6.011141406E0
7.213669485E0,-3.173546553E0,-5.098304272E0,7.207549363E-2,6.005772144E0
7.223665735E0,-3.093507767E0,-5.108038902E0,1.157600135E-1,5.972876368E0
7.233678860E0,-2.005855083E0,-5.074718475E0,1.586755514E-1,5.459065868E0
7.243674068E0,-1.815444708E0,-4.990685463E0,3.589957952E-3,5.310630261E0
7.253676672E0,-7.249305248E-1,-4.331760406E0,4.838973284E-2,4.392267530E0
7.263666568E0,-5.541684628E-1,-4.199043274E0,9.302710742E-2,4.236475085E0
7.273677714E0,4.136571884E-1,-3.176899910E0,1.375404000E-1,3.206668469E0
7.283677714E0,5.184080601E-1,-2.430206299E0,1.818539202E-1,2.491529735E0
7.293677974E0,6.592917442E-1,4.288873672E-1,6.640917063E-2,7.893162584E-1
7.303679537E0,6.497530937E-1,4.575195312E-1,1.111527160E-1,8.024077084E-1
7.313680579E0,5.648376942E-1,2.468172073E0,1.147835016E0,2.780007235E0
7.323671464E0,3.873369694E-1,3.664891243E0,1.744480610E0,4.077336183E0
7.333684485E0,-5.448095798E-1,4.400961876E0,1.694603801E0,4.747311339E0
7.343675110E0,-6.940486431E-1,4.482145309E0,1.561608911E0,4.796869029E0
7.353667297E0,-1.463447809E0,4.567211151E0,1.227902249E-1,4.797517549E0
7.363668860E0,-1.527413845E0,5.290966034E0,1.675487161E-1,5.509572324E0
7.373667297E0,-1.548025370E0,5.406741142E0,2.129288316E-1,5.628016614E0
7.383699329E0,-1.414818883E0,6.424196243E0,5.697757006E-2,6.578393139E0
7.393666151E0,-3.833627701E-2,6.490005493E0,1.008256748E-1,6.490901847E0
7.403658235E0,1.487561464E0,6.558114052E0,1.457584500E-1,6.726287576E0
7.413675006E0,2.804640770E0,7.339116096E0,1.902084053E-1,7.859059369E0
7.423686829E0,3.767620802E0,7.383750916E0,2.327679247E-1,8.292703118E0
7.433663964E0,3.968597889E0,7.390076637E0,7.553018630E-2,8.388605767E0
7.443676151E0,4.666461468E0,7.262248993E0,1.199335381E-1,8.633105300E0
7.453669901E0,4.674974442E0,5.943475723E0,1.638338864E-1,7.563539598E0
7.463672245E0,3.505281210E0,4.448008537E0,-1.096335173E0,5.768338333E0
7.473671204E0,-6.865096092E-2,1.967910767E0,-1.892820954E0,2.731328780E0
7.483675631E0,-1.628191233E0,1.390933990E-1,-1.892516732E0,2.500394618E0
7.493670943E0,-2.828126192E0,1.673316956E-1,-1.886477113E0,3.403688228E0
7.503669641E0,-2.808720350E0,1.951532364E-1,-1.868689537E0,3.379200405E0
7.513670422E0,-2.789848089E0,2.231178284E-1,-1.812883377E0,3.334603434E0
7.523667558E0,-2.983047009E0,1.561803818E-1,-1.678755760E0,3.426540919E0
7.533676412E0,-2.949522972E0,1.814699173E-1,-1.538622618E0,3.331662746E0
7.543667818E0,-2.871016026E0,1.939029694E-1,-1.420664430E0,3.209146117E0
7.553668860E0,-2.763564348E0,1.982393265E-1,-1.320605040E0,3.069297054E0
7.563687089E0,-9.713571072E-1,1.939849854E-1,-1.231568098E0,1.580482453E0
7.573668026E0,-9.947299957E-2,9.182167053E-2,-1.137768388E0,1.145793612E0
7.583675943E0,1.560430527E-1,9.134292603E-2,-1.054802418E0,1.070187416E0
7.593668079E0,1.267425776E0,9.254169464E-2,-1.005905509E0,1.620733770E0
7.603668235E0,1.400491238E0,9.512519836E-2,-9.692093134E-1,1.705811010E0
7.613670214E0,1.480941057E0,9.892463684E-2,-9.381848574E-1,1.755893882E0
7.623675110E0,1.444224358E0,-1.474118233E0,-8.931511641E-1,2.248672400E0
7.633676412E0,1.309258223E0,-1.550910950E0,-8.402071595E-1,2.196686126E0
7.643670943E0,4.227547646E-1,-1.625195503E0,-7.801334262E-1,1.851645262E0
7.653670162E0,2.134585381E-1,-1.678545952E0,-5.707352161E-1,1.785726672E0
7.663670162E0,1.138560772E-1,-1.650986671E0,9.421806931E-1,1.904317372E0
7.673671985E0,4.535222054E-2,-1.581595421E0,1.016791463E0,1.880788605E0
7.683683704E0,1.184225082E-3,-1.467368126E0,1.093969107E0,1.830283865E0
7.693671204E0,4.142761230E-3,1.511268616E-1,1.169548035E0,1.179279058E0
7.703667037E0,4.372334480E-2,1.798753738E-1,1.242300153E0,1.256016143E0
7.713669381E0,1.139073372E-1,1.074275970E-1,1.110700011E0,1.121681811E0
7.723669641E0,2.094230652E-1,1.276226044E-1,1.123170257E0,1.149633409E0
7.733673287E0,8.283176422E-1,1.478166580E-1,1.136181831E0,1.413813649E0
7.743690214E0,8.103506565E-1,1.678533554E-1,1.148222566E0,1.415364969E0
7.753668964E0,7.833600044E-1,1.837043762E-1,1.156385660E0,1.408768253E0
7.763671256E0,7.254402637E-1,9.983158112E-2,9.645884633E-1,1.211057730E0
7.773671829E0,6.406128407E-1,1.161222458E-1,9.738273025E-1,1.171413165E0
7.783673704E0,2.740573883E-2,1.324701309E-1,9.840142727E-1,9.932690970E-1
7.793670943E0,-3.158974648E-2,1.489429474E-1,9.951500893E-1,1.006730159E0
7.803671724E0,-1.022741795E-1,1.653671265E-1,1.005654335E0,1.024278739E0
7.813672245E0,-1.734931469E-1,8.218669891E-2,8.176417947E-1,8.398765564E-1
7.823667558E0,-2.207970619E-1,9.930419922E-2,8.321329951E-1,8.666360182E-1
7.833675110E0,-2.655618191E-1,1.364669800E-1,8.873485923E-1,9.362338600E-1
7.843667818E0,-2.355902195E-1,1.534023285E-1,9.034681916E-1,9.461975477E-1
7.853675110E0,-1.724097729E-1,6.997203827E-2,7.193086743E-1,7.429846465E-1
7.863668599E0,-7.977247238E-2,8.601570129E-2,7.359829545E-1,7.452739480E-1
7.873666256E0,5.676825047E-1,1.023387909E-1,7.550030351E-1,9.501401145E-1
7.883674068E0,6.505401134E-1,1.188144684E-1,7.747328281E-1,1.018592299E0
7.893668860E0,7.526533604E-1,1.354150772E-1,7.951132655E-1,1.103190568E0
7.903670162E0,1.377082109E0,1.232805252E0,6.149848700E-1,1.947914350E0
7.913667037E0,1.402210712E0,1.978710175E0,6.371171474E-1,2.507470258E0
7.923671047E0,1.385326385E0,2.660146713E0,6.597336531E-1,3.070953960E0
7.933708547E0,1.288460732E0,2.816195488E0,1.640794277E0,3.504753050E0
7.943673599E0,5.651874542E-1,3.806249619E0,1.702285290E0,4.207701062E0
7.953655422E0,4.053359032E-1,3.898772240E0,1.791654229E0,4.309843042E0
7.963665787E0,-6.377189159E-1,3.951446533E0,2.378913879E0,4.656162193E0
7.973669901E0,-7.851785421E-1,3.935674667E0,2.336778879E0,4.643982769E0
7.983680318E0,-2.373173952E0,3.830788612E0,2.217420101E0,5.022334906E0
7.993669120E0,-2.318792582E0,2.925861359E0,5.920454860E-1,3.779944654E0
8.003671985E0,-2.464547634E0,2.099803925E0,4.145275950E-1,3.264200467E0
8.013669381E0,-2.363912821E0,2.698898315E-4,4.778341949E-1,2.411723329E0
8.023668339E0,-9.595205784E-1,7.550239563E-3,5.022509694E-1,1.083047913E0
8.033676412E0,-7.695074081E-1,-1.981524467E0,5.274056792E-1,2.190145570E0
8.043672506E0,2.162363529E-1,-2.899744987E0,3.537704945E-1,2.929237566E0
8.053669901E0,3.729648590E-1,-3.574994564E0,3.807348311E-1,3.614505212E0
8.063669120E0,5.181884766E-1,-3.669790745E0,4.086473286E-1,3.728656064E0
8.073668599E0,6.258292198E-1,-3.745366096E0,4.391504228E-1,3.822601536E0
8.083673547E0,6.847369671E-1,-3.794239521E0,4.705268145E-1,3.884136164E0
8.093670422E0,6.842501163E-1,-3.826337337E0,3.025895953E-1,3.898796751E0
8.103669537E0,5.890128613E-1,-3.828933239E0,3.371735811E-1,3.888618254E0
8.113675474E0,4.284827709E-1,-3.827051163E0,3.722258806E-1,3.868910724E0
8.123678808E0,-4.480683804E-1,-3.836740494E0,4.075938761E-1,3.884259988E0
8.133664329E0,-5.599122047E-1,-3.876997471E0,4.414200783E-1,3.942012526E0
8.143669901E0,-6.822333336E-1,-3.968315125E0,2.758074999E-1,4.035967917E0
8.153670683E0,-8.035897017E-1,-4.797018051E0,3.117686212E-1,4.873842249E0
8.163668079E0,-9.190461636E-1,-4.878499985E0,3.477126956E-1,4.976475869E0
8.173670162E0,-1.009489298E0,-5.527458191E0,3.836097717E-1,5.631964058E0
8.183674068E0,-1.040863752E0,-5.586672306E0,4.179968834E-1,5.698159896E0
8.193672245E0,-1.044105411E0,-5.688574314E0,-7.460266948E-1,5.831516927E0
8.203669120E0,-1.008746862E0,-5.685296535E0,-7.736325264E-1,5.825690879E0
8.213668079E0,-9.490699768E-1,-5.620473862E0,-7.809690237E-1,5.753292350E0
8.223669120E0,-8.670936823E-1,-5.488782883E0,-7.675471306E-1,5.609609397E0
8.233677714E0,-2.498700619E-1,-4.487039566E0,-7.015162110E-1,4.548415560E0
8.243668599E0,-2.074952126E-1,-3.697446346E0,3.005648255E-1,3.715441153E0
8.253671204E0,-1.672499180E-1,-2.788297176E0,3.414179385E-1,2.814096638E0
8.263668339E0,-1.045370102E-1,-1.898983002E0,3.803156614E-1,1.939511389E0
8.273667297E0,-3.207707405E-2,-1.079330444E0,2.063599586E0,2.329039802E0
8.283752558E0,5.677037239E-1,2.262458801E-1,2.976580381E0,3.038668373E0
8.293665891E0,5.780010223E-1,2.547435760E-1,3.740803242E0,3.793756498E0
8.303787818E0,6.096849442E-1,2.812738419E-1,3.817221642E0,3.875824011E0
8.313668391E0,6.578037739E-1,3.052511215E-1,3.801985979E0,3.870527282E0
8.323669954E0,6.715345383E-1,1.787684441E0,3.037336826E0,3.587783340E0
8.333681099E0,6.297845840E-1,1.871052742E0,1.878705263E0,2.725252365E0
8.343686568E0,5.224459171E-1,2.686590195E0,6.349495798E-2,2.737653780E0
8.353682141E0,-1.978039742E-1,3.506104469E0,2.479448728E-2,3.511767323E0
8.363690735E0,-3.230800629E-1,4.499544144E0,-9.016536176E-3,4.511137276E0
8.373680318E0,-4.091334343E-1,6.390997887E0,-1.958658099E-1,6.407074806E0
8.383679016E0,-2.580239773E-1,7.134943962E0,-2.176796794E-1,7.142925602E0
8.393679537E0,1.061140299E0,7.787938118E0,-2.335358709E-1,7.863366828E0
8.403679537E0,2.023934841E0,7.866073608E0,-1.707271636E-1,8.124073733E0
8.413679016E0,2.853063822E0,7.875244141E0,-1.063110232E-1,8.376798045E0
8.423678235E0,3.021257401E0,7.770717621E0,-2.420289963E-1,8.340900830E0
8.433657714E0,3.753905535E0,6.921895981E0,-1.787272692E-1,7.876318567E0
8.443677714E0,3.730885267E0,5.982052803E0,-1.151982769E-1,7.051080148E0
8.453679276E0,2.671949625E0,4.879085541E0,-5.374678969E-2,5.563063835E0
8.463687974E0,1.204559803E0,3.682922363E0,-1.435949326E0,4.132412361E0
8.473688443E0,-3.954179287E-1,2.476210594E0,-1.547881842E0,2.946847882E0
8.483676099E0,-2.460681200E0,1.363659859E0,-2.214007139E0,3.579992708E0
8.493668391E0,-2.425115108E0,3.674221039E-2,-2.208009720E0,3.279914664E0
8.503667349E0,-2.388821602E0,5.901241302E-2,-2.171965361E0,3.229146116E0
8.513673079E0,-2.359732866E0,8.303928375E-2,-2.075975180E0,3.144027301E0
8.523675891E0,-2.538087368E0,-1.108136177E0,-1.985179424E0,3.407461023E0
8.533680318E0,-2.495062590E0,-1.098686218E0,-1.856924891E0,3.298578298E0
8.543681099E0,-9.152940512E-1,-1.052371979E0,-1.717943668E0,2.212821825E0
8.553679276E0,1.085685253E0,8.187675476E-2,-7.530092001E-1,1.323797238E0
8.563681360E0,1.912811041E0,-4.020690918E-3,2.428622991E-1,1.928171242E0
8.573675110E0,2.068482637E0,1.074123383E-2,3.457836211E-1,2.097212938E0
8.583668079E0,2.798080206E0,2.600860596E-2,4.465079308E-1,2.833601704E0
8.593667558E0,2.826581955E0,4.176330566E-2,5.451485515E-1,2.878974933E0
8.603669120E0,2.726302385E0,6.570434570E-2,6.378784776E-1,2.800701824E0
8.613676672E0,1.854616404E0,-1.038002014E0,5.007773638E-1,2.183535700E0
8.623668599E0,1.054361820E0,-1.713623047E0,5.296370387E-1,2.080552376E0
8.633678235E0,2.347044945E-1,-1.702281952E0,5.587807894E-1,1.806954901E0
8.643667610E0,-5.730438232E-1,-1.646282196E0,5.867850780E-1,1.839277309E0
8.653658391E0,-7.777194977E-1,-1.541532516E0,6.150799990E-1,1.832892119E0
8.663660110E0,-2.679786205E0,-8.858127594E-1,4.441555738E-1,2.857130120E0
8.673666829E0,-2.682577372E0,1.173391342E-1,4.734763205E-1,2.726567375E0
8.683673547E0,-2.683462381E0,1.495504379E-1,5.015722513E-1,2.734028239E0
8.693668599E0,-2.658167362E0,1.745634079E-1,5.302144289E-1,2.716146802E0
8.703668599E0,-9.897449017E-1,1.922512054E-1,-9.081320763E-1,1.356930125E0
8.713674589E0,-8.224517107E-1,1.033334732E-1,-9.323264360E-1,1.247532447E0
8.723670162E0,2.976019382E-1,1.347770691E-1,-9.287090302E-1,9.844959292E-1
8.733668079E0,1.019785166E0,1.465330124E-1,-9.301685095E-1,1.388037162E0
8.743672245E0,1.091091871E0,1.586017609E-1,-9.219905138E-1,1.437255196E0
8.753668079E0,1.136121035E0,7.121658325E-2,-8.990489841E-1,1.450562609E0
8.763674589E0,1.148760080E0,8.626747131E-2,-7.928518653E-1,1.398465544E0
8.773669901E0,1.112036228E0,1.095342636E-1,-6.474075913E-1,1.291417406E0
8.783667558E0,1.030928850E0,1.359193802E0,6.246902943E-1,1.816716832E0
8.793667297E0,8.777005672E-1,2.144260406E0,7.005365491E-1,2.420529370E0
8.803666256E0,-6.956815720E-3,2.315031052E0,5.752145052E-1,2.385432643E0
8.813703756E0,-1.411187649E-1,3.402627945E0,6.483784914E-1,3.466725560E0
8.823665943E0,-7.935317755E-1,3.487006187E0,7.177430987E-1,3.647473096E0
8.833663704E0,-8.710592985E-1,3.545503616E0,2.374743223E0,4.355312339E0
8.843652818E0,-9.343932867E-1,3.526245117E0,2.370808125E0,4.350658181E0
8.853666047E0,-9.729063511E-1,3.413222313E0,2.293826342E0,4.225904946E0
8.863674641E0,-9.615908861E-1,2.557008743E0,2.149210930E0,3.475925541E0
8.873669641E0,-8.576892614E-1,2.384013176E0,6.379533410E-1,2.612687153E0
8.883673808E0,-7.118154764E-1,1.309930801E0,6.556916833E-1,1.628659437E0
8.893669641E0,1.335756779E-1,1.016988754E-1,6.743410230E-1,6.949251314E-1
8.903669641E0,3.301341534E-1,-1.002807617E0,5.343491435E-1,1.183275405E0
8.913676933E0,4.594933987E-1,-1.782003403E0,5.551959276E-1,1.922215604E0
8.923668079E0,1.090591192E0,-2.543986320E0,5.782597661E-1,2.827656256E0
8.933667558E0,1.102647066E0,-2.708477497E0,6.005665660E-1,2.985357785E0
8.943670162E0,1.063324213E0,-3.716723919E0,4.250484705E-1,3.889133743E0
8.953669641E0,9.864454269E-1,-3.791285992E0,4.513070881E-1,3.943425179E0
8.963674068E0,8.804149628E-1,-3.839401245E0,4.780245125E-1,3.967951595E0
8.973669120E0,1.427090168E-1,-3.837417603E0,1.635046601E0,4.173669502E0
8.983667037E0,4.236435890E-2,-3.773211002E0,1.672196150E0,4.127366711E0
8.993665839E0,-8.965253830E-2,-3.674091816E0,1.619236946E0,4.016082237E0
9.003691568E0,-7.589499950E-1,-3.006000996E0,1.591298938E0,3.484864329E0
9.013685839E0,-8.313915730E-1,-2.920217514E0,1.556029916E0,3.411760744E0
9.023654589E0,-8.987098932E-1,-2.852937698E0,1.492984056E0,3.343042682E0
9.033670943E0,-9.516146183E-1,-2.821368217E0,4.704487920E-1,3.014466962E0
9.043670943E0,-9.802265167E-1,-2.839038849E0,3.005816936E-1,3.018498793E0
9.053669901E0,-9.856271744E-1,-2.912175179E0,3.308550715E-1,3.092198292E0
9.063674068E0,-9.860442877E-1,-3.686246872E0,3.616389930E-1,3.832946921E0
9.073671985E0,-9.560585022E-1,-3.805491447E0,3.926930726E-1,3.943351476E0
9.083668599E0,-8.695945740E-1,-4.770880222E0,2.642145157E-1,4.856676037E0
9.093668339E0,-8.105914593E-1,-4.861866951E0,2.956663370E-1,4.937836302E0
9.103670683E0,-7.444939613E-1,-5.457849979E0,3.273031414E-1,5.518108825E0
9.113677974E0,-6.575055122E-1,-5.443350315E0,3.606861234E-1,5.494767568E0
9.123672766E0,-1.683354378E-2,-5.399066448E0,3.941878080E-1,5.413463393E0
9.133669120E0,7.092475891E-3,-5.284422874E0,2.282675654E-1,5.289355490E0
9.143669641E0,-1.022958755E-2,-4.492178917E0,2.646627426E-1,4.499980270E0
9.153668339E0,-6.436562538E-2,-4.347113609E0,3.009713590E-1,4.357995345E0
9.163675370E0,-1.660656929E-1,-3.320561409E0,3.372671306E-1,3.341774230E0
9.173788547E0,-8.513770103E-1,-2.481424332E0,3.734963536E-1,2.649869630E0
9.183675266E0,-9.897265434E-1,-1.350834846E0,1.306756973E0,2.124129751E0
9.193676985E0,-1.831928730E0,4.012594223E-1,1.411072731E0,2.346933797E0
9.203662141E0,-1.957285404E0,1.981321335E0,2.101027489E0,3.488684121E0
9.213685422E0,-2.976393461E0,3.801833153E0,2.155932426E0,5.287806538E0
9.223668860E0,-2.937534571E0,5.154092789E0,2.122023821E0,6.300537035E0
9.233669381E0,-3.085783720E0,6.132545471E0,1.939068317E0,7.133734020E0
9.243668860E0,-2.988266945E0,6.891242027E0,1.849727333E-1,7.513532520E0
9.253672766E0,-1.491280794E0,7.687973022E0,2.164550722E-1,7.834264509E0
9.263674849E0,3.500943184E-1,8.444478035E0,2.878030539E-1,8.456630884E0
9.273669381E0,1.388135195E0,8.284786224E0,1.199059039E-1,8.401129658E0
9.283669901E0,2.339291811E0,7.011521339E0,1.524542570E-1,7.393034558E0
9.293670162E0,2.589344263E0,5.997303963E0,1.854372919E-1,6.535039826E0
9.303668339E0,3.299871922E0,5.120534897E0,2.190544009E-1,6.095655597E0
9.313675891E0,3.338393927E0,4.360907555E0,2.548835278E-1,5.497940917E0
9.323670683E0,3.245060444E0,3.528021812E0,9.144857526E-2,4.794342294E0
9.333667037E0,2.195274115E0,2.584701538E0,1.282305717E-1,3.393575336E0
9.343667818E0,1.407416105E0,1.840993881E0,-1.573399425E0,2.801011302E0
9.353739589E0,7.098476887E-1,1.733542442E0,-1.656612635E0,2.500683619E0
9.363671881E0,5.657041073E-1,1.655353546E0,-1.679763794E0,2.425246978E0
9.373805006E0,4.461748600E-1,1.637535095E0,-1.629382849E0,2.352760434E0
9.383684016E0,3.683516979E-1,1.662511826E0,-1.550562978E0,2.303014132E0
9.393669381E0,3.600883484E-1,1.700714111E0,-1.494476676E0,2.292499213E0
9.403668339E0,4.207296371E-1,1.716630936E0,-1.469329357E0,2.298426409E0
9.413676672E0,1.231792450E0,1.683813095E0,-1.391805649E0,2.507919884E0
9.423670162E0,1.319866180E0,1.597104073E0,-1.275029182E0,2.432794190E0
9.433657974E0,1.394177675E0,2.923774719E-2,-1.133996725E0,1.797368857E0
9.443669901E0,1.428319216E0,7.663726807E-2,-9.266227484E-1,1.704288347E0
9.453667297E0,1.312990904E0,1.039829254E-1,-8.160845041E-1,1.549435859E0
9.463675891E0,4.722917080E-1,3.143405914E-2,-6.763377190E-1,8.255181813E-1
9.473669641E0,-3.188138008E-1,5.864715576E-2,5.220803022E-1,6.145319930E-1
9.483669381E0,-1.133118153E0,-1.633705139E0,5.975081921E-1,2.076045585E0
9.493666516E0,-2.582797766E0,-1.704882622E0,6.705872416E-1,3.166568537E0
9.503670422E0,-2.566757441E0,-1.765411377E0,7.397661209E-1,3.201901779E0
9.513671985E0,-2.749479532E0,-1.792184830E0,6.061710715E-1,3.337515173E0
9.523668079E0,-2.731510639E0,-1.779827118E0,6.682989597E-1,3.327996160E0
9.533687401E0,-2.692959070E0,-1.736699104E0,6.907402277E-1,3.277998535E0
9.543687454E0,-2.629342556E0,-1.646659851E0,7.126764655E-1,3.183212008E0
9.553698443E0,-1.533704042E0,-9.510908127E-1,7.371847034E-1,1.949426354E0
9.563688704E0,-1.343735933E0,9.265613556E-2,5.625486970E-1,1.459682313E0
9.573678495E0,-1.961929798E-1,1.012506485E-1,5.881195664E-1,6.281942403E-1
9.583680318E0,-1.235723495E-3,1.101369858E-1,6.124214530E-1,6.222473132E-1
9.593680579E0,1.034026146E0,1.194152832E-1,-6.089531183E-1,1.205941118E0
9.603677714E0,1.172957659E0,1.290388107E-1,-6.906667352E-1,1.367297050E0
9.613679276E0,1.838968754E0,3.690052032E-2,-8.317041993E-1,2.018638056E0
9.623681620E0,1.958474636E0,7.475662231E-2,-1.801000118E0,2.661731181E0
9.633683964E0,1.996064425E0,9.403324127E-2,-1.889567614E0,2.750196575E0
9.643675631E0,1.973351240E0,1.220731735E-1,-1.982351780E0,2.799774197E0
9.653678235E0,1.912748098E0,5.330562592E-2,-2.006761551E0,2.772821433E0
9.663676933E0,1.790221691E0,9.015083313E-2,-2.007740021E0,2.691475593E0
9.673677193E0,1.622128010E0,1.275596619E-1,-1.961141348E0,2.548263356E0
9.683678756E0,8.548698425E-1,1.669168472E-1,-1.805569291E0,2.004680560E0
9.693682662E0,7.131319046E-1,2.064609528E-1,-1.078767538E0,1.309550549E0
9.703687089E0,5.411169529E-1,1.460199356E-1,-8.731805086E-1,1.037580637E0
9.713676464E0,-3.143701553E-1,1.854562759E-1,9.009830356E-1,9.721075327E-1
9.723671776E0,-4.423637390E-1,2.245788574E-1,9.985864758E-1,1.115031968E0
9.733684849E0,-5.924007893E-1,2.635002136E-1,1.093595862E0,1.271346911E0
9.743668079E0,-1.404609442E0,3.013830185E-1,1.186007380E0,1.862893694E0
9.753681360E0,-1.486324906E0,2.296810150E-1,1.059369922E0,1.839614016E0
9.763669693E0,-1.590050340E0,2.562599182E-1,1.126173019E0,1.965246778E0
9.773677714E0,-2.969935417E0,2.744150162E-1,1.129545093E0,3.189309032E0
9.783676412E0,-2.904025316E0,2.840328217E-1,1.133463860E0,3.130299986E0
9.793678756E0,-2.991859198E0,2.123231888E-1,9.791430831E-1,3.155158280E0
9.803669381E0,-2.893823385E0,1.948575974E0,9.865782857E-1,3.625534281E0
9.813667818E0,-2.795259237E0,2.041571617E0,9.951382875E-1,3.601637000E0
9.823669901E0,-2.695215464E0,2.657370567E0,1.003238082E0,3.915646993E0
9.833667558E0,-9.525539875E-1,2.662154198E0,1.013206959E0,3.003500027E0
9.843670422E0,-7.863538265E-1,2.639086723E0,8.228882551E-1,2.874069615E0
9.853667818E0,-5.928738117E-1,2.567749977E0,8.349790573E-1,2.764422060E0
9.863668599E0,1.407418251E-1,2.445384026E0,8.436871171E-1,2.590660002E0
9.873665995E0,2.744326591E-1,1.742217064E0,8.533488512E-1,1.959295242E0
9.883682922E0,4.284574986E-1,1.633131027E0,8.642782569E-1,1.896752405E0
9.893674537E0,5.270667076E-1,1.548649788E0,6.747487783E-1,1.769576614E0
9.903658026E0,6.571702957E-1,1.454943657E0,6.879852414E-1,1.738406608E0
9.913693391E0,1.422034979E0,1.363181114E0,7.023562193E-1,2.091351355E0
9.923665266E0,1.488962650E0,-3.364467621E-2,7.176561952E-1,1.653230823E0
9.933670943E0,1.575065136E0,-1.509857178E-2,7.325234413E-1,1.737138089E0
9.943670683E0,1.671064854E0,-9.555721283E-2,5.492002368E-1,1.761592980E0
9.953671464E0,2.251743793E0,-7.524108887E-2,5.684707165E-1,2.323611475E0
9.963669381E0,2.187165976E0,-4.844951630E-2,5.884096026E-1,2.265450997E0
9.973669381E0,1.955083370E0,-1.402531624E0,6.492785811E-1,2.492189523E0
9.983668860E0,9.471123219E-1,-2.391815186E0,4.718025923E-1,2.615415707E0
9.993670422E0,7.588186264E-1,-2.517544746E0,4.949461520E-1,2.675595065E0
1.000367876E1,-3.259687424E-1,-3.446534634E0,5.199813843E-1,3.500748097E0
1.001367042E1,-5.324647427E-1,-3.531630039E0,5.454750657E-1,3.612958965E0
1.002366834E1,-2.329510212E0,-4.130650997E0,5.714845061E-1,4.776556294E0
1.003366782E1,-2.536746025E0,-4.175168037E0,3.982751966E-1,4.901605009E0
1.004366600E1,-2.543541431E0,-4.240189552E0,4.270073473E-1,4.962977506E0
1.005366912E1,-2.542070627E0,-4.310461044E0,4.573054910E-1,5.025069731E0
1.006368396E1,-2.536337614E0,-4.880900860E0,4.879991114E-1,5.522168490E0
1.007366620E1,-2.501871109E0,-4.887211323E0,5.199488997E-1,5.514937934E0
1.008366813E1,-2.661904812E0,-4.902035713E0,3.509741426E-1,5.589174734E0
1.009365688E1,-2.563400984E0,-4.928724766E0,3.844520450E-1,5.568766093E0
1.010366553E1,-2.466134787E0,-4.956543446E0,4.180239439E-1,5.551926488E0
1.011366527E1,-2.368836403E0,-4.966029644E0,4.516580999E-1,5.520582521E0
1.012366912E1,-2.272953987E0,-4.944516182E0,4.836514592E-1,5.463376139E0
1.013366860E1,-6.635466814E-1,-4.894641876E0,3.167301416E-1,4.949558695E0
1.014366808E1,-4.951596260E-1,-4.801771641E0,1.391782165E0,5.023868185E0
1.015366834E1,4.494397640E-1,-3.917986393E0,2.122281551E0,4.478469879E0
1.016366912E1,5.934293270E-1,-2.939696312E0,2.235168695E0,3.740314408E0
1.017366860E1,7.193837166E-1,-2.796341419E0,3.076457500E0,4.219197675E0
1.018366782E1,7.547366619E-1,-1.878262043E0,3.155749321E0,3.749166508E0
1.019366626E1,7.576551437E-1,-1.794779778E0,3.746941090E0,4.223131930E0
1.020366964E1,7.276251316E-1,-1.724023819E0,3.733366966E0,4.176089722E0
1.021366782E1,6.975085735E-1,-1.678331375E0,3.741969585E0,4.160006105E0
1.022367146E1,6.667299271E-1,-1.656579494E0,4.439281940E0,4.784977384E0
1.023366808E1,6.136837006E-1,-1.633723736E0,4.427736282E0,4.759255143E0
1.024368355E1,5.611441135E-1,-1.538551331E0,5.382528305E0,5.626156225E0
1.025367704E1,5.413200855E-1,3.123254776E-1,5.901839256E0,5.934836244E0
1.026368245E1,5.451221466E-1,1.399434090E0,5.797856331E0,5.989216306E0
1.027368584E1,5.449063778E-1,3.995776176E0,5.546527863E0,6.857632357E0
1.028366631E1,5.379545689E-1,7.356811523E0,4.291886806E0,8.534187909E0
1.029366964E1,5.492577553E-1,1.109458637E1,3.274072170E0,1.158063381E1
1.030366860E1,5.923800468E-1,1.339110565E1,1.980396748E0,1.354970834E1
1.031366808E1,1.381339073E0,1.353483391E1,2.537006140E-1,1.360750493E1
1.032366787E1,1.482537985E0,1.345232105E1,-1.667533278E0,1.363611117E1
1.033367537E1,1.445184946E0,9.671697617E0,-5.400404453E0,1.117115314E1
1.034367016E1,1.404212475E0,6.336307526E0,-6.538709164E0,9.212780431E0
1.035366938E1,5.424304008E-1,2.272496223E0,-6.725578785E0,7.119823019E0
1.036366808E1,4.451243877E-1,-2.038976669E0,-7.748908043E0,8.025031927E0
1.037367303E1,-8.225390911E-1,-4.711323738E0,-7.690357208E0,9.056198756E0
1.038366704E1,-2.285212278E0,-5.528103352E0,-7.467398167E0,9.567871090E0
1.039366782E1,-2.200955391E0,-5.442812443E0,-7.145626545E0,9.248156067E0
1.040367068E1,-2.121361971E0,-3.936127663E0,-5.628782272E0,7.188634603E0
1.041366782E1,-2.268478870E0,-2.227862358E0,-4.423454285E0,5.447597166E0
1.042366490E1,-2.235423803E0,7.258892059E-2,-3.378511906E0,4.051756586E0
1.043408469E1,-2.211815357E0,1.803086281E0,-2.296912193E0,3.663202552E0
1.044367021E1,-3.358392715E-1,3.583814621E0,-1.374109983E0,3.852881195E0
1.045365740E1,5.640606880E-1,4.700547218E0,-1.094082355E0,4.859045669E0
1.046366792E1,1.375695229E0,4.787362099E0,-8.762738705E-1,5.057591237E0
1.047366886E1,1.532310247E0,4.735846519E0,-7.722966075E-1,5.037128051E0
1.048366782E1,2.239953995E0,3.828487396E0,-7.915794849E-1,4.505697252E0
1.049366730E1,2.239028692E0,2.465902328E0,-1.481480598E0,3.645368094E0
1.050366730E1,1.511515141E0,1.026831627E0,-1.457802057E0,2.337573111E0
1.051367198E1,-2.910307646E-1,-1.536812782E0,-1.465907574E0,2.143683150E0
1.052366678E1,-1.046507835E0,-2.295030594E0,-1.424325466E0,2.896730417E0
1.053367224E1,-2.072327375E0,-2.380183697E0,-1.334339857E0,3.426408912E0
1.054367381E1,-2.034123898E0,-2.438416481E0,-1.212113857E0,3.398934387E0
1.055367016E1,-2.195136309E0,-2.453587055E0,-1.071758986E0,3.462279621E0
1.056366808E1,-2.161029339E0,-2.410372734E0,-3.950939178E-1,3.261294793E0
1.057366782E1,-2.133094549E0,-2.320557117E0,-3.222360015E-1,3.168424487E0
1.058366756E1,-9.593973160E-1,-2.204785347E0,-2.844355702E-1,2.421244562E0
1.059366782E1,-7.928639650E-1,-1.480525970E0,-2.929366231E-1,1.704817375E0
1.060366641E1,2.568798065E-1,-1.394249916E0,-3.388434649E-1,1.457647062E0
1.061368631E1,3.996250629E-1,-1.269412994E0,-3.810815811E-1,1.384316695E0
1.062366704E1,1.090390921E0,9.934711456E-2,-4.080083370E-1,1.168457535E0
1.063365698E1,1.154509783E0,1.192312241E-1,-4.036970139E-1,1.228853206E0
1.064366761E1,1.197121859E0,1.391601562E-1,-3.672987223E-1,1.259910570E0
1.065367120E1,1.191592216E0,5.903911591E-2,-3.105472326E-1,1.232808668E0
1.066367068E1,1.091767073E0,8.659839630E-2,-2.207978964E-1,1.117231549E0
1.067366964E1,9.492337704E-1,1.144018173E-1,-1.190042496E-1,9.634804295E-1
1.068366860E1,1.356785297E-1,1.390142441E-1,-4.352092743E-3,1.943001909E-1
1.069367120E1,-5.968213081E-2,8.356571198E-2,1.078530550E-1,1.489210073E-1
1.070366860E1,-7.433998585E-1,1.079387665E-1,1.224054098E-1,7.611026286E-1
1.071366964E1,-7.754724026E-1,1.321115494E-1,9.209430218E-2,7.920178465E-1
1.072367199E1,-7.894909382E-1,1.560249329E-1,2.251231670E-2,8.050754782E-1
1.073366912E1,-7.683980465E-1,1.793470383E-1,-5.987894535E-2,7.913194084E-1
1.074366860E1,-7.023743391E-1,1.006717682E-1,-1.211968660E-1,7.198285890E-1
1.075366938E1,-6.174718142E-1,1.212854385E-1,-1.640777588E-1,6.503100105E-1
1.076366912E1,-5.197949409E-1,1.409921646E-1,-1.713535786E-1,5.651792813E-1
1.077366860E1,1.301074028E-1,1.572599411E-1,-1.522067785E-1,2.546085795E-1
1.078366605E1,1.651623249E-1,1.736507416E-1,-1.201268435E-1,2.680739304E-1
1.079368047E1,1.828403473E-1,9.036064148E-2,-8.177876472E-2,2.197348504E-1
1.080366568E1,1.801445484E-1,1.077051163E-1,-4.903197289E-2,2.155378963E-1
1.081367501E1,1.647646427E-1,1.253747940E-1,-4.209971428E-2,2.112785186E-1
1.082366839E1,1.479470730E-1,1.431989670E-1,-7.840025425E-2,2.203199501E-1
1.083366808E1,1.100111008E-1,1.651792526E-1,-1.486756802E-1,2.479739617E-1
1.084367485E1,1.154234409E-1,8.749008179E-2,-2.519720793E-1,2.906320937E-1
1.085367980E1,1.722857952E-1,1.099538803E-1,-9.707932472E-1,9.920744830E-1
1.086367980E1,2.986412048E-1,1.326169968E-1,-9.859255552E-1,1.038664064E0
1.087368188E1,2.047708511E0,1.751546860E-1,-9.679795504E-1,2.271733638E0
1.088368032E1,2.191918135E0,1.268238068E0,-9.217770100E-1,2.694922218E0
1.089368995E1,3.155564308E0,1.379404068E0,-8.442717791E-1,3.545861887E0
1.090367954E1,3.243538857E0,2.326155663E0,-7.268673182E-1,4.057077837E0
1.091368084E1,3.306364775E0,3.006779671E0,8.270895481E-2,4.469856014E0
1.092368084E1,3.270602226E0,3.726883888E0,2.001862526E-1,4.962517201E0
1.093367563E1,3.125172377E0,3.897015572E0,3.389486074E-1,5.006827230E0
1.094367824E1,2.342892885E0,4.831212044E0,1.584136009E0,5.598146459E0
1.095367876E1,1.468549252E0,4.927656174E0,1.642384648E0,5.397764315E0
1.096378287E1,5.548636913E-1,5.038849831E0,1.694282055E0,5.344948364E0
1.097366740E1,-2.964611053E-1,5.119318008E0,1.712831855E0,5.406394272E0
1.098385292E1,-1.188553810E0,5.142104149E0,1.526236892E0,5.493932497E0
1.099365766E1,-2.661399126E0,5.096365929E0,1.536383986E0,5.951173560E0
1.100366631E1,-2.644721985E0,4.969156265E0,3.025352955E-1,5.637250746E0
1.101367068E1,-2.625793219E0,3.988688469E0,1.210379601E-1,4.776931642E0
1.102366730E1,-2.578761816E0,3.284346581E0,-7.886168957E-1,4.249571928E0
1.103367277E1,-2.703561306E0,2.587037086E0,-8.617118597E-1,3.839863533E0
1.104366912E1,-2.576552629E0,2.403037071E0,-8.955157995E-1,3.635266038E0
1.105367120E1,-5.863895416E-1,1.346855164E0,-8.760421276E-1,1.710357078E0
1.106366886E1,5.329227448E-1,1.243438721E0,-8.158221245E-1,1.579782340E0
1.107367641E1,1.506963730E0,1.174015045E0,-7.265033722E-1,2.043785253E0
1.108366782E1,1.748634100E0,1.146450996E0,-6.062227488E-1,2.177056987E0
1.109366834E1,2.614206076E0,1.137489319E0,-5.358930826E-1,2.900885512E0
1.110366886E1,2.703246593E0,1.109485626E0,-5.403648615E-1,2.971614828E0
1.111366782E1,2.679668427E0,1.062685013E0,-5.984210968E-1,2.944151851E0
1.112367355E1,2.562238693E0,9.695606232E-1,-6.864502430E-1,2.824239519E0
1.113366886E1,1.767821312E0,-6.105041504E-2,-1.350267887E0,2.225341033E0
1.114371110E1,1.599064350E0,-2.643680573E-2,-1.369877219E0,2.105770476E0
1.115366699E1,7.833960056E-1,7.886886597E-3,-1.384606838E0,1.590882648E0
1.116375574E1,6.374497414E-1,-1.068579674E0,-1.370639920E0,1.851177594E0
1.117367001E1,-9.018778801E-2,-2.025427818E0,-1.307358384E0,2.412400802E0
1.118367120E1,-2.230439186E-1,-2.100614071E0,-1.205854058E0,2.432367586E0
1.119367303E1,-3.878312111E-1,-2.728505135E0,-1.090340376E0,2.963780601E0
1.120366990E1,-1.264506578E0,-2.775221825E0,-4.549266100E-1,3.083470656E0
1.121366938E1,-1.394008517E0,-2.838269234E0,-3.916251659E-1,3.186283456E0
1.122367876E1,-2.525181532E0,-2.909235954E0,-2.986612320E-1,3.863857417E0
1.123367042E1,-2.450061321E0,-3.533750057E0,5.056461096E-1,4.329649863E0
1.124366808E1,-2.413166761E0,-3.578324318E0,5.800389051E-1,4.354793207E0
1.125366886E1,-2.378033161E0,-3.643482208E0,6.751945019E-1,4.402941282E0
1.126366808E1,-2.514466286E0,-3.724742889E0,8.008658886E-1,4.564826006E0
1.127367954E1,-2.449031830E0,-4.369487762E0,1.916100740E0,5.362986319E0
1.128366964E1,-2.352024555E0,-4.398683548E0,1.980428815E0,5.366799303E0
1.129366730E1,-2.260210991E0,-4.436314583E0,2.023159504E0,5.374254849E0
1.130366756E1,-2.169065475E0,-4.459124565E0,2.064357519E0,5.371239046E0
1.131366600E1,-2.279120207E0,-4.439596176E0,3.616685390E0,6.163182322E0
1.132369886E1,-2.188716412E0,-4.359292030E0,3.751547098E0,6.153699064E0
1.133368334E1,-2.100602388E0,-3.643712997E0,4.749056339E0,6.343714284E0
1.134366907E1,-2.258322239E-1,-3.497112274E0,4.850357056E0,5.983874833E0
1.135366761E1,8.204472065E-1,-2.220792770E0,5.846532822E0,6.307693729E0
1.136366761E1,1.988117695E0,-1.254915237E0,5.898615837E0,6.349889213E0
1.137367745E1,3.152982712E0,1.269254684E-1,6.432061672E0,7.164413961E0
1.138366990E1,4.199664116E0,1.200447083E-1,6.334402084E0,7.601068292E0
1.139366912E1,4.974933624E0,1.694439888E0,6.163395882E0,8.099909869E0
1.140366834E1,5.022325516E0,2.379013062E0,5.879995346E0,8.090599607E0
1.141367172E1,5.009443283E0,2.546134949E0,4.728444099E0,7.344079846E0
1.142367381E1,4.799510002E0,2.527685165E0,4.402106285E0,6.985916425E0
1.143365954E1,4.466226578E0,2.401874542E0,3.486538887E0,6.154034008E0
1.144367459E1,3.130293369E0,1.872663498E-1,3.150527477E0,4.445180384E0
1.145366964E1,2.800960541E0,1.517076492E-1,2.052199125E0,3.475617414E0
1.146366834E1,1.447697878E0,2.185297012E-1,1.727325082E0,2.264340150E0
1.147367329E1,5.987718105E-1,2.867746353E-1,-3.860186934E-1,7.679699240E-1
1.148366860E1,-3.332331181E-1,3.551483154E-1,-4.874781668E-1,6.890642931E-1
1.149368058E1,-1.438310027E0,4.231309891E-1,-5.755302906E-1,1.605929850E0
1.150366610E1,-3.551640511E0,3.220312119E0,-8.267091513E-1,4.864977747E0
1.151365980E1,-3.555848598E0,4.927013397E0,-8.667590022E-1,6.137653578E0
1.152372563E1,-3.552334547E0,6.151568413E0,-8.665611148E-1,7.156242229E0
1.153366657E1,-3.505380154E0,6.885246277E0,-8.600805998E-1,7.773933686E0
1.154366704E1,-3.437133312E0,6.876920700E0,-7.813830376E-1,7.727644089E0
1.155367016E1,-3.542607784E0,6.676007271E0,-9.056156278E-1,7.611785773E0
1.156366865E1,-3.411534071E0,4.628388405E0,-8.306048512E-1,5.809513608E0
1.157367537E1,-3.222089052E0,2.309628487E0,-7.603282928E-1,4.036624917E0
1.158366756E1,-1.952605963E0,-2.351401329E0,-2.601041317E0,4.013374414E0
1.159366756E1,-1.857199311E0,-3.736817360E0,-4.216753960E0,5.932453727E0
1.160366990E1,-2.858131170E0,-3.910196304E0,-5.435505867E0,7.280334673E0
1.161366626E1,-2.693164587E0,-3.973769665E0,-6.201035023E0,7.841990576E0
1.162367537E1,-2.533114433E0,-3.892506123E0,-6.256113052E0,7.791484016E0
1.163366756E1,-2.386693478E0,-2.808416367E0,-6.252641678E0,7.258032529E0
1.164366990E1,-2.460969687E0,-1.678911209E0,-6.189112186E0,6.868786232E0
1.165366860E1,-1.219674110E0,3.517818451E-2,-5.973421097E0,6.096769804E0
1.166366756E1,-1.005491018E0,3.639602661E-2,-4.825125694E0,4.928912134E0
1.167370063E1,1.654853821E-1,1.293642044E0,-3.873690844E0,4.087343379E0
1.168366876E1,3.344988823E-1,1.419142723E0,-2.857065201E0,3.207596785E0
1.169365745E1,1.261982203E0,2.017839432E0,-1.792102098E0,2.979245707E0
1.170365396E1,1.340072870E0,1.992238045E0,-8.435848951E-1,2.544885695E0
1.171366683E1,1.399266005E0,1.890809059E0,-5.398886800E-1,2.413417501E0
1.172367433E1,1.394256353E0,1.087755203E0,8.395421505E-1,1.957547747E0
1.173367016E1,1.261476517E0,5.693626404E-2,9.944944382E-1,1.607353081E0
1.174367042E1,2.891676426E-1,-1.127433777E-2,9.121909738E-1,9.569939440E-1
1.175367068E1,1.101605892E-1,1.382541656E-2,9.616753459E-1,9.680629982E-1
1.176366782E1,-1.131065607E0,5.802059174E-2,1.045029998E0,1.541026766E0
1.177367224E1,-2.098505735E0,7.772922516E-2,-4.041791558E-1,2.138487537E0
1.178367329E1,-2.268504858E0,-2.235412598E-3,-5.517227054E-1,2.334634282E0
1.179366834E1,-2.237822533E0,1.787090302E-2,-6.880389452E-1,2.341274577E0
1.180366730E1,-2.206527472E0,3.803539276E-2,-1.321817636E0,2.572433097E0
1.181369256E1,-2.168864727E0,5.692195892E-2,-1.355077505E0,2.558016685E0
1.182367277E1,-2.088903666E0,6.647872925E-2,-1.366136551E0,2.496851422E0
1.183366678E1,-4.655957222E-1,-2.403450012E-2,-1.362997055E0,1.440526989E0
1.184366547E1,-3.619960546E-1,-9.891510010E-3,-1.273152232E0,1.323652368E0
1.185368527E1,-2.437723875E-1,4.999160767E-3,-1.168272734E0,1.193445076E0
1.186366589E1,-1.226940155E-1,2.058792114E-2,-1.069947720E0,1.077156352E0
1.187367985E1,-8.986473083E-3,3.780364990E-2,-9.816849828E-1,9.824537028E-1
1.188365912E1,9.315645695E-2,-4.439735413E-2,-9.299859405E-1,9.356939136E-1
1.189366605E1,1.509922743E-1,-2.155399323E-2,-9.060645103E-1,9.188123521E-1
1.190366964E1,1.699247360E-1,1.803398132E-3,-9.060668945E-1,9.218648955E-1
1.191369412E1,1.786280870E-1,2.587604523E-2,-9.013527632E-1,9.192466301E-1
1.192367381E1,1.730533838E-1,5.060672760E-2,-8.833186626E-1,9.015322370E-1
1.193367042E1,1.278215647E-1,-2.338695526E-2,-8.496335745E-1,8.595129510E-1
1.194366860E1,-6.208205223E-2,2.229022980E-2,-7.409569025E-1,7.438872004E-1
1.195366678E1,-8.607968092E-1,4.777240753E-2,-6.468939781E-1,1.077833553E0
1.196366886E1,-9.526791573E-1,7.290172577E-2,-5.582804680E-1,1.106611639E0
1.197367641E1,-2.069724083E0,-1.935958862E-3,-4.594796896E-1,2.120113939E0
1.198367068E1,-2.032329798E0,2.298355103E-2,-3.515400887E-1,2.062637410E0
1.199366808E1,-1.994822383E0,4.758167267E-2,-2.463700771E-1,2.010541860E0
1.200366808E1,-1.955929995E0,7.174968719E-2,-1.426881552E-1,1.962439826E0
1.201369047E1,-1.912591100E0,9.467983246E-2,-5.635464191E-2,1.915762206E0
1.202367954E1,-2.038381815E0,1.130485535E-2,9.326696396E-3,2.038434500E0
1.203370657E1,-1.962322831E0,2.715969086E-2,3.634512424E-2,1.962847297E0
1.204368417E1,-8.214805126E-1,3.590488434E-2,2.481913567E-2,8.226392787E-1
1.205367568E1,-6.540929079E-1,4.504013062E-2,-3.631353378E-2,6.566466464E-1
1.206365547E1,1.112439632E-1,5.494213104E-2,-1.379699707E-1,1.855520680E-1
1.207366787E1,2.692977190E-1,-3.418540955E-2,-8.822442293E-1,9.230627193E-1
1.208367042E1,9.566501379E-1,-2.264881134E-2,-9.332960844E-1,1.336687711E0
1.209367693E1,1.061124802E0,-1.051807404E-2,-9.721490145E-1,1.439156066E0
1.210368032E1,1.119538784E0,7.818222046E-3,-9.962764978E-1,1.498664430E0
1.211372042E1,1.144970536E0,3.105449677E-2,-9.976239204E-1,1.518938905E0
1.212367902E1,1.213909507E0,-2.506256104E-2,-1.019591451E0,1.585487669E0
1.213368006E1,1.200410962E0,7.097244263E-3,-1.022263169E0,1.576724084E0
1.214367902E1,1.172980905E0,3.967380524E-2,-1.043757677E0,1.570633089E0
1.215367771E1,1.128709793E0,7.254314423E-2,-1.077267766E0,1.561971237E0
1.216367667E1,1.060042143E0,5.847930908E-3,-1.146265268E0,1.561296771E0
1.217368058E1,9.796904325E-1,3.920650482E-2,-1.880210161E0,2.120500116E0
1.218367928E1,9.091833830E-1,7.253265381E-2,-1.894182682E0,2.102332857E0
1.219368006E1,8.488084078E-1,1.056413651E-1,-1.887747049E0,2.072492396E0
1.220368058E1,8.121371269E-1,1.386404037E-1,-1.848227143E0,2.023544279E0
1.221367547E1,8.159688711E-1,7.185077667E-2,-1.749952435E0,1.932175266E0
1.222368891E1,8.450853825E-1,1.052398682E-1,-1.594796062E0,1.807932303E0
1.223367032E1,8.966317177E-1,1.535904884E0,-7.906277180E-1,1.946289917E0
1.224365391E1,1.460801840E0,1.633410454E0,-6.838850975E-1,2.295576301E0
1.225366709E1,1.460754156E0,2.314788818E0,-5.685218573E-1,2.795579918E0
1.226368240E1,1.432348967E0,2.427354813E0,-4.456925392E-1,2.853474512E0
1.227367303E1,1.350674152E0,3.174698830E0,2.653543949E-1,3.460266793E0
1.228367589E1,1.197747946E0,3.276567459E0,3.746631145E-1,3.508684498E0
1.229366912E1,8.161902428E-2,3.975684166E0,4.842482805E-1,4.005898482E0
1.230367120E1,-2.336493731E0,4.092607498E0,1.979179502E0,5.111339412E0
1.231367120E1,-2.300572872E0,4.124454498E0,2.010301590E0,5.132745165E0
1.232366912E1,-2.259376287E0,4.099555016E0,2.011435986E0,5.094801984E0
1.233366938E1,-2.217249632E0,4.021551132E0,2.011067152E0,5.013328289E0
1.234367172E1,-2.169799805E0,3.895212173E0,2.004424095E0,4.888601541E0
1.235366782E1,-3.307566166E0,3.038949966E0,1.961138248E-1,4.495961685E0
1.236366626E1,-3.330952168E0,2.892663002E0,5.054163933E-2,4.411949234E0
1.237366834E1,-3.299149990E0,2.089225769E0,-9.445548058E-2,3.906171631E0
1.238367016E1,-3.261938334E0,1.970941544E0,-2.217625380E-1,3.817594908E0
1.239366761E1,-3.205750942E0,1.841615677E0,-3.034683466E-1,3.709512157E0
1.240368501E1,-3.137967110E0,1.732028008E0,-3.259609938E-1,3.599028920E0
1.241366464E1,-3.065393925E0,1.634972572E0,-3.157418966E-1,3.488476483E0
1.242367657E1,-2.958205223E0,1.561860085E0,-2.429345846E-1,3.354012862E0
1.243365704E1,-2.828363419E0,1.506853104E0,-1.693511009E-1,3.209193933E0
1.244367016E1,-2.721154213E0,1.458810806E0,-1.311599016E-1,3.090309392E0
1.245366756E1,-2.596699953E0,1.435666084E0,-1.168949604E-1,2.969453179E0
1.246367042E1,-2.472994328E0,1.409999847E0,-1.282868385E-1,2.849606644E0
1.247367277E1,-2.346504688E0,1.362725258E0,-1.769331694E-1,2.719266395E0
1.248366834E1,-2.115422010E0,-2.006540298E-1,-3.044079542E-1,2.146610473E0
1.249367355E1,-9.461181164E-1,-2.870521545E-1,-3.438612223E-1,1.046794617E0
1.250367355E1,-8.227848411E-1,-2.725095749E-1,-3.974214792E-1,9.535094101E-1
1.251366886E1,-7.028841376E-1,-2.571411133E-1,-4.584972858E-1,8.777171664E-1
1.252366938E1,-5.873485804E-1,-2.409706116E-1,-5.310335159E-1,8.276725110E-1
1.253367199E1,1.118961811E0,-2.240476608E-1,-6.232322454E-1,1.300265865E0
1.254366730E1,1.302608728E0,-3.060283661E-1,-1.340582490E0,1.894097218E0
1.255366626E1,2.033607483E0,-2.844552994E-1,-1.392211318E0,2.480872138E0
1.256366938E1,2.079888582E0,-2.626190186E-1,-1.448765159E0,2.548298599E0
1.257378339E1,2.090448618E0,-2.404422760E-1,-1.479568362E0,2.572335602E0
1.258367308E1,2.045224428E0,-2.179117203E-1,-1.482661605E0,2.535490863E0
1.259367818E1,1.888160229E0,-2.920570374E-1,-1.436846852E0,2.390601439E0
1.260367240E1,1.098209143E0,-2.656345367E-1,-1.356992483E0,1.765801129E0
1.261366917E1,9.689447880E-1,-2.350740433E-1,-1.195504189E0,1.556709373E0
1.262367146E1,8.125126958E-1,-2.068983078E0,-2.041516304E-1,2.232161676E0
1.263367146E1,-5.999687314E-1,-2.158200264E0,-1.929199696E-2,2.240125675E0
1.264367016E1,-7.975280285E-1,-2.801973343E0,1.674741030E0,3.360336752E0
1.265367068E1,-7.938488722E-1,-2.857555389E0,1.750898480E0,3.444047666E0
1.266366964E1,-7.479953170E-1,-2.935181618E0,1.865338683E0,3.557284994E0
1.267367251E1,-7.381214499E-1,-2.902710438E0,1.905182362E0,3.549686041E0
1.268367068E1,-9.278045893E-1,-2.803254128E0,1.751746297E0,3.433317659E0
1.269367198E1,8.871185780E-1,-2.148457050E0,1.738376617E0,2.902550660E0
1.270366912E1,9.980572462E-1,-2.051146507E0,1.726215601E0,2.860618912E0
1.271366860E1,1.758647680E0,-1.350385666E0,1.713384032E0,2.802154163E0
1.272366756E1,1.884381652E0,-1.267266273E0,1.701410770E0,2.837544119E0
1.273366938E1,2.651642799E0,-2.017488480E-1,1.489287496E0,3.047931984E0
1.274366860E1,2.749572277E0,-1.900320053E-1,1.478007555E0,3.127421654E0
1.275374865E1,2.780367374E0,-1.728630066E-1,1.467259049E0,3.148519251E0
1.276366693E1,2.773602486E0,-1.549978256E-1,1.456788063E0,3.136738200E0
1.277381084E1,2.670376301E0,-1.346054077E-1,1.443032265E0,3.038317021E0
1.278366943E1,2.499254227E0,-1.641156197E0,1.231012225E0,3.233427972E0
1.279366969E1,1.584978580E0,-1.747046471E0,1.220235586E0,2.655805595E0
1.280367225E1,7.207728624E-1,-2.438234329E0,1.210787654E0,2.816115570E0
1.281367042E1,-1.233340740E0,-2.488351822E0,1.202517271E0,3.026395869E0
1.282367146E1,-1.260571957E0,-2.486269951E0,1.195635915E0,3.033170811E0
1.283367094E1,-1.484755874E0,-2.370119095E0,9.905664325E-1,2.967016411E0
1.284366704E1,-3.111057281E0,-1.169195175E-1,1.026513696E0,3.278121101E0
1.285366808E1,-3.194793701E0,1.469905853E0,1.023697734E0,3.662688502E0
1.286367199E1,-3.161744356E0,2.820380211E0,1.022582650E0,4.358537276E0
1.287366990E1,-1.562233925E0,3.909834862E0,8.238888979E-1,4.290241998E0
1.288366990E1,-1.468557119E0,4.580373764E0,8.265367746E-1,4.880537560E0
1.289367277E1,-1.373211145E0,4.605937004E0,8.303692937E-1,4.877486822E0
1.290366808E1,4.237816334E-1,4.512668610E0,8.316059709E-1,4.608181566E0
1.291366938E1,1.239854932E0,3.523484230E0,8.290391564E-1,3.826158294E0
1.292366912E1,1.425445080E0,2.406483650E0,6.231787205E-1,2.865555610E0
1.293371391E1,2.160600185E0,1.176594734E0,6.215418577E-1,2.537495342E0
1.294367745E1,2.211639404E0,-2.661476135E-1,6.223446131E-1,2.312897798E0
1.295368105E1,2.189088821E0,-2.531719208E-1,-1.029099703E0,2.432129126E0
1.296366839E1,1.483994126E0,-1.826764107E0,-1.176296711E0,2.631155568E0
1.297366631E1,7.712646723E-1,-1.903266907E0,-1.981422663E0,2.853648521E0
1.298367094E1,-2.619934082E-2,-1.935004234E0,-2.092333794E0,2.850050613E0
1.299367303E1,-1.133969307E0,-1.927440643E0,-2.193125486E0,3.132205808E0
1.300367068E1,-1.117037773E0,-1.890015602E0,-2.284589767E0,3.168482723E0
1.301367251E1,-1.104879022E0,-1.818544388E0,-2.278803349E0,3.117820720E0
1.302367094E1,-1.257749319E0,-2.462291718E-1,-2.109734058E0,2.468509662E0
1.303367641E1,-1.249657631E0,-2.165412903E-1,-1.175446153E0,1.729221785E0
1.304366912E1,-1.210444093E0,-1.902837753E-1,-9.560542107E-1,1.554162949E0
1.305367042E1,-1.131701469E0,-1.685533524E-1,8.913058639E-1,1.450373949E0
1.306367120E1,-1.269779205E-1,-2.460346222E-1,8.012577891E-1,8.477443437E-1
1.307366704E1,1.147878170E-2,1.006156921E0,9.088799953E-1,1.355930072E0
1.308366808E1,1.416800022E-1,1.032974243E0,1.008435488E0,1.450534778E0
1.309366834E1,2.391089201E-1,1.019568443E0,1.078129053E0,1.503015350E0
1.310367068E1,3.176925182E-1,9.630355835E-1,1.140691042E0,1.526283763E0
1.311370928E1,3.940116763E-1,8.675489426E-1,9.379710555E-1,1.337040040E0
1.312367751E1,4.248625040E-1,-2.466163635E-1,9.364842176E-1,1.057511451E0
1.313368698E1,4.715309143E-1,-2.288751602E-1,9.348461628E-1,1.071756778E0
1.314366735E1,5.419446230E-1,-2.106781006E-1,9.331191778E-1,1.099454700E0
1.315367438E1,1.158381462E0,-1.920175552E-1,9.329174161E-1,1.499684386E0
1.316367433E1,1.217734337E0,-2.727432251E-1,-6.966675520E-1,1.429199587E0
1.317367303E1,1.319961429E0,-2.531375885E-1,-7.516540885E-1,1.539922297E0
1.318366964E1,2.140411854E0,-2.329883575E-1,-7.877612710E-1,2.292643518E0
1.319367172E1,2.182463646E0,-2.123527527E-1,-7.975002527E-1,2.333291219E0
1.320367016E1,2.276369095E0,-2.684793472E-1,-6.993198395E-1,2.396452723E0
1.321366964E1,2.280028582E0,-2.438745499E-1,6.249052882E-1,2.376659788E0
1.322366860E1,2.268723726E0,-2.185602188E-1,6.373959184E-1,2.366674771E0
1.323367042E1,2.215248585E0,-1.885843277E-1,6.506678462E-1,2.316518721E0
1.324366808E1,2.148501396E0,-1.580257416E-1,6.631875634E-1,2.254073674E0
1.325367928E1,2.055284739E0,-2.265100479E-1,4.770822525E-1,2.122053165E0
1.326367928E1,1.944319367E0,-1.942768097E-1,4.935392439E-1,2.015366534E0
1.327368084E1,1.798828959E0,-1.615285873E-1,5.107921958E-1,1.876908569E0
1.328367928E1,1.644888043E0,-1.287307739E-1,1.537154794E0,2.255010676E0
1.329368381E1,1.498885036E0,-9.590625763E-2,1.566477299E0,2.170185588E0
1.330367829E1,1.340608001E0,-1.629438400E-1,1.598025322E0,2.092239335E0
1.331368282E1,5.591990948E-1,-1.300230026E-1,1.633041501E0,1.731021130E0
1.332365771E1,4.007842541E-1,-9.727191925E-2,1.669604540E0,1.719787535E0
1.333368006E1,-3.219110966E-1,-6.472396851E-2,1.697632313E0,1.729095548E0
1.334367074E1,-4.668524265E-1,-3.356838226E-2,1.612285137E0,1.678851211E0
1.335368266E1,-6.148303747E-1,-1.027040482E-1,1.461636066E0,1.589007395E0
1.336367928E1,-1.263622642E0,2.191499710E0,1.289828420E0,2.839554633E0
1.337367980E1,-2.322007895E0,3.563740730E0,1.139799356E0,4.403533948E0
1.338367928E1,-2.248584032E0,4.834564209E0,1.339772046E-1,5.333581454E0
1.339367745E1,-1.236229658E0,4.904703140E0,-7.671163976E-2,5.058681779E0
1.340367511E1,-3.809287548E-1,4.846135139E0,-8.544120193E-2,4.861834294E0
1.341368735E1,-1.978297234E-1,4.072021484E0,-9.220360965E-2,4.077866731E0
1.342368162E1,8.402698040E-1,2.812675476E0,-9.616986662E-2,2.937081089E0
1.343365797E1,9.870543480E-1,1.394265175E0,8.657481670E-1,1.915142698E0
1.344367954E1,1.699802637E0,-1.983976364E-1,9.034129381E-1,1.935160346E0
1.345367771E1,1.785887718E0,-1.849508286E-1,9.090148211E-1,2.012438743E0
1.346367928E1,1.847064257E0,-1.925611496E0,8.918515444E-1,2.813365454E0
1.347368324E1,1.881743670E0,-2.049643993E0,8.647750616E-1,2.913732253E0
1.348368719E1,1.857989788E0,-2.784358978E0,8.291978240E-1,3.448528672E0
1.349368704E1,1.812570810E0,-2.842075348E0,7.803881168E-1,3.460030468E0
1.350367386E1,1.727516174E0,-2.917832375E0,7.119545937E-1,3.464814171E0
1.351366657E1,1.616731405E0,-3.583906651E0,6.185389757E-1,3.980049972E0
1.352367016E1,1.484357357E0,-3.625563622E0,-4.267968833E-1,3.940835434E0
1.353368318E1,1.310268641E0,-3.675101280E0,-4.161819816E-1,3.923822215E0
1.354367172E1,4.245197773E-1,-3.738817215E0,-6.044706702E-1,3.811083310E0
1.355367068E1,2.252650261E-1,-4.331170082E0,-5.933299065E-1,4.377421500E0
1.356367303E1,-1.476115704E0,-4.364973545E0,-5.418541431E-1,4.639560058E0
1.357366886E1,-2.611706734E0,-4.388326168E0,-5.288478136E-1,5.134013891E0
1.358367511E1,-2.843597412E0,-4.436083317E0,-6.770805120E-1,5.312562419E0
1.359366626E1,-2.871131420E0,-4.493816376E0,-6.259152293E-1,5.369315704E0
1.360366938E1,-2.868363857E0,-5.089985847E0,-5.740839243E-1,5.870693272E0
1.361367224E1,-2.866940737E0,-5.104328156E0,1.261463881E0,5.988723255E0
1.362366782E1,-2.829090834E0,-5.139170647E0,1.361192942E0,6.022265031E0
1.363367433E1,-2.965355873E0,-5.180259705E0,1.413941383E0,6.134138595E0
1.364367407E1,-2.860956430E0,-5.217442036E0,1.366828203E0,6.105324924E0
1.365367136E1,-2.757889986E0,-5.230159760E0,1.208599091E0,6.035001247E0
1.366366100E1,-2.654645681E0,-5.202205181E0,-5.056257844E-1,5.862229940E0
1.367368214E1,-1.099021435E0,-5.131795883E0,-4.604524374E-1,5.268319803E0
1.368367021E1,-9.311580658E-1,-5.011487007E0,-6.148409247E-1,5.134207507E0
1.369367016E1,-8.561110497E-2,-4.134568214E0,-1.993287563E0,4.590771056E0
1.370367016E1,2.921748161E-2,-4.028451920E0,-2.065365076E0,4.527141640E0
1.371366938E1,1.332089901E-1,-3.368874550E0,-2.077605724E0,3.960240638E0
1.372367641E1,1.422548294E-1,-3.303599834E0,-1.969071507E0,3.848538801E0
1.373367667E1,4.367303848E-2,-3.114740372E0,-5.281857848E-1,3.159508687E0
1.374366860E1,-1.109507084E-1,-2.383646965E0,6.384574175E-1,2.470164122E0
1.375366990E1,-2.647523880E-1,-2.288011074E0,7.755653858E-1,2.430347747E0
1.376367172E1,-9.541180134E-1,-2.155623913E0,1.530791521E0,2.810761163E0
1.377367407E1,-1.019989729E0,-1.345841408E0,1.621322036E0,2.341015439E0
1.378367485E1,-1.075038552E0,-1.247110367E0,1.730680704E0,2.388775388E0
1.379367120E1,-1.144427538E0,3.208894730E-1,2.415167093E0,2.691786866E0
1.380366990E1,-1.227034450E0,3.490056992E-1,2.410239458E0,2.727026359E0
1.381366938E1,-1.308379889E0,3.767051697E-1,2.380238056E0,2.742133826E0
1.382368475E1,-1.363668323E0,1.597422600E0,2.252147198E0,3.079531987E0
1.383366917E1,-1.375658631E0,2.325601578E0,2.037208557E0,3.383944159E0
1.384366058E1,-1.380576611E0,2.477988243E0,9.446446896E-1,2.989777768E0
1.385367131E1,-1.361114025E0,3.637951851E0,7.310269475E-1,3.952432853E0
1.386366527E1,-1.338325858E0,4.829538345E0,-8.725915551E-1,5.086941395E0
1.387367047E1,-1.262522697E0,7.058862686E0,2.512264252E-2,7.170923032E0
1.388368058E1,-2.774634361E-1,1.003453445E1,1.075806618E0,1.009585200E1
1.389367485E1,1.461647511E0,1.204826260E1,1.051537275E0,1.218206779E1
1.390367667E1,3.191282749E0,1.277485943E1,8.869377375E-1,1.319727159E1
1.391367537E1,5.408319473E0,1.169033051E1,1.414890289E-1,1.288152809E1
1.392366990E1,5.570137978E0,1.062683010E1,6.318747997E-2,1.199833104E1
1.393367797E1,5.660148621E0,8.880281448E0,-1.220310569E0,1.060121875E1
1.394366860E1,5.563868523E0,5.987127304E0,-1.155243278E0,8.254508666E0
1.395367146E1,4.041680813E0,2.238002777E0,-3.978197575E0,6.096711914E0
1.396366756E1,1.964926481E0,-3.093051910E-2,-5.234890461E0,5.591598243E0
1.397366782E1,-4.231333733E-2,-2.338760853E0,-5.283233166E0,5.777901473E0
1.398367381E1,-2.428136110E0,-2.989292145E0,-5.274220943E0,6.530629300E0
1.399367277E1,-2.436165333E0,-2.985569000E0,-5.239622593E0,6.504011739E0
1.400370532E1,-2.446956158E0,-2.889502048E0,-5.158870697E0,6.399278350E0
1.401366803E1,-2.674179077E0,-1.892231941E0,-5.056355476E0,6.024824160E0
1.402367074E1,-2.727558613E0,9.898185730E-2,-4.826334476E0,5.544626035E0
1.403365730E1,-2.733906031E0,1.247262955E-1,-3.791327953E0,4.675892052E0
1.404368063E1,-1.694975495E0,1.284688950E0,-2.905615091E0,3.600828611E0
1.405367511E1,-9.809367657E-1,2.025621414E0,-2.029263973E0,3.030394582E0
1.406367412E1,-8.068740368E-1,2.113979340E0,-1.773390651E0,2.874868477E0
1.407366964E1,2.053141594E-2,2.156526566E0,-1.368522048E-1,2.160962029E0
1.408367745E1,9.318900108E-2,2.119982719E0,1.551201846E-2,2.122086601E0
1.409367068E1,7.248115540E-2,8.102130890E-2,1.780678481E-1,2.086291660E-1
1.410367277E1,-1.227259636E-2,-7.365226746E-3,7.217113674E-2,7.357673657E-2
1.411367042E1,-8.860428333E-1,-1.057339668E0,1.594790816E-1,1.388694586E0
1.412367303E1,-9.651981592E-1,-1.840644836E0,1.938596219E-1,2.087381722E0
1.413367615E1,-2.402200937E0,-1.979368687E0,2.269632518E-1,3.120894432E0
1.414367016E1,-2.330628633E0,-2.663413048E0,2.602162957E-1,3.548705597E0
1.415366860E1,-2.459666967E0,-2.677502155E0,9.271346033E-2,3.636973353E0
1.416366886E1,-2.398446321E0,-2.648181915E0,1.260339618E-1,3.575093953E0
1.417366938E1,-2.338439941E0,-2.563219070E0,1.595052779E-1,3.473303226E0
1.418368709E1,-5.525760651E-1,-1.901663303E0,1.936901808E-1,1.989768708E0
1.419368334E1,-3.832635880E-1,-1.782139301E0,2.283614725E-1,1.837133754E0
1.420367334E1,8.397350311E-1,-6.923675537E-3,6.208875775E-2,8.420557426E-1
1.421366818E1,1.009507179E0,1.135158539E-2,9.730339795E-2,1.014249257E0
1.422367303E1,2.034420013E0,2.962017059E-2,1.325184554E-1,2.038946612E0
1.423367667E1,2.101674795E0,1.338883400E0,1.677247882E-1,2.497554265E0
1.424367042E1,2.120738745E0,1.448041916E0,2.014006674E-1,2.575833931E0
1.425366938E1,2.067810297E0,1.553894043E0,3.558996320E-2,2.586830641E0
1.426367016E1,1.926719427E0,1.639618874E0,7.030647248E-2,2.530916988E0
1.427367094E1,2.494146824E-1,1.612349510E0,1.450202167E-1,1.637958940E0
1.428367355E1,-4.942369461E-1,1.483787537E0,1.793563366E-1,1.574186872E0
1.429367146E1,-6.710066795E-1,-2.188682556E-3,1.284322143E-2,6.711331482E-1
1.430367016E1,-2.508554459E0,2.369213104E-2,4.657988250E-2,2.509098737E0
1.431366886E1,-2.484949827E0,4.928302765E-2,8.203383535E-2,2.486791911E0
1.432366964E1,-2.460334301E0,-1.234676361E0,1.176156402E-1,2.755268413E0
1.433367251E1,-2.434771061E0,-1.307204247E0,-1.287533522E0,3.048710487E0
1.434366990E1,-2.582455397E0,-1.356649399E0,-1.362658978E0,3.219691438E0
1.435366964E1,-2.505612850E0,-1.342237473E0,-1.413161635E0,3.174385452E0
1.436366938E1,-2.437072754E0,-1.205709457E0,-1.371983528E0,3.045553760E0
1.437368469E1,-2.309861183E0,6.098365784E-2,-1.251953244E0,2.628034364E0
1.438369521E1,-6.173863411E-1,1.430814743E0,1.612107754E-1,1.566647898E0
1.439365693E1,-4.452410936E-1,2.770999908E0,2.238936722E-3,2.806543272E0
1.440366839E1,-2.531414032E-1,3.858894348E0,1.695173144E0,4.222411414E0
1.441366605E1,5.060551167E-1,4.722241402E0,2.685710192E0,5.456069544E0
1.442367485E1,6.304945946E-1,4.836369514E0,3.351413250E0,5.917766833E0
1.443367568E1,7.931742668E-1,4.855581284E0,3.420054436E0,5.991875112E0
1.444367172E1,1.513625145E0,4.716575623E0,3.368423939E0,5.990277666E0
1.445366912E1,1.521494269E0,1.483728409E0,1.764634013E0,2.762304835E0
1.446366886E1,1.471699595E0,-1.144027710E-1,-5.556597561E-2,1.477184914E0
1.447367303E1,1.435350418E0,-2.080679417E0,-7.859601080E-2,2.528959270E0
1.448368058E1,1.404263496E0,-3.495254517E0,-2.973595262E-1,3.778515951E0
1.449368006E1,1.364702940E0,-4.562589169E0,-3.126016855E-1,4.772562608E0
1.450367824E1,1.313161612E0,-4.694113255E0,-3.245437443E-1,4.885122445E0
1.451368605E1,1.256107330E0,-5.288723469E0,-3.333898187E-1,5.446058237E0
1.452372902E1,1.202435017E0,-5.203249454E0,-3.417246342E-1,5.351301765E0
1.453368605E1,1.179999590E0,-4.495119095E0,1.300303221E0,4.825897137E0
1.454366777E1,1.117324352E0,-4.316394329E0,1.996355653E0,4.885192893E0
1.455368146E1,1.001511335E0,-3.182068348E0,2.098950386E0,3.941341986E0
1.456366641E1,8.535423279E-1,-3.034484386E0,2.120095730E0,3.798872978E0
1.457365709E1,6.733388901E-1,-2.330698490E0,2.045657873E0,3.173366800E0
1.458366657E1,-1.868774891E-1,-2.290570736E0,1.902321458E0,2.983364614E0
1.459367094E1,-3.410046101E-1,-2.294908047E0,8.124591112E-1,2.458246711E0
1.460367407E1,-1.116467237E0,-2.373917103E0,6.638277769E-1,2.706039324E0
1.461368006E1,-1.271811843E0,-3.208516598E0,-4.824886024E-1,3.484950412E0
1.462371574E1,-2.564123392E0,-3.316777706E0,-4.785498977E-1,4.219567884E0
1.463368240E1,-2.726481676E0,-4.309377193E0,-6.336505413E-1,5.138671729E0
1.464367928E1,-2.697731972E0,-4.967670441E0,-6.285919547E-1,5.687761884E0
1.465368110E1,-2.665151358E0,-4.996367931E0,-2.063165903E0,6.026887904E0
1.466367928E1,-2.604738474E0,-4.997805119E0,-2.085749865E0,6.009415198E0
1.467368214E1,-2.741162062E0,-4.962533474E0,-2.024272919E0,6.019832953E0
1.468367719E1,-2.630193472E0,-4.880313396E0,-1.914139509E0,5.865092208E0
1.469368032E1,-2.529711962E0,-4.198221684E0,-6.319634318E-1,4.942052781E0
1.470368006E1,-2.428597212E0,-4.098661900E0,-5.770640969E-1,4.798970385E0
1.471368318E1,-2.328057051E0,-3.444499016E0,-5.223761797E-1,4.190143193E0
1.472381824E1,-2.427620411E0,-3.392335415E0,8.208140731E-1,4.251472235E0
1.473366902E1,-2.326088190E0,-3.342594147E0,9.638983607E-1,4.184820420E0
1.474384876E1,-2.225267887E0,-3.328790188E0,1.614976764E0,4.317500577E0
1.475369011E1,-6.681892872E-1,-3.351191998E0,1.615284204E0,3.779696785E0
1.476367594E1,-4.921562672E-1,-3.419559956E0,1.536586285E0,3.781098450E0
1.477367172E1,1.929695606E-1,-3.495270252E0,7.554554939E-1,3.581181982E0
1.478367225E1,2.768698931E-1,-3.489429951E0,5.775065422E-1,3.547716466E0
1.479367094E1,3.267041445E-1,-3.327153683E0,-6.311513782E-1,3.402210941E0
1.480366756E1,2.739253044E-1,-1.457685471E0,-6.295967698E-1,1.611295782E0
1.481368084E1,1.434096098E-1,3.356846809E0,-7.865229249E-1,3.450739794E0
1.482369620E1,2.989768982E-3,6.137777328E0,-7.819145918E-1,6.187383122E0
1.483367198E1,-1.087768078E-1,8.775601387E0,-7.762330770E-1,8.810536300E0
1.484367407E1,-6.329536438E-2,1.090805912E1,9.365059137E-1,1.094836990E1
1.485366886E1,9.954724312E-1,1.227181816E1,1.051156282E0,1.235691773E1
1.486367850E1,2.215373039E0,1.238220596E1,1.077578545E0,1.262489912E1
1.487366886E1,3.260151148E0,1.228134918E1,9.745860696E-1,1.274401590E1
1.488366756E1,3.970708132E0,1.078774738E1,-8.627755046E-1,1.152763628E1
1.489366912E1,4.101226807E0,8.696638107E0,-7.557378411E-1,9.644828426E0
1.490371443E1,4.200427055E0,6.402637482E0,-6.547673941E-1,7.685445629E0
1.491367141E1,4.163899422E0,4.174890518E0,-2.302866936E0,6.330163138E0
1.492369709E1,3.142465353E0,2.478329659E0,-2.968621492E0,4.982962970E0
1.493366704E1,1.659211874E0,1.317385674E0,-3.057354212E0,3.719664478E0
1.494366787E1,1.624209881E-1,1.167543411E0,-3.108454704E0,3.324459181E0
1.495367303E1,-1.044563413E0,1.100290298E0,-3.097286940E0,3.448903862E0
1.496367824E1,-2.168756247E0,1.105117798E0,-3.031816483E0,3.888020086E0
1.497367355E1,-2.157716513E0,1.142042160E0,-2.940325260E0,3.821716039E0
1.498366730E1,-2.172276020E0,1.217013359E0,-2.772005081E0,3.726112826E0
1.499367094E1,-9.101822376E-1,1.401343346E0,-1.948453784E0,2.566839891E0
1.500366834E1,-4.343724251E-2,1.407538414E0,-1.746605158E0,2.243586584E0
1.501368058E1,1.317720413E-1,1.339255333E0,-5.851482973E-2,1.346993951E0
1.502369672E1,1.047932625E0,-2.237892151E-2,6.687018275E-2,1.050302444E0
1.503367120E1,1.076204777E0,-3.474235535E-3,1.888057590E-1,1.092646515E0
1.504366938E1,1.046877384E0,1.621723175E-2,3.073194027E-1,1.091173896E0
1.505367042E1,9.381544590E-1,-6.388473511E-2,2.004934400E-1,9.614638151E-1
1.506367329E1,-5.381321907E-2,-1.666937828E0,2.877443731E-1,1.692446280E0
1.507366678E1,-8.078234196E-1,-1.784269333E0,3.182854652E-1,1.984313828E0
1.508367954E1,-2.106772900E0,-2.498066902E0,3.477163613E-1,3.286295325E0
1.509369042E1,-2.063864470E0,-2.546011925E0,3.784554005E-1,3.299233511E0
1.510373443E1,-2.220636129E0,-2.567428589E0,2.098731548E-1,3.401023540E0
1.511367334E1,-2.177576303E0,-2.531425953E0,2.415093184E-1,3.347877337E0
1.512369678E1,-2.134844780E0,-2.425746441E0,2.719144821E-1,3.242799025E0
1.513366938E1,-1.006776333E0,-1.548925400E0,3.037649691E-1,1.872175642E0
1.514367016E1,-2.832934856E-1,-1.395156860E0,3.357796073E-1,1.462691290E0
1.515366886E1,5.070221424E-1,-1.507854462E-2,1.683440059E-1,5.344516065E-1
1.516368032E1,1.329717636E0,5.406379700E-3,2.009799182E-1,1.344831271E0
1.517367016E1,2.216807127E0,4.578685760E-2,2.735885382E-1,2.234095111E0
1.518367303E1,3.120109081E0,6.611156464E-2,3.063148856E-1,3.135806153E0
1.519366808E1,3.169456005E0,-1.363182068E-2,1.395368278E-1,3.172555393E0
1.520367277E1,3.164033890E0,1.058959961E-2,1.716744304E-1,3.168705525E0
1.521367381E1,3.087390423E0,4.157161713E-2,2.038281113E-1,3.094390687E0
1.522369464E1,2.934636831E0,7.875251770E-2,2.359856963E-1,2.945162905E0
1.523367042E1,2.735087872E0,1.170606613E-1,2.683165669E-1,2.750709480E0
1.524366938E1,1.799874067E0,6.264686584E-2,9.961968660E-2,1.803717098E0
1.525366990E1,1.602907419E0,1.081047058E-1,1.327501833E-1,1.612024018E0
1.526369886E1,8.112404346E-1,1.533184052E-1,1.660261005E-1,8.421295875E-1
1.527368797E1,6.261992455E-1,1.981916428E-1,1.994594932E-1,6.864324524E-1
1.528367433E1,4.525187016E-1,2.426614761E-1,2.330459058E-1,5.638866566E-1
1.529367141E1,2.842407227E-1,1.869192123E-1,6.734468043E-2,3.467951648E-1
1.530366990E1,1.405980587E-1,2.306661606E-1,1.017189100E-1,2.886545139E-1
1.531367615E1,3.745245934E-2,2.645254135E-1,1.364382654E-1,2.999863020E-1
1.532368844E1,-5.302596092E-2,-1.172813416E0,1.712784469E-1,1.186439786E0
1.533367459E1,-1.212391853E-1,-1.191768646E0,2.064386010E-1,1.215577370E0
1.534366938E1,-1.807951927E-1,-1.136133194E0,4.225371778E-2,1.151204114E0
1.535367198E1,-2.887315750E-1,2.941970825E-1,1.181827784E-1,4.288181606E-1
1.536367433E1,-3.275046349E-1,1.493978500E0,1.542493701E-1,1.537213035E0
1.537367615E1,-3.740992546E-1,2.662538528E0,1.905954778E-1,2.695438425E0
1.538366938E1,-4.126701355E-1,3.750274658E0,2.756825089E-2,3.773011617E0
1.539367068E1,-4.441478252E-1,4.502453804E0,1.544165134E0,4.780565187E0
1.540366964E1,-4.546704292E-1,4.540641785E0,1.641272783E0,4.849528778E0
1.541367407E1,-4.662241936E-1,4.483671188E0,1.616117001E0,4.788789668E0
1.542369412E1,-4.409978390E-1,3.759275436E0,1.480541348E0,4.064312191E0
1.543370016E1,-4.324016571E-1,2.746236801E0,-7.493115962E-3,2.780079838E0
1.544367126E1,-4.432165623E-1,1.546364784E0,2.695413679E-2,1.608854093E0
1.545365922E1,-4.435057640E-1,1.719694138E-1,6.295932084E-2,4.798278004E-1
1.546367219E1,-4.348394871E-1,-9.813270569E-1,9.901374578E-2,1.077910893E0
1.547366553E1,-4.141709805E-1,-1.934776306E0,1.336707920E-1,1.983119975E0
1.548367120E1,-3.733057976E-1,-2.082665443E0,-3.099404648E-2,2.116084403E0
1.549366365E1,-3.154191971E-1,-2.839261532E0,4.407010972E-3,2.856731478E0
1.550367016E1,-2.567126751E-1,-2.886764526E0,1.569125414E0,3.295673739E0
1.551367850E1,-1.891176701E-1,-2.924876213E0,1.669166803E0,3.372948884E0
1.552369204E1,-8.779883385E-2,-2.990029335E0,2.269690514E0,3.754927308E0
1.553366834E1,-5.879449844E-2,-3.017842770E0,2.112401724E0,3.684165145E0
1.554367199E1,-6.079459190E-2,-3.074221611E0,1.273790717E0,3.328224344E0
1.555366990E1,-1.010107994E-1,-3.163338184E0,1.111629725E0,3.354494343E0
1.556367954E1,-1.536443233E-1,-3.966605663E0,-2.064202279E-1,3.974943569E0
1.557366730E1,-2.288436890E-1,-4.044390202E0,-4.143219590E-1,4.071992660E0
1.558367198E1,-3.173182011E-1,-4.685402870E0,-4.214473963E-1,4.715008887E0
1.559366834E1,-4.170033932E-1,-4.744385242E0,-4.277656674E-1,4.781847616E0
1.560367094E1,-5.313656330E-1,-4.807593822E0,-4.333151579E-1,4.856240297E0
1.561369907E1,-1.276201606E0,-4.849877357E0,-4.381992817E-1,5.034085769E0
1.562369261E1,-1.361297488E0,-4.859264851E0,-6.375672221E-1,5.086460233E0
1.563365797E1,-1.492493749E0,-4.825003624E0,-5.859595537E-1,5.084441578E0
1.564367079E1,-3.115960598E0,-4.757535458E0,-5.348449945E-1,5.712216141E0
1.565368089E1,-3.110133648E0,-4.649766922E0,-4.836692512E-1,5.614908698E0
1.566367047E1,-3.101001740E0,-3.978930950E0,-4.327672720E-1,5.063140409E0
1.567367094E1,-3.287454605E0,-3.868485928E0,-5.816064477E-1,5.109873503E0
1.568367042E1,-3.244831800E0,-3.740310192E0,-5.294723511E-1,4.979878986E0
1.569367120E1,-3.199732065E0,-2.960238457E0,-4.775453806E-1,4.385127889E0
1.570367146E1,-3.048160076E0,-2.847627640E0,-3.872065544E-1,4.189294922E0
1.571367954E1,-3.129390240E0,-2.785926819E0,-5.372814536E-1,4.224114448E0
1.572371443E1,-3.008500576E0,-2.744102955E0,-4.872336686E-1,4.101045402E0
1.573368318E1,-2.887030363E0,-2.724108219E0,-4.351530671E-1,3.993127609E0
1.574368058E1,-2.754801989E0,-2.721215248E0,-3.818300366E-1,3.890981958E0
1.575368136E1,-1.184966564E0,-2.749356270E0,-3.286728263E-1,3.011831915E0
1.576367850E1,-1.016219258E0,-2.794111729E0,-4.771850705E-1,3.011223593E0
1.577367928E1,-8.543330431E-1,-2.829425335E0,-4.238972664E-1,2.985836829E0
1.578367902E1,-7.234022617E-1,-2.817073345E0,-3.709193468E-1,2.932029029E0
1.579371912E1,-6.449112892E-1,-2.694317818E0,7.008938789E-1,2.857710850E0
1.580366459E1,-6.190565825E-1,-1.389984131E0,7.933188677E-1,1.715995851E0
1.581367725E1,-7.171162367E-1,2.619867325E-1,7.902948260E-1,1.098844237E0
1.582368969E1,-2.329470634E0,2.802734375E-1,6.709039211E-1,2.440307093E0
1.583366631E1,-2.280939817E0,3.188883781E0,-3.235354424E-1,3.933998145E0
1.584367016E1,-2.232488632E0,6.071346283E0,-2.739169896E-1,6.474587377E0
1.585367407E1,-2.183035851E0,9.771307945E0,-2.244826108E-1,1.001471402E1
1.586367902E1,-2.318117857E0,1.226578331E1,-3.730813265E-1,1.248848671E1
1.587367928E1,-8.733874559E-1,1.311611938E1,-3.199355006E-1,1.314905898E1
1.588367928E1,1.888757944E0,1.202350140E1,-1.829831362E0,1.230773233E1
1.589367615E1,3.166642189E0,1.073072624E1,-1.688580751E0,1.131491995E1
1.590368032E1,4.258131027E0,8.904037476E0,-2.927174866E-1,9.874170686E0
1.591368110E1,5.033079624E0,6.056045532E0,-2.338518798E-1,7.877960694E0
1.592371886E1,5.194475174E0,2.194327354E0,-2.574813843E0,6.198976625E0
1.593367589E1,5.086362839E0,-5.609512329E-3,-2.673909903E0,5.746382563E0
1.594368032E1,3.568323851E0,-1.744332314E0,-2.493497610E0,4.689686626E0
1.595366886E1,2.118915796E0,-1.760021210E0,-1.420915127E0,3.099431982E0
1.596367016E1,7.229347229E-1,-1.616276741E0,-1.348573089E0,2.225676188E0
1.597367511E1,-2.550859451E-1,2.367973328E-2,-1.386495829E0,1.409964628E0
1.598367730E1,-4.133538008E-1,5.793762207E-2,-1.424328566E0,1.484227070E0
1.599366115E1,-5.132287741E-1,1.471845627E0,-1.402410746E0,2.096780681E0
1.600368334E1,-5.041679144E-1,2.396853447E0,-1.359526277E0,2.801321729E0
1.601366735E1,3.095207214E-1,2.563507080E0,-1.318092823E0,2.899093016E0
1.602369542E1,1.129248381E0,2.647043228E0,-1.311043262E0,3.162415879E0
1.603367042E1,1.911214113E0,2.607725143E0,-1.294844389E0,3.482756351E0
1.604367667E1,1.994529963E0,2.446468353E0,-1.232614517E0,3.388612655E0
1.605367277E1,2.040452242E0,1.205630302E0,-1.100240588E0,2.612952187E0
1.606367277E1,1.893105984E0,1.132144928E-1,4.271992743E-1,1.944007975E0
1.607367120E1,9.161584377E-1,-1.025732994E0,5.019595623E-1,1.464048449E0
1.608366990E1,-4.649066925E-2,-1.158330917E0,5.753772259E-1,1.294198922E0
1.609368058E1,-9.860715866E-1,-1.957689285E0,4.477417469E-1,2.237265559E0
1.610366782E1,-2.666339159E0,-1.993730545E0,5.186138749E-1,3.369463807E0
1.611367277E1,-2.638383150E0,-2.021552086E0,5.403611064E-1,3.367451352E0
1.612369699E1,-2.619288206E0,-2.032357693E0,5.630306005E-1,3.362759574E0
1.613366886E1,-2.599539280E0,-2.020818233E0,5.861543417E-1,3.344381514E0
1.614367355E1,-2.788489103E0,-1.982106209E0,4.104837775E-1,3.445709424E0
1.615367771E1,-2.747402430E0,-1.905962467E0,4.357379675E-1,3.372058809E0
1.616366917E1,-2.683519602E0,-1.214340210E0,4.627745152E-1,2.981620340E0
1.617365964E1,-1.610663295E0,-1.069804192E0,4.906740785E-1,1.994862980E0
1.618367157E1,-3.424003124E-1,2.157344818E-1,5.186161995E-1,6.578313636E-1
1.619367516E1,-1.088080406E-1,1.175441742E-1,3.471153378E-1,3.822890011E-1
1.620367094E1,1.081027031E0,1.200876236E-1,3.756773174E-1,1.150727564E0
1.621366829E1,1.245859861E0,1.130003929E0,4.043156505E-1,1.729897922E0
1.622370063E1,1.407101870E0,1.114145279E0,4.321729839E-1,1.846084739E0
1.623367042E1,1.474568129E0,1.393518448E-1,4.576460719E-1,1.550229025E0
1.624367719E1,1.512534380E0,5.949974060E-2,2.840020061E-1,1.540116102E0
1.625367016E1,1.510649443E0,1.092319489E-1,-8.747135997E-1,1.749033230E0
1.626367225E1,1.475240946E0,1.396722794E-1,-9.604486823E-1,1.765872551E0
1.627367042E1,1.426977396E0,1.706590652E-1,-1.011492729E0,1.757414734E0
1.628367329E1,1.368372679E0,1.021900177E-1,-1.012622356E0,1.705371110E0
1.629367303E1,1.306301832E0,1.338386536E-1,-9.407619238E-1,1.615354531E0
1.630366704E1,1.236747503E0,1.655511856E-1,3.135471046E-1,1.286570390E0
1.631366730E1,1.127714634E0,1.968832016E-1,3.436828852E-1,1.195249437E0
1.632369282E1,9.650435448E-1,2.278232574E-1,3.740783930E-1,1.059786358E0
1.633366756E1,-1.311802864E-1,1.586647034E-1,2.052551657E-1,2.907102315E-1
1.634369803E1,-3.270733356E-1,1.892404556E-1,1.846567869E0,1.884834691E0
1.635367256E1,-1.344640017E0,2.194471359E-1,1.938027620E0,2.369000818E0
1.636369714E1,-1.445924282E0,2.492389679E-1,2.808760405E0,3.168903928E0
1.637366813E1,-1.541356564E0,1.803767204E0,2.923870564E0,3.765418337E0
1.638366501E1,-1.629798055E0,2.660960197E0,2.977132320E0,4.312802769E0
1.639367433E1,-1.656035304E0,2.827043533E0,2.893117666E0,4.370898981E0
1.640366938E1,-1.585186601E0,3.622069359E0,2.653508663E0,4.761650053E0
1.641367251E1,-1.422963023E0,3.601890564E0,1.640217304E0,4.205799829E0
1.642369490E1,-2.974181175E-1,2.622021675E0,1.406181693E0,2.990117415E0
1.643365824E1,3.708524704E-1,1.617612839E0,-1.124526486E-1,1.663384637E0
1.644367615E1,4.736602306E-1,1.649246216E-1,-1.286794692E-1,5.177958581E-1
1.645366938E1,5.808074474E-1,1.748981476E-1,-1.418378651E-1,6.229322860E-1
1.646367042E1,6.866981983E-1,-1.270736694E0,-1.521351188E-1,1.452401892E0
1.647367120E1,7.962574959E-1,-1.369791985E0,1.235760927E0,2.009343462E0
1.648366834E1,8.853709698E-1,-1.445327759E0,1.264337778E0,2.114569484E0
1.649367381E1,9.485056400E-1,-1.505240440E0,1.305475712E0,2.206734820E0
1.650366912E1,9.730005264E-1,-1.558692932E0,1.356240630E0,2.283778082E0
