"Time (s)","Linear Acceleration x (m/s^2)","Linear Acceleration y (m/s^2)","Linear Acceleration z (m/s^2)","Absolute acceleration (m/s^2)"
0.000000000E0,1.252789140E0,1.674580097E0,1.134928703E0,2.379445795E0
0.000000000E0,1.024023175E0,1.718166828E0,1.331944466E0,2.403080684E0
0.000000000E0,9.422926903E-1,1.707664490E0,1.572956085E0,2.505638515E0
0.000000000E0,9.395759106E-1,1.628839493E0,1.905505180E0,2.677101227E0
3.213451000E-3,9.534400702E-1,1.496048927E0,2.353467941E0,2.947205746E0
8.239076000E-3,1.085168839E0,1.409359932E0,2.931635857E0,3.429048793E0
1.326470100E-2,1.312180996E0,1.439710617E0,3.506847382E0,4.011553837E0
1.828918000E-2,1.530866146E0,1.571539402E0,3.941532135E0,4.510982467E0
2.331366000E-2,1.642203808E0,1.727075100E0,4.227313042E0,4.852813339E0
2.833819100E-2,1.709743381E0,1.800024033E0,4.480038643E0,5.121919092E0
3.336282600E-2,1.773088932E0,1.765719891E0,4.628762245E0,5.261848631E0
3.838761800E-2,1.833029151E0,1.623630047E0,4.650197983E0,5.255522017E0
4.341256600E-2,1.871417522E0,1.445436478E0,4.511306763E0,5.093464328E0
4.843767000E-2,1.931920767E0,1.288674355E0,4.269703865E0,4.860387900E0
5.346298300E-2,1.934062719E0,1.158558846E0,3.963677406E0,4.559999538E0
5.848850300E-2,1.831037521E0,1.022459507E0,3.640835762E0,4.201643356E0
6.351423300E-2,1.733409882E0,9.054384232E-1,3.334131241E0,3.865353760E0
6.854011800E-2,1.622406006E0,7.849702835E-1,3.023726463E0,3.520128026E0
7.356616000E-2,1.450044274E0,6.336145401E-1,2.766309738E0,3.186936672E0
7.859235800E-2,1.254040241E0,4.669365883E-1,2.580193520E0,2.906552133E0
8.361866000E-2,1.133672476E0,2.714896202E-1,2.426336288E0,2.691844661E0
8.864501400E-2,1.092067480E0,9.576082230E-2,2.280166626E0,2.530008174E0
9.367142000E-2,1.074876785E0,-2.161741257E-2,2.179435730E0,2.430178495E0
9.869782600E-2,1.042318106E0,-9.485149384E-2,2.104607582E0,2.350488654E0
1.037240240E-1,1.021505356E0,-1.481118202E-1,2.074628830E0,2.317217099E0
1.087495970E-1,1.106857538E0,-2.393288612E-1,2.103890419E0,2.389302578E0
1.137751700E-1,1.220575571E0,-3.835699558E-1,2.087348938E0,2.448255751E0
1.188007430E-1,1.352160931E0,-5.815978050E-1,2.063652039E0,2.534808657E0
1.238263160E-1,1.554414988E0,-7.674539089E-1,2.066938400E0,2.697670441E0
1.288518890E-1,1.737474203E0,-9.516913891E-1,1.987931252E0,2.806493144E0
1.338774620E-1,1.940779448E0,-8.434970379E-1,1.990034103E0,2.904883449E0
1.389030350E-1,2.051063299E0,-8.220734596E-1,2.006956100E0,2.985052465E0
1.439286080E-1,2.046636820E0,-9.358270168E-1,2.015421867E0,3.020996488E0
1.489541800E-1,2.058336735E0,-1.070429802E0,2.082875252E0,3.117842105E0
1.539797530E-1,2.030034065E0,-1.198052645E0,2.147571564E0,3.188797903E0
1.590053260E-1,1.910090685E0,-1.228484392E0,2.138085365E0,3.119139201E0
1.640308990E-1,1.742365718E0,-1.181340694E0,2.021175385E0,2.918313565E0
1.690564720E-1,1.574877024E0,-1.142948627E0,1.777815819E0,2.635753837E0
1.740820450E-1,1.489082932E0,-1.122617960E0,1.441473007E0,2.357007317E0
1.791076180E-1,1.436998367E0,-1.124682665E0,1.050270081E0,2.105455449E0
1.841331910E-1,1.409242630E0,-1.124673367E0,6.470832825E-1,1.915612629E0
1.891587640E-1,1.381887317E0,-1.174602032E0,1.934013367E-1,1.823926140E0
1.941843370E-1,1.354644775E0,-1.230324268E0,-3.207406998E-1,1.857857602E0
1.992099100E-1,1.346098065E0,-1.285975456E0,-8.670625687E-1,2.053657803E0
2.042354830E-1,1.364828229E0,-1.306991816E0,-1.326504707E0,2.308808879E0
2.092610550E-1,1.337745547E0,-1.278346777E0,-1.718743324E0,2.525433081E0
2.142866280E-1,1.259085655E0,-1.233225822E0,-2.010645390E0,2.673731007E0
2.193122010E-1,1.175658584E0,-1.190590143E0,-2.250361919E0,2.804247985E0
2.243377740E-1,1.115596294E0,-1.179211617E0,-2.442771912E0,2.932955803E0
2.293633470E-1,1.087930441E0,-1.199274302E0,-2.578341484E0,3.044617596E0
2.343889200E-1,1.111066103E0,-1.203133583E0,-2.709753036E0,3.166190112E0
2.394144930E-1,1.074700713E0,-1.205358744E0,-2.817831039E0,3.247775099E0
2.444400660E-1,9.643118382E-1,-1.215887547E0,-2.859454155E0,3.253422492E0
2.494656390E-1,7.799682021E-1,-1.168355942E0,-2.781883240E0,3.116453170E0
2.544912120E-1,5.125678182E-1,-1.015897274E0,-2.580123901E0,2.819895811E0
2.595167850E-1,2.394808531E-1,-9.127538204E-1,-2.306468487E0,2.492040830E0
2.645423580E-1,4.586935043E-3,-8.933568001E-1,-2.041867733E0,2.228751052E0
2.695679300E-1,-1.580040455E-1,-8.772010803E-1,-1.838547707E0,2.043209408E0
2.745935030E-1,-2.001296282E-1,-8.554553986E-1,-1.705729485E0,1.918689366E0
2.796190760E-1,-2.171049118E-1,-8.142948151E-1,-1.633559227E0,1.838131208E0
2.846446490E-1,-2.609672546E-1,-7.920649052E-1,-1.583625793E0,1.789788081E0
2.896702220E-1,-3.264636993E-1,-7.980947495E-1,-1.622881889E0,1.837737577E0
2.946957950E-1,-4.226187468E-1,-8.175749779E-1,-1.736942291E0,1.965706991E0
2.997213680E-1,-4.728307724E-1,-7.828915119E-1,-1.882870674E0,2.093248680E0
3.047469410E-1,-4.446299076E-1,-7.078208923E-1,-2.147052288E0,2.304026844E0
3.097725140E-1,-4.633316994E-1,-6.347591877E-1,-2.424477100E0,2.548663316E0
3.147980870E-1,-4.195584059E-1,-5.775048733E-1,-2.653229713E0,2.747575121E0
3.198236600E-1,-2.659035921E-1,-5.355496407E-1,-2.785753250E0,2.849199766E0
3.248492330E-1,-7.923805714E-2,-4.798035622E-1,-2.879711151E0,2.920483940E0
3.298748050E-1,7.825529575E-2,-4.197182655E-1,-2.935188770E0,2.966078291E0
3.349003780E-1,-2.680289745E-2,-1.833162308E-1,-2.842028618E0,2.848060726E0
3.399259510E-1,-9.274816513E-2,-4.386496544E-2,-2.781995773E0,2.783887002E0
3.449515240E-1,5.091428757E-2,-8.748078346E-2,-2.683526993E0,2.685435211E0
3.499770970E-1,3.548200130E-1,-2.040235996E-1,-2.594685555E0,2.626769118E0
3.550026700E-1,7.381840944E-1,-2.737140656E-1,-2.558425903E0,2.676822417E0
3.600282430E-1,9.006912708E-1,-2.055289745E-1,-2.560225487E0,2.721808492E0
3.650538160E-1,8.473535180E-1,-4.741692543E-2,-2.442237854E0,2.585494553E0
3.700793890E-1,7.836648226E-1,8.566284180E-2,-2.204660892E0,2.341366765E0
3.751049620E-1,7.815400362E-1,1.553914547E-1,-2.014968395E0,2.166806167E0
3.801305350E-1,7.455152869E-1,1.909649372E-1,-1.863626480E0,2.016274859E0
3.851561080E-1,6.709489822E-1,2.835834026E-1,-1.621540070E0,1.777634462E0
3.901816800E-1,6.582056880E-1,4.239184856E-1,-1.331985474E0,1.545032981E0
3.952072530E-1,6.352121234E-1,6.261970997E-1,-9.854831696E-1,1.329208158E0
4.002328260E-1,5.736106634E-1,7.851874828E-1,-6.346750259E-1,1.161189461E0
4.052583990E-1,5.697289705E-1,8.866698742E-1,-3.273038864E-1,1.103586154E0
4.102839720E-1,5.616620779E-1,9.500660896E-1,8.408546448E-3,1.103703116E0
4.153095450E-1,5.545183420E-1,1.023191214E0,3.438081741E-1,1.213513458E0
4.203351180E-1,5.674885511E-1,1.120294094E0,6.645917892E-1,1.420839315E0
4.253606910E-1,5.386326313E-1,1.217539310E0,1.013830185E0,1.673433216E0
4.303862640E-1,5.447446108E-1,1.238353491E0,1.386769295E0,1.937368095E0
4.354118370E-1,4.665904045E-1,1.264106035E0,1.754766464E0,2.212436670E0
4.404374100E-1,4.571641684E-1,1.256294012E0,2.170499802E0,2.549184793E0
4.454629830E-1,4.828116894E-1,1.181277275E0,2.490498543E0,2.798411356E0
4.504885550E-1,4.758988619E-1,1.015332699E0,2.719514847E0,2.941622209E0
4.555141280E-1,4.979044199E-1,8.400030136E-1,2.934002876E0,3.092230061E0
4.605397010E-1,4.530243874E-1,6.841611862E-1,3.090855598E0,3.197920567E0
4.655652740E-1,2.841495275E-1,5.335371494E-1,3.228405952E0,3.284510289E0
4.705908470E-1,4.432678223E-2,3.502020836E-1,3.322705269E0,3.341403398E0
4.756164200E-1,-2.656697035E-1,1.966180801E-1,3.378639221E0,3.394766862E0
4.806419930E-1,-5.543522835E-1,4.915356636E-2,3.405821800E0,3.450991837E0
4.856675660E-1,-7.978926897E-1,-6.309008598E-2,3.365880013E0,3.459734291E0
4.906931390E-1,-1.049350023E0,-1.256053448E-1,3.373528481E0,3.535195409E0
4.957187120E-1,-1.232640386E0,-5.705356598E-2,3.457280159E0,3.670891381E0
5.007442850E-1,-1.253687143E0,1.468992233E-1,3.597699165E0,3.812709026E0
5.057698580E-1,-1.181713343E0,4.855139256E-1,3.684466362E0,3.899674675E0
5.107954300E-1,-1.042898178E0,8.672873974E-1,3.588194847E0,3.836009163E0
5.158210030E-1,-9.158122540E-1,1.187160015E0,3.303790092E0,3.628097292E0
5.208465760E-1,-8.107335567E-1,1.350401402E0,2.988813400E0,3.378443190E0
5.258721490E-1,-6.698088646E-1,1.291105986E0,2.810466766E0,3.164541361E0
5.308977220E-1,-5.117224455E-1,1.120280981E0,2.639313698E0,2.912536031E0
5.359232950E-1,-3.557705879E-1,9.298663139E-1,2.455883026E0,2.650016134E0
5.409488680E-1,-2.353938818E-1,7.634677887E-1,2.317454338E0,2.451303317E0
5.459744410E-1,-1.833505630E-1,5.640757084E-1,2.276666641E0,2.352660160E0
5.510000140E-1,-1.883411407E-1,3.126423359E-1,2.415136337E0,2.442560366E0
5.560255870E-1,-1.768033504E-1,5.671286583E-2,2.680619240E0,2.687042107E0
5.610511600E-1,-1.281229258E-1,-1.708762646E-1,3.001835823E0,3.009423947E0
5.660767330E-1,-1.082373857E-1,-3.856279850E-1,3.403282166E0,3.426770166E0
5.711023050E-1,-2.262458801E-1,-5.458812714E-1,3.794653893E0,3.840386924E0
5.761278780E-1,-4.905823469E-1,-6.487846375E-1,4.162410736E0,4.241138489E0
5.811534510E-1,-8.138998747E-1,-6.724967957E-1,4.440438271E0,4.564227972E0
5.861790240E-1,-9.988437891E-1,-6.189775467E-1,4.581756592E0,4.730043931E0
5.912045970E-1,-1.087462306E0,-6.000621319E-1,4.553712845E0,4.720058210E0
5.962301700E-1,-1.112599611E0,-6.028199196E-1,4.337862968E0,4.518664060E0
6.012557430E-1,-1.034933448E0,-6.423614025E-1,3.963481903E0,4.146432709E0
6.062813160E-1,-8.200626373E-1,-6.708424091E-1,3.454803467E0,3.613613048E0
6.113068890E-1,-5.244854689E-1,-7.022542953E-1,2.835959435E0,2.968318045E0
6.163324620E-1,-2.866213322E-1,-7.358264923E-1,2.197812080E0,2.335373708E0
6.213580350E-1,-5.872654915E-2,-7.324564457E-1,1.607133865E0,1.767150394E0
6.263836080E-1,1.731947660E-1,-7.299499512E-1,1.058983803E0,1.297794303E0
6.314091800E-1,3.893725872E-1,-7.132577896E-1,5.483427048E-1,9.803200539E-1
6.364347530E-1,6.703448296E-1,-6.624367237E-1,-1.593589783E-2,9.425701864E-1
6.414603260E-1,7.854752541E-1,-6.290993690E-1,-6.389179230E-1,1.192037543E0
6.464858990E-1,8.341693878E-1,-6.266646385E-1,-1.268293381E0,1.642289632E0
6.515114720E-1,9.202721119E-1,-6.160485744E-1,-1.880558014E0,2.182410376E0
6.565370450E-1,9.759340286E-1,-7.017712593E-1,-2.447343826E0,2.726613638E0
6.615626180E-1,8.668065071E-1,-6.968424320E-1,-3.040578365E0,3.237600916E0
6.665881910E-1,8.127542734E-1,-7.636892796E-1,-3.602931976E0,3.771592456E0
6.716137640E-1,9.524629116E-1,-1.002360106E0,-4.158366680E0,4.382228295E0
6.766393370E-1,1.079506159E0,-1.263990641E0,-4.687968254E0,4.973937297E0
6.816649100E-1,1.098201752E0,-1.500315189E0,-5.220572472E0,5.541783980E0
6.866904830E-1,9.179946184E-1,-1.663529038E0,-5.579127312E0,5.893785247E0
6.917160550E-1,7.927119732E-1,-1.806688786E0,-5.916657925E0,6.236934955E0
6.967416280E-1,7.942608595E-1,-1.987428784E0,-6.323822021E0,6.676185172E0
7.017672010E-1,8.658128977E-1,-2.181771278E0,-6.666311264E0,7.067493456E0
7.067927740E-1,9.410136938E-1,-2.385199547E0,-6.886358738E0,7.348239267E0
7.118183470E-1,1.058495164E0,-2.554985523E0,-6.978911400E0,7.506901316E0
7.168439200E-1,1.247376919E0,-2.715620756E0,-6.953109741E0,7.568109430E0
7.218694930E-1,1.455580711E0,-2.886970520E0,-6.798766613E0,7.528382393E0
7.268950660E-1,1.085730553E0,-3.361271858E0,-6.558388233E0,7.449121798E0
7.319206390E-1,1.185652494E0,-3.564961672E0,-6.346283913E0,7.374960546E0
7.369462120E-1,1.621747375E0,-3.732847214E0,-6.424610615E0,7.605250451E0
7.419717850E-1,1.635786295E0,-3.514548302E0,-7.251048565E0,8.222259535E0
7.469973580E-1,2.018050194E0,-3.139545202E0,-7.346139431E0,8.239844368E0
7.520229300E-1,2.552059650E0,-2.952822208E0,-7.336674213E0,8.310171837E0
7.570485030E-1,2.772015572E0,-3.088190556E0,-7.557525635E0,8.621901470E0
7.620740760E-1,2.935054779E0,-3.339152575E0,-7.826898575E0,9.001379215E0
7.670996490E-1,3.207754374E0,-3.580296278E0,-8.087551117E0,9.408331022E0
7.721252220E-1,3.598134518E0,-3.772172213E0,-8.368949890E0,9.859775731E0
7.771507950E-1,3.984465837E0,-3.937413692E0,-8.739445686E0,1.038061200E1
7.821763680E-1,4.245582581E0,-4.060155392E0,-9.171802521E0,1.089182238E1
7.872019410E-1,4.447704315E0,-4.153008461E0,-9.581338882E0,1.135040121E1
7.922275140E-1,4.738313675E0,-4.176542282E0,-9.902461052E0,1.174537598E1
7.972530870E-1,5.150138855E0,-4.196889877E0,-1.010298443E1,1.209165453E1
8.022786600E-1,5.496482849E0,-4.213109493E0,-1.022695446E1,1.235120289E1
8.073042330E-1,5.830495834E0,-4.233822823E0,-1.037535667E1,1.263202135E1
8.123298050E-1,6.152641296E0,-4.272274971E0,-1.050563812E1,1.290254861E1
8.173553780E-1,6.434571743E0,-4.332045555E0,-1.051323700E1,1.306516301E1
8.223809510E-1,6.657310486E0,-4.426549435E0,-1.037023544E1,1.309411723E1
8.274065240E-1,6.801988602E0,-4.579033852E0,-1.017753220E1,1.306968866E1
8.324320970E-1,6.802065372E0,-4.712305069E0,-9.858673096E0,1.287118284E1
8.374576700E-1,6.548323154E0,-4.744554043E0,-9.379774094E0,1.238432442E1
8.424832430E-1,5.912559509E0,-4.680459976E0,-8.668229103E0,1.148926722E1
8.475088160E-1,4.981367111E0,-4.506304741E0,-7.661008835E0,1.018881039E1
8.525343890E-1,3.869122744E0,-4.271811008E0,-6.496080399E0,8.684327299E0
8.575599620E-1,2.431143761E0,-4.051381111E0,-5.239955902E0,7.055585500E0
8.625855350E-1,8.287692070E-1,-3.776913643E0,-3.772512436E0,5.402201879E0
8.676111080E-1,-6.427707672E-1,-3.328119755E0,-2.074211836E0,3.973901119E0
8.726366800E-1,-1.956345558E0,-2.819444895E0,-3.601827621E-1,3.450549098E0
8.776622530E-1,-3.060540676E0,-2.288087368E0,1.374405384E0,4.060941171E0
8.826878260E-1,-3.974739552E0,-1.856522322E0,3.020472050E0,5.326207003E0
8.877133990E-1,-4.779681206E0,-1.512099028E0,4.431583881E0,6.691093453E0
8.927389720E-1,-5.675251007E0,-1.150169373E0,5.605189323E0,8.059125941E0
8.977645450E-1,-6.584489822E0,-7.470153570E-1,6.302905083E0,9.145498928E0
9.027901180E-1,-7.201924324E0,-3.260598183E-1,6.370349884E0,9.620571013E0
9.078156910E-1,-7.552846909E0,7.538509369E-2,6.034423351E0,9.667752816E0
9.128412640E-1,-7.700502396E0,4.258081913E-1,5.621650696E0,9.543689345E0
9.178668370E-1,-7.640701294E0,7.324035168E-1,5.209586143E0,9.276665293E0
9.228924100E-1,-7.455097198E0,9.836695194E-1,4.885025024E0,8.967137194E0
9.279179830E-1,-7.311100006E0,1.172792435E0,4.797010422E0,8.822637609E0
9.329435550E-1,-7.275208473E0,1.349826694E0,4.918313026E0,8.884846282E0
9.379691280E-1,-7.327706337E0,1.497021079E0,5.112398148E0,9.059413176E0
9.429947010E-1,-7.434681892E0,1.677505732E0,5.204652309E0,9.229134628E0
9.480202740E-1,-7.686652184E0,1.824336171E0,5.212788105E0,9.464987273E0
9.530458470E-1,-8.078208923E0,2.018650532E0,5.208447456E0,9.821422213E0
9.580714200E-1,-8.450933456E0,2.355215073E0,5.273811817E0,1.023613235E1
9.630969930E-1,-8.703976631E0,2.756567955E0,5.362521172E0,1.058841392E1
9.681225660E-1,-8.827512741E0,3.178610086E0,5.457481384E0,1.085415341E1
9.731481390E-1,-8.854667664E0,3.519383430E0,5.509228706E0,1.100648900E1
9.781737120E-1,-8.813640594E0,3.715605497E0,5.483006477E0,1.102494194E1
9.831992850E-1,-8.622477531E0,3.833364010E0,5.406580448E0,1.087533496E1
9.882248580E-1,-8.227859497E0,3.939049006E0,5.331781864E0,1.056606250E1
9.932504300E-1,-7.791644096E0,4.051481247E0,5.276888847E0,1.024547578E1
9.982760030E-1,-7.432537079E0,4.227879524E0,5.259428024E0,1.003888220E1
1.003301576E0,-7.197679520E0,4.415308952E0,5.223860741E0,9.929263047E0
1.008327149E0,-7.029348373E0,4.441214561E0,5.103592396E0,9.756166290E0
1.013352722E0,-6.941835403E0,4.253399849E0,4.816817284E0,9.459504098E0
1.018378295E0,-6.935315132E0,4.005477428E0,4.343164444E0,9.110736677E0
1.023403868E0,-6.866609573E0,3.779375553E0,3.767098427E0,8.696265702E0
1.028429441E0,-6.549766541E0,3.690721035E0,3.053099632E0,8.114325656E0
1.033455014E0,-6.224689484E0,3.539553881E0,2.557959795E0,7.603838449E0
1.038480587E0,-5.949095726E0,3.431236029E0,2.519342661E0,7.315203899E0
1.043506160E0,-5.656187057E0,3.341462851E0,2.773357153E0,7.130872030E0
1.048531733E0,-5.293560028E0,3.226339817E0,3.108712196E0,6.935065818E0
1.053557305E0,-4.866130829E0,3.099574566E0,3.486985445E0,6.741339572E0
1.058582878E0,-4.459928513E0,2.902969837E0,3.927825451E0,6.614076578E0
1.063608451E0,-3.988661766E0,2.669038534E0,4.484468937E0,6.568382680E0
1.068634024E0,-3.356382370E0,2.454397917E0,5.086329460E0,6.569636149E0
1.073659597E0,-2.533983231E0,2.330700874E0,5.606188774E0,6.578950536E0
1.078685170E0,-1.659550667E0,2.346203327E0,6.022826195E0,6.673321050E0
1.083710743E0,-8.711900711E-1,2.377300262E0,6.223461151E0,6.718779456E0
1.088736316E0,-2.641105652E-1,2.396297693E0,6.151772499E0,6.607291571E0
1.093761889E0,1.381053925E-1,2.394397020E0,5.918193817E0,6.385704992E0
1.098787462E0,4.168901443E-1,2.424466133E0,5.536723137E0,6.058641475E0
1.103813035E0,6.486892700E-1,2.448109150E0,5.174083710E0,5.760657811E0
1.108838608E0,8.810997009E-1,2.508138418E0,4.791005135E0,5.479126318E0
1.113864180E0,1.133023262E0,2.571363688E0,4.329349518E0,5.161290553E0
1.118889753E0,1.418672085E0,2.610186100E0,3.774497032E0,4.803387326E0
1.123915326E0,1.613468647E0,2.596710920E0,3.121166945E0,4.368966900E0
1.128940899E0,1.635818005E0,2.560000420E0,2.473429680E0,3.917570302E0
1.133966472E0,1.628797054E0,2.566948414E0,1.834148645E0,3.550535911E0
1.138992045E0,1.611042500E0,2.603096962E0,1.254268646E0,3.308286802E0
1.144017618E0,1.615654469E0,2.601477861E0,7.660000324E-1,3.156704369E0
1.149043191E0,1.656651020E0,2.566689253E0,2.344355583E-1,3.063877666E0
1.154068764E0,1.738473892E0,2.527301311E0,-3.411922455E-1,3.086414674E0
1.159094337E0,1.794006348E0,2.487927198E0,-8.462591171E-1,3.181885449E0
1.164119910E0,1.971622467E0,2.443608046E0,-1.285187960E0,3.392672033E0
1.169145483E0,2.228247166E0,2.384577274E0,-1.647947788E0,3.656094381E0
1.174171055E0,2.540132046E0,2.306045294E0,-1.909726143E0,3.926470380E0
1.179196628E0,2.897877693E0,2.227350712E0,-2.117587328E0,4.224093087E0
1.184222201E0,3.301717281E0,2.115292788E0,-2.304044008E0,4.548012684E0
1.189247774E0,3.751835823E0,1.956158876E0,-2.458684683E0,4.893665289E0
1.194273347E0,4.100337505E0,1.745885849E0,-2.561110497E0,5.140055645E0
1.199298920E0,4.151928425E0,1.585428238E0,-2.489944935E0,5.094302516E0
1.204324493E0,4.041596889E0,1.531940460E0,-2.167050123E0,4.835023602E0
1.209350066E0,3.889422417E0,1.532259703E0,-1.783354282E0,4.544862927E0
1.214375639E0,3.695512772E0,1.427865505E0,-1.492031097E0,4.233411313E0
1.219401212E0,3.378696918E0,1.247418880E0,-1.273783922E0,3.820231958E0
1.224426785E0,3.025125980E0,1.071998358E0,-1.104987144E0,3.394342980E0
1.229452358E0,2.677558899E0,9.108500481E-1,-8.956742287E-1,2.966681950E0
1.234477930E0,2.369097710E0,7.442564368E-1,-6.421751976E-1,2.564942609E0
1.239503503E0,2.142563343E0,6.196848154E-1,-4.215877056E-1,2.269872935E0
1.244529076E0,2.035967350E0,5.177679658E-1,-2.773344517E-1,2.119000027E0
1.249554649E0,1.967671871E0,3.764237165E-1,-1.715269089E-1,2.010683687E0
1.254580222E0,1.837135792E0,1.812930703E-1,-4.690289497E-2,1.846655078E0
1.259605795E0,1.630134583E0,-1.504957676E-2,6.311154366E-2,1.631425240E0
1.264631368E0,1.299134254E0,-1.793011427E-1,1.637268066E-1,1.321629743E0
1.269656941E0,1.040443897E0,-1.923750639E-1,2.598090172E-1,1.089510162E0
1.274682514E0,9.304327965E-1,-1.887149215E-1,2.985303402E-1,9.952079553E-1
1.279708087E0,1.031151295E0,-2.447590828E-1,1.892318726E-1,1.076563376E0
1.284733660E0,1.380790710E0,-3.835090995E-1,-2.012574673E-1,1.447123624E0
1.289759233E0,1.811763287E0,-5.843307972E-1,-7.334458828E-1,2.040066555E0
1.294784805E0,2.199757576E0,-7.402220368E-1,-1.296612024E0,2.658583231E0
1.299810378E0,2.482741356E0,-8.640467525E-1,-1.794636011E0,3.182970286E0
1.304835951E0,2.603685379E0,-9.260217547E-1,-2.260380745E0,3.570156153E0
1.309861524E0,2.696922779E0,-9.348968863E-1,-2.736266613E0,3.954058629E0
1.314887097E0,2.738682270E0,-9.425846338E-1,-3.193163395E0,4.311048461E0
1.319912670E0,2.796022892E0,-9.435417056E-1,-3.573366642E0,4.634324559E0
1.324938243E0,2.849682331E0,-9.322597980E-1,-3.910371542E0,4.927555511E0
1.329963868E0,2.923541546E0,-9.703019261E-1,-4.246973038E0,5.246461758E0
1.334989493E0,2.840622425E0,-1.076081634E0,-4.544426918E0,5.466159846E0
1.340015118E0,2.610676289E0,-1.182195902E0,-4.792699814E0,5.584191019E0
1.345040743E0,2.267186165E0,-1.274607658E0,-4.953509331E0,5.594820147E0
1.350066368E0,1.767157078E0,-1.325465918E0,-5.007662296E0,5.473242705E0
1.355091993E0,1.182609558E0,-1.307517409E0,-4.792283058E0,5.106284760E0
1.360117618E0,6.044940948E-1,-1.208414197E0,-4.389091969E0,4.592363911E0
1.365143243E0,9.461498260E-2,-1.135652542E0,-3.938131332E0,4.099699633E0
1.370168868E0,-2.804889679E-1,-1.095976472E0,-3.593731403E0,3.767591258E0
1.375194493E0,-4.305686951E-1,-1.095658779E0,-3.390801430E0,3.589344216E0
1.380220118E0,-3.466835022E-1,-1.111881852E0,-3.282709837E0,3.483196029E0
1.385245743E0,-4.859542847E-2,-1.159398556E0,-3.213133812E0,3.416254589E0
1.390271368E0,3.961696625E-1,-1.199957252E0,-3.321719646E0,3.553965281E0
1.395296993E0,9.108204842E-1,-1.256934643E0,-3.680136204E0,3.994105798E0
1.400322618E0,1.485650063E0,-1.310148478E0,-4.297338009E0,4.731887478E0
1.405348243E0,2.134813309E0,-1.300732851E0,-4.962001801E0,5.556149357E0
1.410373868E0,2.805632114E0,-1.298749924E0,-5.548395157E0,6.351614892E0
1.415399493E0,3.373946190E0,-1.388765812E0,-6.116851807E0,7.122363329E0
1.420425118E0,3.734885693E0,-1.516721964E0,-6.641324997E0,7.768977691E0
1.425450743E0,3.778836727E0,-1.705876827E0,-7.086737156E0,8.210448604E0
1.430476368E0,3.506231785E0,-1.956210136E0,-7.361202717E0,8.384970177E0
1.435501993E0,2.941465855E0,-2.301758766E0,-7.535771847E0,8.410598797E0
1.440527618E0,2.113913536E0,-2.748363733E0,-7.604665756E0,8.357815200E0
1.445553243E0,1.172586441E0,-3.197258949E0,-7.509786606E0,8.245866760E0
1.450578868E0,3.138647079E-1,-3.578403473E0,-7.260916233E0,8.100888039E0
1.455604493E0,-3.619527817E-1,-3.931613684E0,-6.882726192E0,7.934766273E0
1.460630066E0,-9.605636597E-1,-4.301138878E0,-6.410114288E0,7.778948732E0
1.465655639E0,-1.716581345E0,-4.750182152E0,-6.054846764E0,7.884925575E0
1.470681212E0,-2.634465218E0,-5.246531010E0,-5.779471397E0,8.238251286E0
1.475706785E0,-3.517633438E0,-5.763029099E0,-5.307709694E0,8.588249623E0
1.480732358E0,-4.580780983E0,-6.268149376E0,-4.493064404E0,8.969998815E0
1.485757930E0,-5.751392365E0,-6.739764214E0,-3.730129480E0,9.613365785E0
1.490783503E0,-6.684830666E0,-7.259702206E0,-3.149739265E0,1.035910684E1
1.495809076E0,-7.472639084E0,-8.056251526E0,-2.819206476E0,1.134422535E1
1.500834649E0,-8.532018661E0,-9.083421707E0,-2.460153103E0,1.270260783E1
1.505860222E0,-9.830430984E0,-1.019922161E1,-1.837355852E0,1.428416506E1
1.510885795E0,-1.156527424E1,-1.141447639E1,-8.447676897E-1,1.627143116E1
1.515911368E0,-1.378523922E1,-1.260672188E1,6.530191302E-1,1.869194187E1
1.520936941E0,-1.620434952E1,-1.351996231E1,2.704264641E0,2.127635710E1
1.525962514E0,-1.875698662E1,-1.402331161E1,5.201905727E0,2.399036554E1
1.530988087E0,-2.157328415E1,-1.404425812E1,7.884211063E0,2.692226883E1
1.536013660E0,-2.476790237E1,-1.355008507E1,1.052236176E1,3.012928626E1
1.541039233E0,-2.854434013E1,-1.215692902E1,1.257946587E1,3.347854893E1
1.546064805E0,-3.246726227E1,-1.010627747E1,1.370809841E1,3.666295031E1
1.551090378E0,-3.589409256E1,-7.799334049E0,1.401016521E1,3.931285059E1
1.556115951E0,-3.829700089E1,-5.465132713E0,1.366061115E1,4.102609230E1
1.561141524E0,-3.901599121E1,-3.235263348E0,1.274224758E1,4.117134164E1
1.566167097E0,-3.760993195E1,-1.247562885E0,1.132826519E1,3.929876571E1
1.571192670E0,-3.441161346E1,3.209633827E-1,9.716116905E0,3.575842679E1
1.576218243E0,-2.986134338E1,1.464121103E0,8.161268234E0,3.099112419E1
1.581243816E0,-2.470154572E1,2.282822609E0,6.746225357E0,2.570776529E1
1.586269389E0,-1.940126419E1,2.820940256E0,5.519836903E0,2.036750735E1
1.591294962E0,-1.419933796E1,3.290200472E0,4.703903675E0,1.531578687E1
1.596320535E0,-9.237995148E0,3.868484497E0,4.204718113E0,1.086210758E1
1.601346108E0,-4.792181969E0,4.570137024E0,3.904643059E0,7.687483194E0
1.606371680E0,-1.020763397E0,5.360809326E0,3.775946856E0,6.636114014E0
1.611397253E0,1.947282791E0,6.128272533E0,3.855676889E0,7.497591532E0
1.616422826E0,4.165760517E0,6.792201996E0,4.006806374E0,8.918635880E0
1.621448399E0,5.789333344E0,7.352389812E0,4.162921906E0,1.024226222E1
1.626473972E0,7.006041527E0,7.894133568E0,4.424592972E0,1.144460509E1
1.631499545E0,7.974775314E0,8.411782265E0,4.819647312E0,1.255325147E1
1.636525118E0,8.920772552E0,8.847581863E0,5.331376076E0,1.364856984E1
1.641550691E0,9.695866585E0,9.215565681E0,5.789271355E0,1.457573815E1
1.646576264E0,1.020948792E1,9.563131332E0,6.028421879E0,1.523249798E1
1.651601837E0,1.056258774E1,9.946903229E0,6.070972919E0,1.572786876E1
1.656627410E0,1.088962364E1,1.042783737E1,5.986829758E0,1.622238657E1
1.661652983E0,1.132500076E1,1.094700241E1,5.788317204E0,1.678085576E1
1.666678555E0,1.201229095E1,1.146527481E1,5.407203674E0,1.746383440E1
1.671704128E0,1.302765560E1,1.198729134E1,4.819456100E0,1.834780971E1
1.676729701E0,1.423633957E1,1.242294312E1,4.050107956E0,1.932372258E1
1.681755274E0,1.534570312E1,1.272574520E1,3.225223541E0,2.019498111E1
1.686780847E0,1.611611748E1,1.294957352E1,2.455721140E0,2.081949238E1
1.691806420E0,1.642346191E1,1.314253712E1,1.888935328E0,2.111929118E1
1.696831993E0,1.639314461E1,1.333692551E1,1.526881933E0,2.118820758E1
1.701857566E0,1.618432236E1,1.354028702E1,1.194146156E0,2.113522292E1
1.706883139E0,1.599425316E1,1.377925777E1,9.075500369E-1,2.113072942E1
1.711908712E0,1.590498352E1,1.405214310E1,7.661414146E-1,2.123718906E1
1.716934285E0,1.563475513E1,1.419036674E1,9.173316956E-1,2.113418023E1
1.721959858E0,1.512218285E1,1.420226860E1,1.532592773E0,2.080225199E1
1.726985430E0,1.451657867E1,1.414398384E1,2.394362450E0,2.040873114E1
1.732011003E0,1.405335808E1,1.395683479E1,3.150145054E0,2.005526177E1
1.737036576E0,1.392908478E1,1.368816280E1,3.567932367E0,1.985233853E1
1.742062149E0,1.422009277E1,1.346273804E1,3.650980473E0,1.991948826E1
1.747087722E0,1.482518768E1,1.322934628E1,3.494181633E0,2.017451605E1
1.752113295E0,1.564783001E1,1.293748951E1,3.111362696E0,2.054054032E1
1.757138868E0,1.649584579E1,1.253709602E1,2.679220200E0,2.089186268E1
1.762164441E0,1.722501373E1,1.208802795E1,2.394330978E0,2.117910146E1
1.767190014E0,1.794943237E1,1.156933308E1,2.166249514E0,2.146448759E1
1.772215587E0,1.878309250E1,1.093657017E1,1.832759142E0,2.181220156E1
1.777241160E0,1.960065269E1,1.011738586E1,1.480625272E0,2.210744974E1
1.782266733E0,2.021014786E1,9.264480591E0,1.325147986E0,2.227188125E1
1.787292305E0,2.039142609E1,8.444494247E0,1.627673626E0,2.213072666E1
1.792317878E0,1.980019951E1,7.490094185E0,2.490805626E0,2.131556999E1
1.797343451E0,1.824536514E1,6.481834412E0,4.085627079E0,1.978888262E1
1.802369024E0,1.553047180E1,5.652530670E0,6.635553360E0,1.780947011E1
1.807394597E0,1.115741539E1,5.104571342E0,9.914929390E0,1.577499260E1
1.812420170E0,4.476006985E0,4.755772591E0,1.385964489E1,1.532128480E1
1.817445743E0,-4.870030403E0,4.610084534E0,1.827137375E1,1.946312344E1
1.822471316E0,-1.619673920E1,4.627690315E0,2.298563957E1,2.849718416E1
1.827496889E0,-2.809685898E1,4.793450832E0,2.714099312E1,3.935789835E1
1.832522462E0,-3.893872070E1,4.894402504E0,3.037140846E1,4.962460678E1
1.837548035E0,-5.007651520E1,4.215817451E0,3.076902962E1,5.892506830E1
1.842573608E0,-5.965464020E1,2.289776802E0,2.904935074E1,6.639114364E1
1.847599180E0,-6.519995117E1,-7.672944069E-1,2.510883904E1,6.987185536E1
1.852624753E0,-6.675579834E1,-4.490836143E0,2.105759811E1,7.014218887E1
1.857650326E0,-6.467911530E1,-7.997243404E0,1.714513016E1,6.738916341E1
1.862675899E0,-6.020827484E1,-1.037058640E1,1.267321491E1,6.239547898E1
1.867701472E0,-5.469588852E1,-1.253508472E1,9.999719620E0,5.699792069E1
1.872727045E0,-4.984627914E1,-1.444092846E1,8.091527939E0,5.252299290E1
1.877752618E0,-4.599282074E1,-1.622064209E1,6.662913799E0,4.922238525E1
1.882778191E0,-4.237230682E1,-1.744286537E1,6.281734943E0,4.625068791E1
1.887803764E0,-3.842248535E1,-1.809566879E1,6.082158089E0,4.290376739E1
1.892829337E0,-3.404935837E1,-1.872786713E1,6.736977100E0,3.943955721E1
1.897854910E0,-2.924856949E1,-1.943732452E1,7.388908386E0,3.588710589E1
1.902880483E0,-2.430605888E1,-2.018530464E1,7.898669720E0,3.256716146E1
1.907906055E0,-1.956812286E1,-2.099324417E1,8.049364090E0,2.980637508E1
1.912931628E0,-1.531255150E1,-2.175230789E1,7.794362545E0,2.771983441E1
1.917957201E0,-1.153921318E1,-2.227216530E1,7.083167076E0,2.606480469E1
1.922982774E0,-8.329673767E0,-2.247785378E1,6.000693321E0,2.471124634E1
1.928008347E0,-5.847497940E0,-2.247251129E1,4.677019119E0,2.368715905E1
1.933033920E0,-3.860261917E0,-2.236974144E1,3.024562120E0,2.290098099E1
1.938059493E0,-2.175142288E0,-2.215429306E1,1.293892384E0,2.229838789E1
1.943085066E0,-7.103996277E-1,-2.181608582E1,-4.233593941E-1,2.183175442E1
1.948110639E0,7.871742249E-1,-2.135952377E1,-2.284782887E0,2.149579335E1
1.953136212E0,2.484143734E0,-2.077411842E1,-4.218437195E0,2.134315297E1
1.958161785E0,4.336263657E0,-2.007294083E1,-6.066864491E0,2.141338321E1
1.963187358E0,6.203926086E0,-1.944063950E1,-7.648838997E0,2.179293236E1
1.968212930E0,8.149032593E0,-1.901340485E1,-8.849781036E0,2.249966490E1
1.973238503E0,1.015273952E1,-1.879271698E1,-9.779466629E0,2.349217527E1
1.978264076E0,1.203366470E1,-1.862304306E1,-1.080562592E1,2.466553001E1
1.983289649E0,1.362501907E1,-1.827824402E1,-1.174489212E1,2.564523036E1
1.988315222E0,1.501877213E1,-1.767667198E1,-1.257478905E1,2.638472225E1
1.993340795E0,1.613936234E1,-1.700499153E1,-1.337731838E1,2.699261752E1
1.998366368E0,1.692080307E1,-1.642601013E1,-1.407108212E1,2.746129526E1
2.003391941E0,1.745916176E1,-1.587368393E1,-1.464696217E1,2.777282253E1
2.008417514E0,1.779255676E1,-1.533504105E1,-1.501991844E1,2.788075519E1
2.013443087E0,1.782483292E1,-1.480230713E1,-1.507173157E1,2.764037006E1
2.018468660E0,1.771312714E1,-1.431127071E1,-1.485667229E1,2.718985204E1
2.023494233E0,1.757576942E1,-1.386468220E1,-1.441530418E1,2.662589112E1
2.028519805E0,1.756467056E1,-1.348382568E1,-1.377382374E1,2.607775733E1
2.033545378E0,1.763577271E1,-1.320387554E1,-1.300090885E1,2.558097807E1
2.038570951E0,1.769763756E1,-1.306895447E1,-1.219278622E1,2.515289211E1
2.043596524E0,1.788883209E1,-1.296489906E1,-1.142508888E1,2.487230543E1
2.048622097E0,1.821896362E1,-1.285834885E1,-1.074362183E1,2.475263987E1
2.053647670E0,1.864995766E1,-1.274866295E1,-1.028525639E1,2.482208344E1
2.058673243E0,1.899532318E1,-1.262578201E1,-9.871554375E0,2.485317404E1
2.063698816E0,1.918358994E1,-1.247958851E1,-9.491350174E0,2.477571352E1
2.068724389E0,1.925318909E1,-1.238169098E1,-9.324802399E0,2.471727132E1
2.073749962E0,1.922327042E1,-1.226512623E1,-9.422640800E0,2.467293267E1
2.078775535E0,1.902209663E1,-1.206299210E1,-9.696731567E0,2.452310220E1
2.083801108E0,1.867352867E1,-1.171362686E1,-1.004005432E1,2.422214726E1
2.088826680E0,1.823948288E1,-1.118444824E1,-1.042766190E1,2.380140229E1
2.093852253E0,1.774352837E1,-1.054342461E1,-1.079179287E1,2.329075771E1
2.098877826E0,1.717089462E1,-9.825347900E0,-1.108389091E1,2.267663382E1
2.103903399E0,1.656912613E1,-9.107955933E0,-1.130292892E1,2.202832277E1
2.108928972E0,1.589969540E1,-8.387796402E0,-1.139487171E1,2.128376244E1
2.113954545E0,1.495210648E1,-7.737993240E0,-1.125719357E1,2.025256612E1
2.118980118E0,1.384611988E1,-7.184079647E0,-1.094518185E1,1.905578762E1
2.124005691E0,1.282078362E1,-6.656091690E0,-1.052956581E1,1.787590012E1
2.129031264E0,1.186612511E1,-6.170172215E0,-9.938464165E0,1.666280349E1
2.134056837E0,1.089571285E1,-5.751769066E0,-9.167373657E0,1.535708780E1
2.139082410E0,9.966689110E0,-5.378429413E0,-8.298617363E0,1.404027937E1
2.144107983E0,9.097896576E0,-5.089608192E0,-7.405680656E0,1.278749153E1
2.149133555E0,8.179129601E0,-4.938721180E0,-6.581133366E0,1.160174316E1
2.154159128E0,7.205637932E0,-5.007314205E0,-5.783263683E0,1.050907001E1
2.159184701E0,6.086643219E0,-5.280416965E0,-5.051411629E0,9.510351647E0
2.164210274E0,4.645380497E0,-5.670692444E0,-4.525907993E0,8.615112067E0
2.169235847E0,3.020954132E0,-5.961377144E0,-4.190575600E0,7.888289116E0
2.174261420E0,1.405027866E0,-6.203185558E0,-4.142029285E0,7.590126546E0
2.179286993E0,-3.454904556E-1,-6.713747501E0,-4.320618629E0,7.991339970E0
2.184312566E0,-2.397341728E0,-7.536768436E0,-4.573587418E0,9.136072881E0
2.189338139E0,-4.740348816E0,-8.491014481E0,-4.643647671E0,1.077644178E1
2.194363712E0,-7.335914612E0,-9.200263977E0,-4.626347542E0,1.264371749E1
2.199389285E0,-1.029368973E1,-9.415202141E0,-4.609438896E0,1.469193679E1
2.204414858E0,-1.360813713E1,-9.204728127E0,-4.658799648E0,1.707667503E1
2.209440430E0,-1.729742813E1,-8.802314758E0,-4.657893658E0,1.995940226E1
2.214466003E0,-2.095406151E1,-8.266084671E0,-4.619904518E0,2.299444209E1
2.219491576E0,-2.405154037E1,-7.678512096E0,-4.381413937E0,2.562484986E1
2.224517149E0,-2.627923584E1,-7.202384472E0,-3.681150436E0,2.749588054E1
2.229542722E0,-2.800615883E1,-7.083993912E0,-2.458501339E0,2.899262201E1
2.234568295E0,-2.920388031E1,-7.233443737E0,-6.631668210E-1,3.009367249E1
2.239593868E0,-3.017389297E1,-7.503229618E0,1.439412236E0,3.112610126E1
2.244619441E0,-3.066256332E1,-7.726476669E0,3.650727272E0,3.183110179E1
2.249645014E0,-3.067019653E1,-7.836256981E0,5.846639156E0,3.219085380E1
2.254670587E0,-3.034569168E1,-7.730965137E0,7.974892616E0,3.231451280E1
2.259696160E0,-2.979483414E1,-7.443029404E0,9.907499313E0,3.226901564E1
2.264721733E0,-2.887920761E1,-6.962388515E0,1.125515747E1,3.176731112E1
2.269747305E0,-2.740774727E1,-6.155024529E0,1.177541161E1,3.045864829E1
2.274772878E0,-2.543812561E1,-5.083272934E0,1.152727413E1,2.838689746E1
2.279798451E0,-2.295627594E1,-3.971493721E0,1.066206455E1,2.562114338E1
2.284824024E0,-2.019223404E1,-2.990753174E0,9.390815735E0,2.246905294E1
2.289849597E0,-1.717513084E1,-2.172951221E0,7.759284973E0,1.897138213E1
2.294875170E0,-1.405396557E1,-1.534817219E0,6.001191139E0,1.535851253E1
2.299900743E0,-1.104954147E1,-1.059379339E0,4.505056381E0,1.197957363E1
2.304926316E0,-8.248661995E0,-6.338818073E-1,3.421440363E0,8.952568626E0
2.309951889E0,-5.819390297E0,-1.839282513E-1,2.801492214E0,6.461229887E0
2.314977462E0,-3.771525383E0,3.208966255E-1,2.586464405E0,4.584449419E0
2.320003035E0,-2.124045372E0,7.470065355E-1,2.626379013E0,3.459400848E0
2.325028608E0,-8.429975510E-1,1.194215417E0,2.924068451E0,3.269093397E0
2.330054180E0,2.251605988E-1,1.637671709E0,3.453845024E0,3.829061422E0
2.335079753E0,1.128679276E0,2.090323687E0,4.003779411E0,4.655493486E0
2.340105326E0,2.025819302E0,2.603218317E0,4.538438797E0,5.610536174E0
2.345130899E0,2.974146366E0,3.093957424E0,4.963943005E0,6.561924207E0
2.350156472E0,3.887602329E0,3.495037079E0,5.166442871E0,7.349888978E0
2.355182045E0,4.766266346E0,3.806236744E0,5.174707413E0,7.998895539E0
2.360207618E0,5.691466331E0,4.060981750E0,5.136384487E0,8.675644494E0
2.365233191E0,6.548268318E0,4.355224133E0,5.083690643E0,9.364384965E0
2.370258764E0,7.279231071E0,4.699110985E0,4.933366299E0,9.970303510E0
2.375284337E0,7.826990604E0,4.930995464E0,4.874061584E0,1.045624094E1
2.380309910E0,8.239568710E0,5.166343689E0,4.874512196E0,1.087853247E1
2.385335483E0,8.588932037E0,5.401010036E0,4.773443222E0,1.121277946E1
2.390361055E0,8.793988228E0,5.362194061E0,5.186234474E0,1.153188545E1
2.395386628E0,9.141928673E0,5.254838943E0,5.654157639E0,1.196485231E1
2.400412201E0,9.704324722E0,5.509009838E0,5.856961727E0,1.260266275E1
2.405437774E0,1.040433025E1,5.770766735E0,5.895276070E0,1.327803136E1
2.410463347E0,1.114606094E1,6.222411156E0,5.836093903E0,1.403613434E1
2.415488920E0,1.167594719E1,6.568115711E0,5.683861256E0,1.455246252E1
2.420514493E0,1.203255844E1,6.769876957E0,5.265998363E0,1.477648251E1
2.425540066E0,1.251748657E1,6.860974312E0,4.730488777E0,1.503788425E1
2.430565639E0,1.315443325E1,7.012992859E0,4.289120197E0,1.551185789E1
2.435591212E0,1.390480614E1,7.221121311E0,4.010199547E0,1.617312360E1
2.440616785E0,1.477305984E1,7.428857327E0,3.904567242E0,1.699049333E1
2.445642358E0,1.540494537E1,7.613697529E0,3.906805038E0,1.762225461E1
2.450667930E0,1.571936035E1,7.609079361E0,3.864750624E0,1.788666196E1
2.455693503E0,1.586016273E1,7.506413460E0,3.812193394E0,1.795616394E1
2.460719076E0,1.574152756E1,7.358787537E0,3.887555838E0,1.780619370E1
2.465744649E0,1.538780212E1,7.223795414E0,4.032426357E0,1.747077951E1
2.470770222E0,1.483776379E1,7.077700138E0,4.106179714E0,1.694443228E1
2.475795795E0,1.415424728E1,6.896962166E0,4.096050262E0,1.626924802E1
2.480821368E0,1.336661720E1,6.658227444E0,4.132518291E0,1.549439110E1
2.485846941E0,1.251384544E1,6.390752792E0,4.254701138E0,1.468129868E1
2.490872514E0,1.154878044E1,6.224104881E0,4.363051414E0,1.382570175E1
2.495898087E0,1.038123989E1,6.110788822E0,4.472949505E0,1.284987000E1
2.500923660E0,9.007104874E0,6.070031643E0,4.566487312E0,1.178244579E1
2.505949233E0,7.398056984E0,6.106591225E0,4.765413284E0,1.071124957E1
2.510974805E0,5.367566586E0,6.210495949E0,4.997047424E0,9.609969508E0
2.516000378E0,2.805312634E0,6.341986656E0,5.306535721E0,8.732118590E0
2.521025951E0,6.946945190E-2,6.518050194E0,5.832530975E0,8.746897845E0
2.526051524E0,-2.510923386E0,6.669256687E0,6.705353260E0,9.784962103E0
2.531077097E0,-4.908291817E0,6.678436279E0,7.807075024E0,1.138609943E1
2.536102670E0,-7.094757080E0,6.509885788E0,8.877223015E0,1.309653693E1
2.541128243E0,-9.099488258E0,6.232935429E0,9.784317970E0,1.474391565E1
2.546153816E0,-1.092742825E1,5.921101093E0,1.046240997E1,1.624592714E1
2.551179389E0,-1.254516792E1,5.408665657E0,1.087299252E1,1.746015088E1
2.556204962E0,-1.372815228E1,4.510906219E0,1.093822479E1,1.812333307E1
2.561230535E0,-1.412309265E1,3.164376259E0,1.053176212E1,1.789952615E1
2.566256108E0,-1.375020599E1,1.471152544E0,9.803116798E0,1.695091601E1
2.571281680E0,-1.293091583E1,-3.777529001E-1,8.975188255E0,1.574500828E1
2.576307253E0,-1.175169849E1,-2.342594147E0,8.067734718E0,1.444570899E1
2.581332826E0,-1.023638153E1,-4.162694454E0,6.884794235E0,1.301967448E1
2.586358399E0,-8.575801849E0,-5.544486046E0,5.498569012E0,1.159827418E1
2.591383972E0,-7.079801559E0,-6.625599861E0,3.831934929E0,1.042621163E1
2.596409545E0,-5.679765701E0,-7.544259548E0,1.858638167E0,9.624454602E0
2.601435118E0,-4.264076233E0,-8.258197784E0,-2.465772033E-1,9.297363986E0
2.606460691E0,-3.032348633E0,-8.703041077E0,-2.164618731E0,9.466976099E0
2.611486264E0,-2.103076935E0,-9.007347107E0,-3.502946377E0,9.890696023E0
2.616511837E0,-1.475584030E0,-9.248118401E0,-4.274389267E0,1.029443761E1
2.621537410E0,-1.192875862E0,-9.479675293E0,-4.705571175E0,1.065033317E1
2.626562983E0,-1.245809555E0,-9.699598312E0,-4.723442078E0,1.086025570E1
2.631588555E0,-1.290874481E0,-9.920580864E0,-4.320221901E0,1.089718307E1
2.636614128E0,-1.152401924E0,-1.015036106E1,-3.655496836E0,1.084990862E1
2.641639701E0,-8.605060577E-1,-1.041556740E1,-2.979998350E0,1.086760807E1
2.646665274E0,-6.315603256E-1,-1.076612377E1,-2.343170881E0,1.103624661E1
2.651690847E0,-4.471244812E-1,-1.115139961E1,-1.793506622E0,1.130355252E1
2.656716420E0,-1.976070404E-1,-1.143450356E1,-1.421987176E0,1.152427731E1
2.661741993E0,1.263532639E-1,-1.149271393E1,-1.180714965E0,1.155389659E1
2.666767566E0,4.722566605E-1,-1.129868889E1,-9.883737564E-1,1.135166418E1
2.671793139E0,8.453140259E-1,-1.093005562E1,-8.163419962E-1,1.099304716E1
2.676818712E0,1.217373848E0,-1.050735855E1,-6.173818707E-1,1.059564737E1
2.681844285E0,1.526805878E0,-1.011756516E1,-3.885207176E-1,1.023949262E1
2.686869858E0,1.783651829E0,-9.784983635E0,-2.095591426E-1,9.948428701E0
2.691895430E0,2.088588715E0,-9.481127739E0,-1.422860026E-1,9.709491816E0
2.696921003E0,2.460620880E0,-9.220215797E0,-2.161586285E-1,9.545352745E0
2.701946576E0,2.841995716E0,-8.982513428E0,-3.849061131E-1,9.429243864E0
2.706972149E0,3.256195068E0,-8.743278503E0,-5.928355455E-1,9.348752820E0
2.711997722E0,3.683516979E0,-8.468190193E0,-8.130288124E-1,9.270359126E0
2.717023295E0,4.027650833E0,-8.170557976E0,-1.023754001E0,9.166682122E0
2.722048868E0,4.264093399E0,-7.844803333E0,-1.232053518E0,9.013400453E0
2.727074441E0,4.344468117E0,-7.476458549E0,-1.387835383E0,8.757735022E0
2.732100014E0,4.359209061E0,-7.070246696E0,-1.503351450E0,8.441040076E0
2.737125587E0,4.154844284E0,-6.683684349E0,-1.595451355E0,8.029933532E0
2.742151160E0,3.678694248E0,-6.322282791E0,-1.762295127E0,7.523944124E0
2.747176733E0,2.988365173E0,-5.891674995E0,-1.934424043E0,6.883615114E0
2.752202305E0,2.246828079E0,-5.288251400E0,-2.137912035E0,6.130620454E0
2.757227878E0,1.693602085E0,-4.451766491E0,-2.494296312E0,5.376618548E0
2.762253451E0,1.266828537E0,-3.470404148E0,-3.048275471E0,4.789628674E0
2.767279024E0,7.900638580E-1,-2.475132465E0,-3.613759518E0,4.450813350E0
2.772304597E0,4.028282166E-1,-1.501136303E0,-4.152734280E0,4.434059401E0
2.777330170E0,9.141635895E-2,-6.595964432E-1,-4.722796440E0,4.769510523E0
2.782355743E0,-1.339778900E-1,5.620956421E-3,-5.285436630E0,5.287137415E0
2.787381316E0,-2.489557266E-1,5.468887091E-1,-5.940646648E0,5.970958785E0
2.792406889E0,-2.675380707E-1,9.741034508E-1,-6.583387852E0,6.660439157E0
2.797432462E0,-2.040357590E-1,1.331593037E0,-7.113389969E0,7.239826480E0
2.802458035E0,-3.263835907E-1,1.558651805E0,-7.478105545E0,7.645782121E0
2.807483608E0,-8.832340240E-1,1.680780053E0,-7.777323723E0,8.005740954E0
2.812509180E0,-1.893168449E0,1.722377181E0,-8.053111076E0,8.450045440E0
2.817534753E0,-3.240708351E0,1.769492626E0,-8.247247696E0,9.036060498E0
2.822560326E0,-4.963302612E0,1.687284350E0,-8.330379486E0,9.842587245E0
2.827585899E0,-6.969092369E0,1.455268264E0,-8.277355194E0,1.091790562E1
2.832611472E0,-9.132418633E0,1.185660362E0,-8.115629196E0,1.227478301E1
2.837637045E0,-1.115054035E1,1.009015560E0,-7.791449547E0,1.364035735E1
2.842662618E0,-1.283095169E1,9.169042110E-1,-7.399940014E0,1.484025427E1
2.847688191E0,-1.408194160E1,8.488693237E-1,-7.041717052E0,1.576729011E1
2.852713764E0,-1.474045658E1,7.258999348E-1,-6.769437790E0,1.623678783E1
2.857739337E0,-1.482114697E1,4.653017521E-1,-6.491965294E0,1.618729491E1
2.862764910E0,-1.447814178E1,-5.225276947E-2,-6.103364944E0,1.571210946E1
2.867790483E0,-1.384684181E1,-7.869269848E-1,-5.526450157E0,1.492969972E1
2.872816055E0,-1.325399590E1,-1.741437674E0,-4.751644135E0,1.418728777E1
2.877841628E0,-1.260026646E1,-2.813045979E0,-3.617455959E0,1.340768176E1
2.882867201E0,-1.214513779E1,-3.918086767E0,-2.273542404E0,1.296243692E1
2.887892774E0,-1.174099064E1,-4.939954281E0,-9.608577490E-1,1.277408537E1
2.892918347E0,-1.144564819E1,-5.992793083E0,2.567156553E-1,1.292216446E1
2.897943920E0,-1.136936951E1,-7.205553055E0,1.344434500E0,1.352738193E1
2.902969493E0,-1.137841320E1,-8.659645081E0,2.277989864E0,1.447919120E1
2.907995066E0,-1.120553303E1,-1.025906277E1,2.990617752E0,1.548406064E1
2.913020639E0,-1.046444511E1,-1.164868736E1,3.453799248E0,1.603512576E1
2.918046212E0,-8.889184952E0,-1.250029087E1,3.638712168E0,1.576436193E1
2.923071785E0,-6.764196396E0,-1.266568661E1,3.622073650E0,1.480855792E1
2.928097358E0,-4.579098701E0,-1.227295017E1,3.591466904E0,1.358278636E1
2.933122930E0,-2.722105026E0,-1.160312366E1,3.520226717E0,1.242716101E1
2.938148503E0,-1.556601524E0,-1.089040565E1,3.559782028E0,1.156269829E1
2.943174076E0,-1.129548073E0,-1.008838272E1,3.871748447E0,1.086470344E1
2.948199649E0,-1.267495155E0,-9.128385544E0,4.387043476E0,1.020686617E1
2.953225222E0,-1.925997734E0,-8.096591949E0,5.063394547E0,9.741777702E0
2.958250795E0,-3.070135117E0,-7.147315502E0,5.900339603E0,9.763393670E0
2.963276368E0,-4.641119957E0,-6.330948830E0,6.671752453E0,1.030209631E1
2.968301941E0,-6.499110222E0,-5.622428417E0,7.295329571E0,1.127262030E1
2.973327514E0,-8.289415359E0,-4.930494308E0,7.679459572E0,1.232875827E1
2.978353087E0,-9.657800674E0,-4.226356983E0,7.703192711E0,1.305658398E1
2.983378660E0,-1.041797352E1,-3.457486153E0,7.365272522E0,1.321876023E1
2.988404233E0,-1.059932995E1,-2.656774044E0,6.823143959E0,1.288252837E1
2.993429805E0,-1.033195305E1,-1.861203074E0,6.235142708E0,1.221025533E1
2.998455378E0,-9.530671120E0,-1.144767284E0,5.553781509E0,1.109002584E1
3.003480951E0,-8.215559006E0,-5.895445347E-1,4.769055843E0,9.517713285E0
3.008506524E0,-6.554830551E0,-3.235011101E-1,3.947068214E0,7.658316004E0
3.013532097E0,-4.754617691E0,-3.203728199E-1,3.234875679E0,5.759639641E0
3.018557670E0,-2.867549896E0,-5.055894852E-1,2.597255945E0,3.901820291E0
3.023583243E0,-9.937820435E-1,-7.811017632E-1,1.993661642E0,2.360595149E0
3.028608816E0,7.332696915E-1,-1.125452757E0,1.498647690E0,2.012529067E0
3.033634389E0,2.180306911E0,-1.498266459E0,1.130114913E0,2.876751697E0
3.038659962E0,3.400566101E0,-1.802733183E0,8.827131987E-1,3.948782006E0
3.043685535E0,4.499908447E0,-1.990348339E0,7.076313496E-1,4.971056696E0
3.048711108E0,5.211052895E0,-2.161498070E0,7.087492943E-1,5.685901137E0
3.053736680E0,5.443761826E0,-2.302421093E0,9.615545273E-1,5.988344747E0
3.058762253E0,5.547544956E0,-2.405034542E0,1.240701675E0,6.172421473E0
3.063787826E0,5.852330685E0,-2.427413940E0,1.411795855E0,6.491169418E0
3.068813399E0,6.328948975E0,-2.446777344E0,1.522312284E0,6.954117427E0
3.073838972E0,6.933891296E0,-2.525139809E0,1.495855331E0,7.529459658E0
3.078864545E0,7.609285831E0,-2.671276093E0,1.343130469E0,8.175631247E0
3.083890118E0,8.306921959E0,-2.836276531E0,1.094376087E0,8.845737731E0
3.088915691E0,9.016983032E0,-3.019174576E0,8.179413080E-1,9.544130453E0
3.093941264E0,9.658021927E0,-3.133000851E0,6.344227195E-1,1.017327745E1
3.098966837E0,1.025401783E1,-3.172204494E0,6.256694794E-1,1.075170802E1
3.103992410E0,1.085765934E1,-3.069392920E0,6.766549945E-1,1.130344201E1
3.109017983E0,1.152163219E1,-2.929297924E0,7.297401428E-1,1.191055479E1
3.114043555E0,1.228421021E1,-2.813288212E0,8.714600801E-1,1.263233366E1
3.119069128E0,1.298273849E1,-2.739406586E0,1.170634270E0,1.332014384E1
3.124094701E0,1.363644028E1,-2.606600285E0,1.538444281E0,1.396830982E1
3.129120274E0,1.429323769E1,-2.376442909E0,1.938511968E0,1.461854826E1
3.134145847E0,1.498682785E1,-2.096505642E0,2.363015175E0,1.531614134E1
3.139171420E0,1.546872807E1,-1.819279313E0,2.751525879E0,1.581651731E1
3.144196993E0,1.561032104E1,-1.468339920E0,3.043625355E0,1.597190660E1
3.149222566E0,1.562265015E1,-1.139837265E0,3.159209251E0,1.597958165E1
3.154248139E0,1.571645355E1,-8.964595795E-1,3.217300653E0,1.606740724E1
3.159273712E0,1.585829735E1,-7.576329708E-1,3.322614670E0,1.622033818E1
3.164299285E0,1.606281662E1,-6.656613350E-1,3.517407417E0,1.645689332E1
3.169324858E0,1.637827682E1,-4.860742092E-1,3.744849682E0,1.680797784E1
3.174350430E0,1.662836266E1,-2.132859230E-1,3.843308926E0,1.706806840E1
3.179376003E0,1.689989853E1,1.055049896E-1,3.836603165E0,1.733024020E1
3.184401576E0,1.710720444E1,4.850158691E-1,3.594855785E0,1.748755764E1
3.189427149E0,1.713098907E1,9.014539719E-1,3.661827087E0,1.754116255E1
3.194452722E0,1.685194778E1,1.349636078E0,3.860526085E0,1.734108772E1
3.199478295E0,1.662908936E1,1.523002148E0,3.703197956E0,1.710438024E1
3.204503868E0,1.652902794E1,1.684257507E0,3.639296055E0,1.700852621E1
3.209529441E0,1.620215225E1,1.737173557E0,3.610380650E0,1.669018748E1
3.214555014E0,1.532797050E1,1.662268639E0,3.577163696E0,1.582737871E1
3.219580587E0,1.414571953E1,1.616670609E0,3.859196901E0,1.475155604E1
3.224606160E0,1.285133934E1,1.651547909E0,4.667796612E0,1.377217697E1
3.229631733E0,1.147778320E1,1.773757458E0,5.924494743E0,1.303784341E1
3.234657305E0,1.012493038E1,2.008558750E0,7.528159142E0,1.277582497E1
3.239682878E0,8.854156494E0,2.304335594E0,9.152282715E0,1.294103275E1
3.244708451E0,7.740594864E0,2.304838657E0,1.087097454E1,1.354279061E1
3.249734024E0,7.073678017E0,2.100090027E0,1.237462997E1,1.440759403E1
3.254759597E0,6.677057266E0,1.551901340E0,1.210915661E1,1.391485412E1
3.259785170E0,6.255558014E0,1.025488377E0,1.187443447E1,1.346052846E1
3.264810743E0,5.689490318E0,7.521038055E-1,1.254548359E1,1.379583701E1
3.269836316E0,4.916643143E0,5.223312378E-1,1.331382465E1,1.420225815E1
3.274861889E0,3.961423874E0,1.648569107E-1,1.388679886E1,1.444171872E1
3.279887462E0,2.962704659E0,-3.574614525E-1,1.431035423E1,1.461819537E1
3.284913035E0,2.030402184E0,-9.624021053E-1,1.461148262E1,1.478323967E1
3.289938608E0,1.011338234E0,-1.534619093E0,1.462197113E1,1.473702482E1
3.294964180E0,-2.145290375E-1,-2.236889362E0,1.437387276E1,1.454846778E1
3.299989753E0,-1.432485580E0,-3.030883074E0,1.371693420E1,1.412064273E1
3.305015326E0,-2.064701080E0,-3.596111059E0,1.315141678E1,1.378966166E1
3.310040899E0,-1.877449036E0,-3.708132744E0,1.293208885E1,1.358359251E1
3.315066472E0,-1.094686508E0,-3.658646822E0,1.304074669E1,1.358841821E1
3.320092045E0,7.104969025E-2,-3.618096828E0,1.303565216E1,1.352863260E1
3.325117618E0,1.375415325E0,-3.654029846E0,1.282889557E1,1.340985693E1
3.330143191E0,2.292983532E0,-3.937481880E0,1.242701912E1,1.323602437E1
3.335168764E0,2.503738403E0,-4.452698708E0,1.191961861E1,1.296813554E1
3.340194337E0,1.747842789E0,-5.023413658E0,1.135022354E1,1.253464055E1
3.345219910E0,-1.371116638E-1,-5.687618256E0,1.064968586E1,1.207408837E1
3.350245483E0,-2.718544006E0,-6.458480358E0,9.728269577E0,1.198923179E1
3.355271055E0,-5.168772697E0,-7.269811153E0,8.691740036E0,1.245442533E1
3.360296628E0,-6.737051010E0,-7.988165855E0,7.536146641E0,1.288379433E1
3.365322201E0,-7.140826225E0,-8.473726273E0,6.186221123E0,1.269112950E1
3.370347774E0,-6.780035019E0,-8.751902580E0,4.696798801E0,1.202599653E1
3.375373347E0,-5.866456985E0,-9.013543129E0,2.960093021E0,1.115443535E1
3.380398920E0,-4.587183952E0,-9.328547478E0,1.197771311E0,1.046416317E1
3.385424493E0,-3.061700821E0,-9.770446777E0,-4.076346159E-1,1.024703899E1
3.390450066E0,-1.557307243E0,-1.028316212E1,-1.716313004E0,1.054107961E1
3.395475639E0,-4.221448898E-1,-1.088271332E1,-2.663178921E0,1.121178743E1
3.400501212E0,2.924346924E-2,-1.150959969E1,-3.253092289E0,1.196053300E1
3.405526785E0,-5.875682831E-2,-1.213440514E1,-3.480192661E0,1.262374672E1
3.410552358E0,-4.707403183E-1,-1.271947861E1,-3.428633213E0,1.318189130E1
3.415577930E0,-1.111291885E0,-1.322306538E1,-3.167207479E0,1.364242027E1
3.420603503E0,-1.808623314E0,-1.356561279E1,-2.835623264E0,1.397632742E1
3.425629076E0,-2.472496033E0,-1.375382233E1,-2.635959864E0,1.422072957E1
3.430654649E0,-3.237514496E0,-1.384688187E1,-2.588788509E0,1.445404661E1
3.435680222E0,-4.118664742E0,-1.382289696E1,-2.686774731E0,1.467155881E1
3.440705795E0,-4.853629112E0,-1.363155270E1,-2.923810720E0,1.476230380E1
3.445731368E0,-5.175473213E0,-1.329386139E1,-3.251467705E0,1.463162041E1
3.450756941E0,-5.123517990E0,-1.288275433E1,-3.559959412E0,1.431394797E1
3.455782514E0,-4.813426971E0,-1.246082020E1,-3.988838196E0,1.394101680E1
3.460808087E0,-4.384604454E0,-1.205647755E1,-4.592182636E0,1.362613476E1
3.465833660E0,-3.914175034E0,-1.166912460E1,-5.362971306E0,1.342574752E1
3.470859233E0,-3.445726395E0,-1.138429928E1,-6.319032669E0,1.346868495E1
3.475884805E0,-3.003595352E0,-1.116306782E1,-7.373082161E0,1.371123659E1
3.480910378E0,-2.635887146E0,-1.094269943E1,-8.504307747E0,1.410722588E1
3.485935951E0,-2.505312920E0,-1.067990303E1,-9.609107971E0,1.458327390E1
3.490961524E0,-2.535195351E0,-1.037523937E1,-1.064535904E1,1.507967097E1
3.495987097E0,-2.486269951E0,-9.900429726E0,-1.147467422E1,1.535800103E1
3.501012670E0,-2.545105934E0,-9.404835701E0,-1.214390373E1,1.556929339E1
3.506038243E0,-2.620600700E0,-9.013928413E0,-1.261847973E1,1.572718933E1
3.511063816E0,-2.631272316E0,-8.589988708E0,-1.283021832E1,1.566288613E1
3.516089389E0,-2.859168053E0,-8.138662338E0,-1.285831547E1,1.548382844E1
3.521114962E0,-3.294115067E0,-7.685233116E0,-1.272404194E1,1.522548014E1
3.526140535E0,-3.777544975E0,-7.116532803E0,-1.232911491E1,1.472827077E1
3.531166108E0,-4.289593697E0,-6.458492279E0,-1.170519161E1,1.404009428E1
3.536191680E0,-4.910681725E0,-5.789671898E0,-1.093684292E1,1.331351301E1
3.541217253E0,-5.668302536E0,-5.198335648E0,-1.011844349E1,1.270965168E1
3.546242826E0,-6.312366486E0,-4.624415874E0,-9.263206482E0,1.212593036E1
3.551268399E0,-6.645849228E0,-4.093164444E0,-8.399497986E0,1.146616211E1
3.556293972E0,-6.744735718E0,-3.624403238E0,-7.575507164E0,1.077107550E1
3.561319545E0,-6.761790276E0,-3.232212543E0,-6.806228638E0,1.012391989E1
3.566345118E0,-6.883438110E0,-2.848591805E0,-5.968204021E0,9.545452044E0
3.571370691E0,-6.999659538E0,-2.405072451E0,-4.996086121E0,8.929752722E0
3.576396264E0,-7.081921577E0,-1.842791080E0,-3.954428673E0,8.317872223E0
3.581421837E0,-7.259471893E0,-1.284969807E0,-2.931312561E0,7.933704866E0
3.586447410E0,-7.694590569E0,-8.075780869E-1,-1.971062064E0,7.983983470E0
3.591472983E0,-8.357728958E0,-3.867964745E-1,-1.040951967E0,8.431181759E0
3.596498555E0,-9.118737221E0,2.948522568E-2,-1.653985977E-1,9.120284786E0
3.601524128E0,-9.905224800E0,3.407049179E-1,5.977730155E-1,9.929093149E0
3.606549701E0,-1.061145782E1,5.516943932E-1,1.066660166E0,1.067919322E1
3.611575274E0,-1.132320309E1,6.721186638E-1,1.274897814E0,1.141455370E1
3.616600847E0,-1.216923046E1,6.972360611E-1,1.309127688E0,1.225928723E1
3.621626420E0,-1.291454887E1,7.081780434E-1,1.317761898E0,1.300090709E1
3.626651993E0,-1.349184513E1,7.381205559E-1,1.396419048E0,1.358398664E1
3.631677566E0,-1.394399071E1,7.294158936E-1,1.482909560E0,1.404157915E1
3.636703139E0,-1.421848106E1,6.437897682E-1,1.568484545E0,1.431921132E1
3.641728712E0,-1.434950638E1,5.010719299E-1,1.768986225E0,1.446681439E1
3.646754285E0,-1.435725880E1,4.172701836E-1,2.372179747E0,1.455789241E1
3.651779858E0,-1.423346996E1,5.186319351E-1,3.473019123E0,1.466023561E1
3.656805430E0,-1.407020283E1,8.264594078E-1,4.916343689E0,1.492729306E1
3.661831003E0,-1.396387100E1,1.410027266E0,6.493390083E0,1.546421628E1
3.666856576E0,-1.400084496E1,2.266292334E0,8.187104225E0,1.637645920E1
3.671882149E0,-1.452557087E1,3.133110523E0,9.876983643E0,1.784274072E1
3.676907722E0,-1.548955822E1,3.795455933E0,1.128572464E1,1.953713081E1
3.681933295E0,-1.684386063E1,4.276506424E0,1.231381798E1,2.129869154E1
3.686958868E0,-1.830984497E1,4.565041542E0,1.279585075E1,2.279964525E1
3.691984441E0,-1.953709030E1,4.759130478E0,1.266693974E1,2.376549142E1
3.697010014E0,-2.033796310E1,4.913260460E0,1.210119057E1,2.417047134E1
3.702035587E0,-2.054941750E1,5.092069626E0,1.125333405E1,2.397593084E1
3.707061160E0,-2.001412010E1,5.356467724E0,1.016302872E1,2.307691276E1
3.712086733E0,-1.882904053E1,5.682291031E0,8.946203232E0,2.160684500E1
3.717112305E0,-1.722081757E1,6.089404583E0,7.785777569E0,1.985587415E1
3.722137878E0,-1.549252510E1,6.593084812E0,6.893251896E0,1.819351596E1
3.727163451E0,-1.382255745E1,7.122925282E0,6.307168961E0,1.678033192E1
3.732189024E0,-1.227844048E1,7.574773788E0,5.878322124E0,1.557857405E1
3.737214597E0,-1.096549034E1,7.935291290E0,5.667501450E0,1.467417456E1
3.742240170E0,-9.931043625E0,8.233426094E0,5.663669586E0,1.408872194E1
3.747265743E0,-9.169445038E0,8.531314850E0,5.898441315E0,1.384390354E1
3.752291316E0,-8.564631462E0,8.790104866E0,6.407772064E0,1.384479680E1
3.757316889E0,-7.957575798E0,8.999633789E0,7.064937592E0,1.393663389E1
3.762342462E0,-7.218159676E0,9.197710037E0,7.829312325E0,1.407117019E1
3.767368035E0,-6.293278694E0,9.427380562E0,8.569702148E0,1.420987881E1
3.772393608E0,-5.106264114E0,9.669977188E0,9.246060371E0,1.432033604E1
3.777419180E0,-3.839057922E0,9.950496674E0,9.928426743E0,1.457135571E1
3.782444753E0,-2.506075859E0,1.026991367E1,1.062010956E1,1.498460110E1
3.787470326E0,-1.030800819E0,1.068196678E1,1.125715542E1,1.555282974E1
3.792495899E0,4.095621109E-1,1.113069248E1,1.185223579E1,1.626454886E1
3.797521472E0,1.613853455E0,1.147403049E1,1.231343937E1,1.690794748E1
3.802547045E0,2.662999153E0,1.171774292E1,1.266019249E1,1.745501468E1
3.807572618E0,3.599365234E0,1.189124870E1,1.281685734E1,1.785018369E1
3.812598191E0,4.307405949E0,1.200929928E1,1.276555443E1,1.804816874E1
3.817623764E0,4.767405510E0,1.205263710E1,1.251737213E1,1.801884628E1
3.822649337E0,5.141314030E0,1.201587009E1,1.216534138E1,1.785524502E1
3.827674910E0,5.657716751E0,1.202727795E1,1.168346691E1,1.769656952E1
3.832700483E0,6.324800014E0,1.202383900E1,1.102727318E1,1.749790139E1
3.837726055E0,7.107608795E0,1.196220970E1,1.024857140E1,1.728137088E1
3.842751628E0,7.890067101E0,1.183305836E1,9.337016106E0,1.701335648E1
3.847777201E0,8.513605118E0,1.157904243E1,8.334471703E0,1.661382299E1
3.852802774E0,8.863230705E0,1.128142262E1,7.287056923E0,1.609125705E1
3.857828347E0,8.996694565E0,1.097749901E1,6.168298721E0,1.547559067E1
3.862853920E0,9.043610573E0,1.064241505E1,4.960391521E0,1.482070762E1
3.867879493E0,9.080909729E0,1.018432713E1,3.793173790E0,1.416233060E1
3.872905066E0,9.104067802E0,9.550118446E0,2.810339212E0,1.349024905E1
3.877930639E0,9.204206467E0,8.806829453E0,2.016042233E0,1.289736748E1
3.882956212E0,9.414969444E0,8.036470413E0,1.418328166E0,1.245946071E1
3.887981785E0,9.688636780E0,7.250353813E0,1.115601301E0,1.215244335E1
3.893007358E0,9.910618782E0,6.512805939E0,1.124787569E0,1.191226901E1
3.898032930E0,9.980790138E0,5.845026016E0,1.348681450E0,1.164471737E1
3.903058503E0,9.770483971E0,5.239231586E0,1.838918209E0,1.123803919E1
3.908084076E0,9.189426422E0,4.663545132E0,2.733964920E0,1.066155595E1
3.913109649E0,8.204836845E0,4.005111217E0,3.986364126E0,9.962497803E0
3.918135222E0,7.094867706E0,3.394429684E0,5.462921143E0,9.576158314E0
3.923160795E0,5.802693367E0,2.904222488E0,6.895908356E0,9.468860049E0
3.928186368E0,4.257149696E0,2.462530136E0,8.032293320E0,9.418339248E0
3.933211941E0,2.348773003E0,1.728969097E0,8.748897552E0,9.222216498E0
3.938237514E0,-1.466789246E-1,4.442146420E-1,9.152418137E0,9.164365723E0
3.943263087E0,-3.013214111E0,-1.398105621E0,9.381833076E0,9.952534877E0
3.948288660E0,-5.800718307E0,-3.575404167E0,9.492736816E0,1.168520005E1
3.953314233E0,-8.255661964E0,-5.879836082E0,9.409991264E0,1.383026979E1
3.958339805E0,-1.004821587E1,-8.207962036E0,8.986179352E0,1.578254423E1
3.963365378E0,-1.080571365E1,-1.038270950E1,8.116923332E0,1.704255112E1
3.968390951E0,-1.019865513E1,-1.193737698E1,7.023263931E0,1.719999336E1
3.973416524E0,-8.547988892E0,-1.257037544E1,5.811579227E0,1.627442490E1
3.978442097E0,-6.499501228E0,-1.249612331E1,4.293478966E0,1.472516811E1
3.983467670E0,-4.550321579E0,-1.203484249E1,2.475027323E0,1.310223723E1
3.988493243E0,-3.106723785E0,-1.131695366E1,1.173859596E0,1.179419854E1
3.993518816E0,-2.493631363E0,-1.058443546E1,6.873761415E-1,1.089591471E1
3.998544389E0,-2.820537567E0,-1.027663803E1,7.043532133E-1,1.067992672E1
4.003569962E0,-4.015178680E0,-1.054245949E1,8.634516597E-1,1.131417963E1
4.008595535E0,-5.670808792E0,-1.122646713E1,8.735090494E-1,1.260772203E1
4.013621108E0,-7.314305305E0,-1.204533672E1,6.097592115E-1,1.410535378E1
4.018646680E0,-8.726556778E0,-1.279753208E1,2.199168652E-1,1.549122281E1
4.023672253E0,-9.884671211E0,-1.334831333E1,-6.637647748E-2,1.660989463E1
4.028697826E0,-1.077517223E1,-1.377766800E1,-2.103105783E-1,1.749207543E1
4.033723399E0,-1.131265068E1,-1.411738014E1,-3.028779328E-1,1.809331983E1
4.038748972E0,-1.133029556E1,-1.425053978E1,-3.786317408E-1,1.820980076E1
4.043774545E0,-1.078090286E1,-1.412197399E1,-4.205445051E-1,1.777174369E1
4.048800118E0,-9.751150131E0,-1.369049931E1,-3.638809919E-1,1.681211199E1
4.053825691E0,-8.361066818E0,-1.298087597E1,-2.723815739E-1,1.544295215E1
4.058851264E0,-6.850127220E0,-1.207914543E1,-2.129114866E-1,1.388795624E1
4.063876837E0,-5.400154114E0,-1.120510769E1,-1.745538116E-1,1.243971751E1
4.068902410E0,-4.001453400E0,-1.045846558E1,-2.563318610E-1,1.120075165E1
4.073927983E0,-2.692184448E0,-9.843144417E0,-4.377751648E-1,1.021405875E1
4.078953555E0,-1.472217560E0,-9.338980675E0,-7.316586971E-1,9.482579240E0
4.083979128E0,-3.940553665E-1,-8.911310196E0,-1.179016590E0,8.997600189E0
4.089004701E0,5.137739182E-1,-8.540073395E0,-1.801753044E0,8.743176268E0
4.094030274E0,1.275385857E0,-8.167243958E0,-2.512031555E0,8.639489885E0
4.099055847E0,1.967471600E0,-7.768613815E0,-3.179540634E0,8.621588238E0
4.104081420E0,2.566171646E0,-7.348772049E0,-3.788816214E0,8.657067393E0
4.109106993E0,2.990304470E0,-6.912909508E0,-4.334818363E0,8.690275538E0
4.114132566E0,3.321402550E0,-6.399616241E0,-4.856873035E0,8.693446878E0
4.119158139E0,3.746194363E0,-5.791099072E0,-5.251533031E0,8.668875350E0
4.124183712E0,4.298087120E0,-5.078617096E0,-5.482503891E0,8.621122515E0
4.129209285E0,4.761686802E0,-4.338885307E0,-5.537000179E0,8.494584033E0
4.134234858E0,5.008005142E0,-3.591335535E0,-5.402076244E0,8.195134787E0
4.139260430E0,5.123483658E0,-2.836426258E0,-5.160931587E0,7.805806400E0
4.144286003E0,5.141961098E0,-2.127500772E0,-4.796528339E0,7.346611980E0
4.149311576E0,5.116379738E0,-1.517678499E0,-4.425450325E0,6.932914267E0
4.154337149E0,5.090084076E0,-9.834322929E-1,-4.168430328E0,6.652210638E0
4.159362722E0,5.053812027E0,-4.535250664E-1,-4.087820053E0,6.515901609E0
4.164388295E0,4.998329163E0,7.625627518E-2,-4.288403511E0,6.586312634E0
4.169413868E0,5.005311966E0,6.292178631E-1,-4.721524239E0,6.909548041E0
4.174439441E0,5.089500427E0,1.199607015E0,-5.338448524E0,7.472690562E0
4.179465014E0,5.169955730E0,1.772234559E0,-6.070467949E0,8.168221269E0
4.184490587E0,5.309355259E0,2.398806572E0,-6.877322674E0,9.013384126E0
4.189516160E0,5.527277946E0,3.068757772E0,-7.661549568E0,9.933147414E0
4.194541733E0,5.699803352E0,3.675889015E0,-8.187064171E0,1.063145983E1
4.199567305E0,5.836915970E0,4.138429642E0,-8.524322510E0,1.112925254E1
4.204592878E0,5.981945038E0,4.427529335E0,-8.748973846E0,1.148613189E1
4.209618451E0,6.120586872E0,4.457382202E0,-8.817860603E0,1.162258600E1
4.214644024E0,6.209661961E0,4.228762627E0,-8.645247459E0,1.145349897E1
4.219669597E0,6.301506996E0,3.747673273E0,-8.294816017E0,1.107059249E1
4.224695170E0,6.390979767E0,3.144528389E0,-7.869081497E0,1.061391185E1
4.229720743E0,6.439408302E0,2.487651348E0,-7.389509678E0,1.011233118E1
4.234746316E0,6.365163803E0,1.802170157E0,-6.762244701E0,9.459972564E0
4.239771889E0,6.273315430E0,1.227841854E0,-6.089619637E0,8.828677671E0
4.244797462E0,6.307145119E0,9.184486866E-1,-5.411561966E0,8.361138107E0
4.249823035E0,6.403992653E0,8.892457485E-1,-4.676735878E0,7.979582594E0
4.254848608E0,6.281240463E0,1.035806179E0,-3.899333954E0,7.465365462E0
4.259874180E0,5.881292343E0,1.210757732E0,-3.106269836E0,6.760506357E0
4.264899753E0,5.108325481E0,1.438899398E0,-2.385593891E0,5.818632048E0
4.269925326E0,3.871670723E0,1.615298510E0,-1.788006663E0,4.560262195E0
4.274950899E0,1.932939053E0,1.548028231E0,-1.250301957E0,2.774148476E0
4.279976472E0,-6.874361038E-1,1.245568514E0,-6.812092662E-1,1.577357088E0
4.285002045E0,-3.691414833E0,9.164884090E-1,-6.135451794E-2,3.803979344E0
4.290027618E0,-6.881566048E0,5.486600399E-1,7.235358953E-1,6.941216269E0
4.295053191E0,-1.036674881E1,5.280256271E-3,1.682796001E0,1.050244310E1
4.300078764E0,-1.404048634E1,-8.839411736E-1,2.534064531E0,1.429468753E1
4.305104337E0,-1.753346634E1,-2.222188711E0,3.162362099E0,1.795441724E1
4.310129910E0,-2.054400253E1,-4.030820847E0,3.500210047E0,2.122628152E1
4.315155483E0,-2.265645981E1,-6.062261581E0,3.455756187E0,2.370671714E1
4.320181055E0,-2.344680595E1,-7.861760616E0,3.257457256E0,2.494335617E1
4.325206628E0,-2.248257828E1,-8.920042038E0,3.256779671E0,2.440573887E1
4.330232201E0,-2.004966927E1,-8.955417633E0,3.517031193E0,2.223866568E1
4.335257774E0,-1.699345207E1,-8.048551559E0,3.682490110E0,1.916030608E1
4.340283347E0,-1.406223774E1,-6.825524807E0,3.699966431E0,1.606312768E1
4.345308920E0,-1.190717220E1,-5.793399334E0,3.956922531E0,1.382032784E1
4.350334493E0,-1.061364841E1,-5.015565395E0,4.500722885E0,1.257226851E1
4.355360066E0,-1.011821365E1,-4.456104279E0,5.416069031E0,1.231133285E1
4.360385639E0,-1.036674690E1,-4.094700336E0,6.629234314E0,1.296852959E1
4.365411212E0,-1.112339783E1,-3.840860128E0,7.871343613E0,1.415769176E1
4.370436785E0,-1.207138824E1,-3.567398071E0,8.884636879E0,1.540719039E1
4.375462358E0,-1.296139145E1,-3.253364563E0,9.589230537E0,1.644796010E1
4.380487930E0,-1.397016907E1,-3.012453556E0,9.949253082E0,1.741344702E1
4.385513503E0,-1.495871353E1,-2.829689503E0,9.924745560E0,1.817335488E1
4.390539076E0,-1.543918228E1,-2.580251217E0,9.509889603E0,1.831567760E1
4.395564649E0,-1.504400539E1,-2.191190243E0,8.841788292E0,1.758694496E1
4.400590222E0,-1.378881454E1,-1.688425541E0,7.956053257E0,1.600877793E1
4.405615795E0,-1.195249939E1,-1.191344500E0,6.926456928E0,1.386568963E1
4.410641368E0,-9.818457603E0,-7.266324162E-1,5.773587227E0,1.141334368E1
4.415666941E0,-7.545298576E0,-3.295867443E-1,4.593701363E0,8.839810532E0
4.420692514E0,-5.339047432E0,7.573187351E-3,3.438654184E0,6.350576937E0
4.425718087E0,-3.300087929E0,3.302774429E-1,2.517801285E0,4.164010907E0
4.430743660E0,-1.475948334E0,6.640986204E-1,1.767223835E0,2.396357766E0
4.435769233E0,1.864404678E-1,9.861316681E-1,1.165352106E0,1.537940586E0
4.440794805E0,1.725768089E0,1.249108553E0,8.050203323E-1,2.277411998E0
4.445820378E0,3.013264179E0,1.424492478E0,7.502655387E-1,3.416407208E0
4.450845951E0,4.068456173E0,1.416620970E0,1.032826781E0,4.430110807E0
4.455871524E0,5.164218426E0,1.359434247E0,1.652335882E0,5.589939829E0
4.460897097E0,6.386518478E0,1.520511866E0,2.479982853E0,7.017826555E0
4.465922670E0,7.649047852E0,1.852012515E0,3.310914278E0,8.538151834E0
4.470948243E0,8.832151413E0,2.186517239E0,4.022246838E0,9.948177011E0
4.475973816E0,9.907238960E0,2.495683670E0,4.616143703E0,1.121118207E1
4.480999389E0,1.081711292E1,2.765137196E0,5.162244320E0,1.230059682E1
4.486024962E0,1.166251850E1,3.075931549E0,5.633830070E0,1.331224000E1
4.491050535E0,1.249628925E1,3.494832754E0,5.988858223E0,1.429116944E1
4.496076108E0,1.317508030E1,3.935129166E0,6.218130112E0,1.509082915E1
4.501101680E0,1.373742867E1,4.300479889E0,6.269506454E0,1.570088484E1
4.506127253E0,1.420745754E1,4.571083069E0,6.181910038E0,1.615433880E1
4.511152826E0,1.466187286E1,4.731982231E0,5.965933800E0,1.652133584E1
4.516178399E0,1.521083164E1,4.902624607E0,5.651524544E0,1.695124942E1
4.521203972E0,1.565354538E1,5.054424286E0,5.325985909E0,1.729007848E1
4.526229545E0,1.590432358E1,5.230737686E0,4.957383633E0,1.746092144E1
4.531255118E0,1.584889984E1,5.436558247E0,4.566632271E0,1.736657485E1
4.536280691E0,1.550695992E1,5.657339096E0,4.111990452E0,1.701116565E1
4.541306264E0,1.496022320E1,5.825964928E0,3.569851637E0,1.644670138E1
4.546331837E0,1.435236740E1,5.890025139E0,2.986837864E0,1.579886219E1
4.551357410E0,1.364992714E1,5.859980583E0,2.441617012E0,1.505394888E1
4.556382983E0,1.269517708E1,5.770415783E0,2.098488569E0,1.410208756E1
4.561408555E0,1.154571533E1,5.774832249E0,2.049780130E0,1.307110663E1
4.566434128E0,1.032589054E1,5.987401009E0,2.354264975E0,1.216616414E1
4.571459701E0,9.073766708E0,6.440559387E0,3.085071564E0,1.154693527E1
4.576485274E0,7.903959274E0,7.013827324E0,4.100690842E0,1.133499057E1
4.581510847E0,6.754097939E0,7.472590923E0,5.303059101E0,1.138331630E1
4.586536420E0,5.504643917E0,7.697952747E0,6.627779961E0,1.155365952E1
4.591561993E0,3.859290123E0,7.633414745E0,8.240734100E0,1.187740878E1
4.596587566E0,1.775387287E0,7.379577637E0,1.016493130E1,1.268605512E1
4.601613139E0,-6.178960800E-1,7.140861034E0,1.218874264E1,1.413998370E1
4.606638712E0,-2.971990585E0,6.866882324E0,1.402379513E1,1.589508197E1
4.611664285E0,-5.197418213E0,6.401331902E0,1.539602566E1,1.746504544E1
4.616689858E0,-7.243240356E0,5.568855286E0,1.627193832E1,1.866152879E1
4.621715430E0,-8.900814056E0,4.443102360E0,1.655746269E1,1.931619062E1
4.626741003E0,-1.002823925E1,3.137463331E0,1.654290581E1,1.959788231E1
4.631766576E0,-1.093291569E1,1.704466105E0,1.585383034E1,1.933333356E1
4.636792149E0,-1.181648922E1,3.046870232E-2,1.451596165E1,1.871746480E1
4.641817722E0,-1.259335709E1,-1.963798165E0,1.259195805E1,1.791665575E1
4.646843295E0,-1.289550400E1,-4.198560238E0,1.052196026E1,1.716489380E1
4.651868868E0,-1.262726402E1,-6.291644096E0,8.540927887E0,1.649181710E1
4.656894441E0,-1.185040092E1,-7.874127388E0,6.690721989E0,1.572258391E1
4.661920014E0,-1.074660969E1,-8.806366920E0,4.884946823E0,1.472767543E1
4.666945587E0,-9.737521172E0,-9.197556496E0,3.316200256E0,1.379896910E1
4.671971160E0,-9.149954796E0,-9.210862160E0,2.358546972E0,1.319562042E1
4.676996733E0,-8.880584717E0,-9.035072327E0,2.050075054E0,1.283355464E1
4.682022305E0,-8.965260506E0,-8.707363129E0,2.590816975E0,1.276347920E1
4.687047878E0,-9.498105049E0,-8.439172745E0,3.848026037E0,1.327557684E1
4.692073451E0,-1.028255081E1,-8.362586021E0,5.589867592E0,1.438437749E1
4.697099024E0,-1.113245869E1,-8.658861160E0,7.447280407E0,1.594896544E1
4.702124597E0,-1.188120651E1,-9.418818474E0,9.128898621E0,1.769785297E1
4.707150170E0,-1.234184074E1,-1.047006035E1,1.047016716E1,1.927608874E1
4.712175743E0,-1.231119537E1,-1.155836201E1,1.111686134E1,2.021746448E1
4.717201316E0,-1.162229729E1,-1.250454807E1,1.077260971E1,2.018639732E1
4.722226889E0,-1.057947159E1,-1.320396423E1,9.408538818E0,1.935950653E1
4.727252462E0,-9.413394928E0,-1.345953941E1,7.491666794E0,1.805259750E1
4.732278035E0,-7.677577019E0,-1.294505882E1,5.532678127E0,1.603528185E1
4.737303608E0,-6.307018757E0,-1.207653141E1,3.465240955E0,1.405805788E1
4.742329180E0,-5.431169033E0,-1.149380779E1,1.188832283E0,1.276787127E1
4.747354753E0,-4.785053730E0,-1.085485268E1,-1.045910835E0,1.190875708E1
4.752380326E0,-4.407753468E0,-1.023433781E1,-3.119735718E0,1.157163393E1
4.757405899E0,-3.711585283E0,-9.338779449E0,-4.840057850E0,1.115413945E1
4.762431472E0,-2.777238846E0,-8.077354431E0,-5.893090248E0,1.037714907E1
4.767457045E0,-1.916841030E0,-6.777091503E0,-6.588553429E0,9.644287691E0
4.772482618E0,-1.458562255E0,-5.674742222E0,-7.136341095E0,9.233497028E0
4.777508191E0,-1.626290321E0,-4.892224312E0,-7.617519379E0,9.198112872E0
4.782533764E0,-2.070604801E0,-4.335264206E0,-7.994009018E0,9.326633914E0
4.787559337E0,-2.529962301E0,-3.861149788E0,-8.223187447E0,9.430270341E0
4.792584910E0,-3.183535099E0,-3.551126719E0,-8.836380959E0,1.004126611E1
4.797610483E0,-3.824343443E0,-3.442615032E0,-9.225192070E0,1.056320831E1
4.802636055E0,-4.251534939E0,-3.432973146E0,-9.837881088E0,1.125365533E1
4.807661628E0,-4.887284756E0,-3.191359043E0,-9.246232033E0,1.093449275E1
4.812687201E0,-5.852486134E0,-3.078023911E0,-8.653467178E0,1.089074466E1
4.817712774E0,-6.334940434E0,-2.395750999E0,-7.864505768E0,1.037889898E1
4.822738347E0,-7.227279186E0,-2.213505983E0,-6.430435181E0,9.923893882E0
4.827763920E0,-7.322526932E0,-9.002194405E-1,-3.887610435E0,8.339263193E0
4.832789493E0,-7.154994488E0,7.759485245E-1,-1.010304451E0,7.267513833E0
4.837815066E0,-7.504133224E0,1.452945232E0,-1.644325256E-1,7.645266729E0
4.842840639E0,-8.087690353E0,1.439023495E0,-1.524278641E0,8.354935622E0
4.847866212E0,-8.619151115E0,6.462309361E-1,-3.620143890E0,9.370849596E0
4.852891785E0,-8.190695763E0,4.411420822E-1,-5.505511284E0,9.878904692E0
4.857917358E0,-7.064569473E0,1.325234413E0,-5.947196007E0,9.329176193E0
4.862942930E0,-8.523738861E0,-1.874437332E-1,-6.754515648E0,1.087716604E1
4.867968503E0,-9.232956886E0,-1.177533627E0,-8.444204330E0,1.256736508E1
4.872994076E0,-9.570208549E0,-2.277786970E0,-9.949833870E0,1.399201198E1
4.878019649E0,-8.922159195E0,-2.536144733E0,-1.140734959E1,1.470253650E1
4.883045222E0,-7.717547417E0,-2.069030046E0,-1.199597359E1,1.441335512E1
4.888070795E0,-6.186043262E0,-1.238691807E0,-1.206227970E1,1.361249721E1
4.893096368E0,-4.914141655E0,-5.657944679E-1,-1.173681545E1,1.273663019E1
4.898121941E0,-4.150891781E0,-2.648892403E-1,-1.079104710E1,1.156489370E1
4.903147514E0,-3.749506712E0,-1.781663895E-1,-9.321382523E0,1.004881665E1
4.908173087E0,-3.413272381E0,-1.777505875E-1,-7.576487541E0,8.311749941E0
4.913198660E0,-3.162551641E0,-1.805434227E-1,-5.464464188E0,6.316224954E0
4.918224233E0,-3.197801590E0,-4.012601376E-1,-2.802330971E0,4.270831720E0
4.923249805E0,-1.009612274E1,-1.303012967E0,4.085842133E0,1.096921342E1
4.928275378E0,-4.403952408E1,-2.893941402E-1,1.989608002E1,4.832615679E1
4.933300951E0,-2.844878769E1,9.939682484E-1,1.333754730E1,3.143583404E1
4.938326524E0,2.671530724E0,1.795377254E0,4.004197121E0,5.137514036E0
4.943352097E0,1.090175438E1,9.706792831E-1,-1.366077423E0,1.102980663E1
4.948377670E0,6.843742371E0,-1.216410398E0,-2.674798012E0,7.447886163E0
4.953403243E0,1.485716581E0,-2.999165058E0,-2.883718014E0,4.417937798E0
4.958428816E0,-7.999961972E-1,-4.329418182E0,-2.779698372E0,5.206781996E0
4.963454389E0,-1.998831034E0,-4.916735649E0,-2.558862686E0,5.892146739E0
4.968479962E0,-3.300243616E0,-5.262943745E0,-2.351787567E0,6.642370778E0
4.973505535E0,-3.278965712E0,-5.654181004E0,-2.059170246E0,6.852850579E0
4.978531108E0,-2.440032005E0,-5.368185520E0,-1.935351849E0,6.206187134E0
4.983556680E0,-1.177101374E0,-4.416313171E0,-1.756137848E0,4.896264884E0
4.988582253E0,-4.985755682E-1,-2.667489052E0,-1.464126587E0,3.083462680E0
4.993607826E0,-6.786894798E-1,-6.031465530E-1,2.566995621E-1,9.435570145E-1
4.998633399E0,-1.656255841E0,3.390617371E-1,3.911278725E0,4.261014848E0
5.003658972E0,-1.306116819E0,-4.196443558E-1,7.174880981E0,7.304858632E0
5.008684545E0,4.190919399E-1,-1.858138204E0,8.866353989E0,9.068657491E0
5.013710118E0,4.201728821E0,-4.592501640E0,5.608553886E0,8.378631935E0
5.018735691E0,7.486083984E0,-6.499181747E0,-1.025193214E0,9.966535904E0
5.023761264E0,7.942952633E0,-5.911938190E0,-4.947036266E0,1.106863485E1
5.028786837E0,7.574058533E0,-5.180308342E0,-5.937994003E0,1.092985498E1
5.033812410E0,8.408208847E0,-4.848916531E0,-3.949604034E0,1.047899516E1
5.038837983E0,1.082175922E1,-3.795445919E0,1.222745895E0,1.153303906E1
5.043863555E0,8.444488525E0,-6.502899647E0,1.467234612E0,1.075871125E1
5.048889128E0,6.448255539E0,-8.825737000E0,5.324811935E-1,1.094336188E1
5.053914701E0,5.324391365E0,-9.142009735E0,2.703309059E0,1.091940316E1
5.058940274E0,3.639876842E0,-8.302350998E0,7.815260887E0,1.196896145E1
5.063965847E0,1.517031670E0,-7.394890785E0,1.714846420E1,1.873647831E1
5.068991420E0,-2.071377277E0,-6.102505684E0,2.480380440E1,2.562732706E1
5.074016993E0,-4.858908176E0,-3.600609303E0,2.273246193E1,2.352314183E1
5.079042566E0,-3.831442833E0,-7.722572088E-1,1.580106640E1,1.627728585E1
5.084068139E0,-2.047999144E0,4.757747650E-1,8.696958542E0,8.947499651E0
5.089093712E0,-3.498158455E-1,8.230408430E-1,3.352455139E0,3.469686270E0
5.094119285E0,3.303605318E-1,1.270831823E0,1.684484482E-1,1.323830232E0
5.099144858E0,-8.704280853E-2,1.294411063E0,-1.215982437E0,1.778114096E0
5.104170430E0,-7.875895500E-1,2.418150902E-1,-1.865874290E0,2.039671225E0
5.109196003E0,-4.656009674E-1,-1.189035058E0,-2.984453201E0,3.246159198E0
5.114221576E0,9.671764374E-1,-1.814364791E0,-4.476429462E0,4.926029901E0
5.119247149E0,2.611532688E0,-1.228684306E0,-5.508707523E0,6.218973121E0
5.124272722E0,4.074300289E0,1.481890678E-2,-5.904527664E0,7.173812751E0
5.129298295E0,4.937292099E0,1.292299986E0,-6.186148643E0,8.019683757E0
5.134323868E0,4.972102165E0,2.407749891E0,-6.516422272E0,8.542998227E0
5.139349441E0,4.610767365E0,3.305016756E0,-7.138711929E0,9.118306831E0
5.144375014E0,3.874219418E0,4.493696690E0,-7.602973461E0,9.644070276E0
5.149400587E0,1.264811397E0,4.134849072E0,-7.723164082E0,8.851213936E0
5.154426160E0,-1.055668235E0,3.535006523E0,-8.370392799E0,9.147359300E0
5.159451733E0,-2.030218840E-1,4.183638573E0,-8.652389526E0,9.612902481E0
5.164477305E0,-2.575448036E0,3.577988625E0,-9.079261780E0,1.009296436E1
5.169502878E0,-3.216417789E0,3.120873928E0,-9.511873245E0,1.051479577E1
5.174528451E0,-1.113242865E0,3.143771648E0,-8.958951950E0,9.559572684E0
5.179554024E0,1.413774967E0,3.377928734E0,-7.238559723E0,8.112084137E0
5.184579597E0,3.029349327E0,3.435606003E0,-5.293365002E0,7.000004214E0
5.189605170E0,3.609915018E0,3.164917946E0,-3.687505722E0,6.053584929E0
5.194630743E0,3.510900497E0,2.630078793E0,-2.438527584E0,5.018979332E0
5.199656316E0,4.230485439E0,2.891207933E0,-1.540269852E0,5.350562735E0
5.204681889E0,6.059853554E0,3.596743584E0,-1.110931396E0,7.133902023E0
5.209707462E0,6.666862488E0,3.710914612E0,-9.567508698E-1,7.689818913E0
5.214733035E0,5.843548298E0,2.984585047E0,-6.506652832E-1,6.593797838E0
5.219758608E0,4.639876842E0,1.404739022E0,7.877254486E-2,4.848500175E0
5.224784180E0,3.010656834E0,-1.203441620E-2,1.078358650E0,3.197976982E0
5.229809753E0,1.327113628E0,-4.163480997E-1,1.609830856E0,2.127470730E0
5.234835326E0,1.631994247E-1,-3.553411961E-1,1.695884705E0,1.740381093E0
5.239860899E0,-8.321633339E-1,-6.955860853E-1,1.851416588E0,2.145711816E0
5.244886472E0,-1.615167379E0,-1.456647277E0,1.386376381E0,2.579268583E0
5.249912045E0,-2.473701477E0,-2.602111578E0,8.110542297E-1,3.680759789E0
5.254937618E0,-3.202666998E0,-3.929770947E0,1.652345657E-1,5.072226144E0
5.259963191E0,-3.622767448E0,-5.391625881E0,-5.621109009E-1,6.519972568E0
5.264988764E0,-3.875066757E0,-6.920485020E0,-1.285974979E0,8.035109640E0
5.270014337E0,-4.102722168E0,-8.214507103E0,-2.085256577E0,9.415877608E0
5.275039910E0,-3.720742941E0,-9.368261337E0,-2.862340927E0,1.047860888E1
5.280065483E0,-2.789316416E0,-1.034249020E1,-3.343327045E0,1.122164093E1
5.285091055E0,-1.269927740E0,-1.083943176E1,-3.380640507E0,1.142517955E1
5.290116628E0,6.566548347E-1,-1.070130444E1,-3.190557957E0,1.118609728E1
5.295142201E0,3.345139980E0,-1.047046089E1,-2.103856087E0,1.119136825E1
5.300167774E0,6.111038685E0,-1.001773262E1,-9.552145004E-1,1.177336806E1
5.305193347E0,9.160725594E0,-1.016960335E1,-3.276424408E-1,1.369113126E1
5.310218920E0,1.180215645E1,-1.074764919E1,1.312309265E0,1.601639833E1
5.315244493E0,1.330334663E1,-1.170457745E1,4.198801994E0,1.821005500E1
5.320270066E0,1.037466431E1,-1.151227570E1,5.987435341E0,1.661371521E1
5.325295639E0,5.613584042E0,-1.076376247E1,6.908011436E0,1.396751697E1
5.330321212E0,1.649094582E0,-1.021373081E1,7.327324867E0,1.267791386E1
5.335346785E0,-1.199354887E0,-9.101514816E0,7.706458092E0,1.198605525E1
5.340372358E0,-3.332287788E0,-7.992262363E0,7.695054054E0,1.158422447E1
5.345397930E0,-4.625492096E0,-7.103264809E0,6.279913902E0,1.054935385E1
5.350423503E0,-4.309535980E0,-5.555387020E0,4.479271889E0,8.336564158E0
5.355449076E0,-2.557359219E0,-3.662033081E0,2.845877647E0,5.296186557E0
5.360474649E0,9.765768051E-2,-2.010904789E0,2.762252808E0,3.418086550E0
5.365500222E0,3.455887318E0,1.993343234E-1,3.875859261E0,5.196650492E0
5.370525795E0,4.502081394E0,1.176041126E0,4.093008041E0,6.197138407E0
5.375551368E0,4.087531090E0,1.852825284E0,3.927141190E0,5.963498123E0
5.380576941E0,2.756492138E0,2.234991550E0,3.653750420E0,5.093459361E0
5.385602514E0,7.385778427E-1,2.050684452E0,2.887185097E0,3.617546369E0
5.390628087E0,-1.513623238E0,1.493745923E0,1.782544136E0,2.774850588E0
5.395653660E0,-3.191863775E0,7.728331089E-1,3.852596283E-1,3.306613125E0
5.400679233E0,-4.824344635E0,8.677554131E-2,-9.014024734E-1,4.908600368E0
5.405704805E0,-6.722382545E0,-4.327208996E-1,-2.053000450E0,7.042193218E0
5.410730378E0,-8.372997284E0,-1.714905500E-1,-3.089022636E0,8.926284410E0
5.415755951E0,-6.714957237E0,3.341028690E0,-4.873862267E0,8.944699928E0
5.420781524E0,-4.543987751E0,5.271257401E0,-5.788641930E0,9.052201647E0
5.425807097E0,-3.702111721E0,5.204311848E0,-6.329872131E0,8.992095095E0
5.430832670E0,-4.372301102E0,5.175703526E0,-6.846188545E0,9.631989488E0
5.435858243E0,-3.479887724E0,5.280747890E0,-7.349922657E0,9.696250818E0
5.440883816E0,-2.334759474E0,4.829578400E0,-7.232502460E0,9.004722159E0
5.445909389E0,-1.977068782E0,4.229717255E0,-7.002167702E0,8.416035976E0
5.450934962E0,-1.017584562E0,4.700407982E0,-7.022746086E0,8.511655311E0
5.455960535E0,1.059749126E0,6.641107559E0,-6.498665810E0,9.352007011E0
5.460986108E0,1.403817654E0,7.620058060E0,-3.399704933E0,8.461322738E0
5.466011680E0,4.074055672E0,7.360839844E0,2.604433060E0,8.806983841E0
5.471037253E0,3.092816353E0,6.735173225E0,2.934581757E0,7.971188208E0
5.476062826E0,3.504802227E0,6.252345085E0,3.476866722E0,7.966433325E0
5.481088399E0,4.917459488E0,5.574735641E0,3.576797485E0,8.249397889E0
5.486113972E0,5.026040077E0,4.554389477E0,3.082474709E0,7.450180715E0
5.491139545E0,5.351714134E0,3.622890949E0,3.007846832E0,7.128346623E0
5.496165118E0,5.858469486E0,2.776175976E0,3.020973206E0,7.152279139E0
5.501190691E0,5.517922878E0,1.938527942E0,3.054130554E0,6.597960057E0
5.506216264E0,5.028104305E0,8.856058121E-2,2.061312675E0,5.434950398E0
5.511241837E0,4.192060471E0,-5.761983395E-1,1.766612053E0,4.585443671E0
5.516267410E0,2.944022894E0,-1.097611189E0,5.393133163E-1,3.187927222E0
5.521292983E0,1.693855762E0,-1.278451204E0,3.046417236E-1,2.143919636E0
5.526318555E0,7.051558495E-1,-1.922212362E0,1.595792770E-1,2.053682226E0
5.531344128E0,-6.894922256E-2,-2.999323845E0,-5.607824326E-1,3.052077073E0
5.536369701E0,-4.139750004E-1,-3.627427340E0,-2.025315762E0,4.175105788E0
5.541395274E0,-7.817068100E-1,-4.633642197E0,-3.148385525E0,5.656327161E0
5.546420847E0,-8.355700970E-1,-5.717122555E0,-4.367972374E0,7.243124350E0
5.551446420E0,-4.599709511E-1,-6.369118214E0,-5.576993942E0,8.478213345E0
5.556471993E0,3.163650036E-1,-6.613336086E0,-6.486449242E0,9.268782270E0
5.561497566E0,1.160114765E0,-6.761502743E0,-7.329393387E0,1.003911316E1
5.566523139E0,1.686588287E0,-7.028518200E0,-8.439129829E0,1.111141577E1
5.571548712E0,1.835454464E0,-7.451181412E0,-9.750896454E0,1.240842372E1
5.576574285E0,1.764320374E0,-8.075062752E0,-1.114614296E1,1.387645371E1
5.581599858E0,1.409647942E0,-8.982965469E0,-1.238112259E1,1.536141180E1
5.586625430E0,6.473059654E-1,-1.007056904E1,-1.317437840E1,1.659516833E1
5.591651003E0,-3.624219894E-1,-1.119528103E1,-1.374304199E1,1.772954794E1
5.596676576E0,-1.463300705E0,-1.238649845E1,-1.406527328E1,1.879889639E1
5.601702149E0,-2.612900972E0,-1.356346512E1,-1.376137161E1,1.949795338E1
5.606727722E0,-3.633495331E0,-1.471314812E1,-1.283601189E1,1.986056940E1
5.611753295E0,-4.528983593E0,-1.587090588E1,-1.164846420E1,2.020109066E1
5.616778868E0,-5.341088295E0,-1.697163773E1,-1.032910156E1,2.057313905E1
5.621804441E0,-6.102223873E0,-1.779221535E1,-9.027894020E0,2.086391463E1
5.626830014E0,-6.672360420E0,-1.829649734E1,-7.642575741E0,2.092107006E1
5.631855587E0,-7.131516457E0,-1.861660194E1,-6.216178894E0,2.088246334E1
5.636881160E0,-7.598122120E0,-1.894696808E1,-4.889483452E0,2.099109591E1
5.641906733E0,-8.005135536E0,-1.935743713E1,-3.742309809E0,2.127903781E1
5.646932305E0,-8.335144997E0,-1.967457008E1,-2.662899971E0,2.153263538E1
5.651957878E0,-8.543390274E0,-1.976387978E1,-1.530469894E0,2.158570822E1
5.656983451E0,-8.486063957E0,-1.964000702E1,-3.390400410E-1,2.139761915E1
5.662009024E0,-8.212006569E0,-1.936152840E1,1.199968696E0,2.106527376E1
5.667034597E0,-7.842791557E0,-1.888717651E1,3.069930315E0,2.067992476E1
5.672060170E0,-7.428795338E0,-1.824293900E1,5.136489391E0,2.035621150E1
5.677085743E0,-6.920133591E0,-1.747452354E1,7.261723042E0,2.014894150E1
5.682111316E0,-6.425069332E0,-1.686651802E1,8.910607338E0,2.012858339E1
5.687136889E0,-5.937358856E0,-1.657815742E1,9.796599388E0,2.015095267E1
5.692162462E0,-5.384079933E0,-1.653450775E1,9.772443771E0,1.994690253E1
5.697188035E0,-4.850421906E0,-1.662776947E1,9.040552139E0,1.953819063E1
5.702213608E0,-4.268622398E0,-1.673662567E1,7.693547249E0,1.890836972E1
5.707239180E0,-3.704186916E0,-1.684088516E1,5.889129639E0,1.822136827E1
5.712264753E0,-3.321685791E0,-1.679527855E1,4.251368523E0,1.764055306E1
5.717290326E0,-1.974379539E0,-1.704765701E1,2.265994549E0,1.731056081E1
5.722315899E0,-6.212997437E-2,-1.714384270E1,3.615064621E-1,1.714776631E1
5.727341472E0,1.217214584E0,-1.664441681E1,-3.635938168E-1,1.669282549E1
5.732367045E0,3.465985298E0,-1.651952362E1,-9.248552322E-1,1.690452815E1
5.737392618E0,6.649027348E0,-1.674858856E1,-1.316974640E0,1.806818214E1
5.742418191E0,1.014252663E1,-1.669874573E1,-1.047268867E0,1.956567728E1
5.747443764E0,1.360462570E1,-1.605801773E1,1.154756546E-2,2.104628013E1
5.752469337E0,1.706106949E1,-1.480621243E1,1.502216816E0,2.263980287E1
5.757494910E0,2.025513840E1,-1.310426331E1,3.105925798E0,2.432363302E1
5.762520483E0,2.284932709E1,-1.132260609E1,4.576157570E0,2.590819127E1
5.767546055E0,2.475158501E1,-9.781915665E0,5.910729408E0,2.726286039E1
5.772571628E0,2.622932625E1,-8.614789963E0,6.857587814E0,2.844676910E1
5.777597201E0,2.723904800E1,-7.723831177E0,7.278874397E0,2.923363331E1
5.782622774E0,2.754598618E1,-6.993110657E0,7.252198696E0,2.933051887E1
5.787648347E0,2.727479935E1,-6.268621922E0,6.711858749E0,2.877949527E1
5.792673920E0,2.610088158E1,-5.334503174E0,5.913426399E0,2.728885404E1
5.797699493E0,2.402216339E1,-4.012369633E0,5.117575645E0,2.488680423E1
5.802725066E0,2.182642937E1,-2.587656498E0,4.054348946E0,2.235009464E1
5.807750639E0,2.004212189E1,-1.427102089E0,2.751523256E0,2.028038832E1
5.812776212E0,1.864111519E1,-6.538686752E-1,1.366035104E0,1.870253383E1
5.817801785E0,1.733629799E1,-1.521534920E-1,1.212644577E-1,1.733738976E1
5.822827358E0,1.597442818E1,2.128558159E-1,-8.371549845E-1,1.599776521E1
5.827852930E0,1.454168320E1,5.620684624E-1,-1.570353150E0,1.463702429E1
5.832878503E0,1.307753181E1,9.689159393E-1,-2.068018198E0,1.327544107E1
5.837904076E0,1.172716331E1,1.373202801E0,-2.344245434E0,1.203775444E1
5.842929649E0,1.050612926E1,1.633216381E0,-2.533869267E0,1.093007966E1
5.847955222E0,9.353603363E0,1.741288185E0,-2.800238371E0,9.917828157E0
5.852980795E0,8.323677063E0,1.866599083E0,-3.004829645E0,9.044157959E0
5.858006368E0,7.398481369E0,2.330940723E0,-2.838737726E0,8.260099461E0
5.863031941E0,6.698985577E0,3.063402653E0,-2.602596283E0,7.812448463E0
5.868057514E0,6.426603317E0,4.054572582E0,-2.601533175E0,8.031734799E0
5.873083087E0,6.408307076E0,5.241500378E0,-2.904278994E0,8.773514818E0
5.878108660E0,6.345951080E0,6.637167931E0,-3.501555204E0,9.827714999E0
5.883134233E0,6.276412487E0,8.235456467E0,-4.430507183E0,1.126257035E1
5.888159805E0,6.298423290E0,9.972866058E0,-5.631923676E0,1.307083615E1
5.893185378E0,6.634764671E0,1.166183376E1,-7.107413769E0,1.518333954E1
5.898210951E0,6.823757648E0,1.312938881E1,-8.490726471E0,1.705980524E1
5.903236524E0,6.877906799E0,1.429395866E1,-9.740964890E0,1.861475902E1
5.908262097E0,6.656997204E0,1.539483833E1,-1.050656319E1,1.979152670E1
5.913287670E0,6.868000984E0,1.616908646E1,-1.103544521E1,2.074583923E1
5.918313243E0,7.479400635E0,1.634870529E1,-1.165616131E1,2.142633181E1
5.923338816E0,7.259528637E0,1.642642593E1,-1.147806644E1,2.131371001E1
5.928364389E0,7.055845261E0,1.623039627E1,-1.123940849E1,2.096509048E1
5.933389962E0,7.259769440E0,1.552654934E1,-1.149420071E1,2.063721485E1
5.938415535E0,5.886608124E0,1.471294308E1,-1.096925068E1,1.927296837E1
5.943441108E0,4.027318954E0,1.370074558E1,-1.060833836E1,1.778950731E1
5.948466680E0,2.562034607E0,1.271260929E1,-1.003440189E1,1.639706308E1
5.953492253E0,1.632646561E0,1.189388943E1,-9.273319244E0,1.516985795E1
5.958517826E0,1.212287903E0,1.120731449E1,-8.618807793E0,1.419004538E1
5.963543399E0,1.315603256E0,1.074869347E1,-8.033744812E0,1.348355587E1
5.968568972E0,1.974764824E0,1.073702431E1,-7.218189716E0,1.308761437E1
5.973594545E0,2.909715176E0,1.095005035E1,-6.227220535E0,1.292858541E1
5.978620118E0,3.959875584E0,1.103635406E1,-5.034632206E0,1.276045638E1
5.983645691E0,5.060901165E0,1.086034203E1,-3.868075132E0,1.259054227E1
5.988671264E0,6.106113911E0,1.052606583E1,-3.050822258E0,1.254552531E1
5.993696837E0,7.008582592E0,1.018571663E1,-2.665568590E0,1.264809508E1
5.998722410E0,7.786461353E0,9.843053818E0,-2.817149639E0,1.286277656E1
6.003747983E0,8.132863045E0,9.588065147E0,-3.169254303E0,1.296605674E1
6.008773555E0,7.675390720E0,9.238625526E0,-3.510643721E0,1.251353042E1
6.013799128E0,6.517012119E0,8.432192802E0,-4.174979210E0,1.144568800E1
6.018824701E0,5.110416889E0,7.108845711E0,-5.197249413E0,1.018152491E1
6.023850274E0,3.879304409E0,5.295334816E0,-6.415233135E0,9.178496047E0
6.028875847E0,2.725468159E0,3.118884087E0,-7.098001480E0,8.218104382E0
6.033901420E0,1.111541271E0,1.060727119E0,-6.413880348E0,6.595341321E0
6.038926993E0,-6.090879440E-1,-4.939117432E-1,-4.731637478E0,4.796178703E0
6.043952566E0,-1.620421410E0,-1.371143818E0,-2.673296928E0,3.413549089E0
6.048978139E0,-1.822053432E0,-1.508838177E0,-5.921930075E-1,2.438680773E0
6.054003712E0,-1.425995350E0,-1.243031979E0,9.827737808E-1,2.131768173E0
6.059029285E0,-4.684062004E-1,-9.391474724E-1,1.941366196E0,2.206876763E0
6.064054858E0,9.467153549E-1,-8.674283028E-1,2.676497459E0,2.968558653E0
6.069080430E0,2.596256256E0,-9.294104576E-1,3.145457268E0,4.183091174E0
6.074106003E0,4.147763252E0,-9.453201294E-1,3.338453054E0,5.407664832E0
6.079131576E0,5.770539761E0,-1.047334194E0,3.514112234E0,6.837033190E0
6.084157149E0,6.816034794E0,-1.702320576E0,3.500245571E0,7.849072857E0
6.089182722E0,6.231915474E0,-3.107069016E0,3.880433798E0,7.971725961E0
6.094208295E0,4.156992912E0,-4.579209805E0,3.893316746E0,7.308054994E0
6.099233868E0,2.099154949E0,-5.411265850E0,3.091299057E0,6.576045883E0
6.104259441E0,4.253296852E-1,-5.858334541E0,1.960640073E0,6.192341918E0
6.109285014E0,-4.657320976E-1,-5.874717712E0,9.639190435E-1,5.971461673E0
6.114310587E0,-2.594256401E-1,-5.407479286E0,3.484801054E-1,5.424902974E0
6.119336160E0,4.247393608E-1,-4.682463646E0,-2.752760053E-1,4.709739504E0
6.124361733E0,5.033607483E-1,-3.753583431E0,-1.992439628E-1,3.792421229E0
6.129387305E0,3.341546059E-1,-3.315994263E0,-6.852459908E-2,3.333492594E0
6.134412878E0,7.047157288E-1,-3.055081844E0,3.384975195E-1,3.153526582E0
6.139438451E0,8.767409325E-1,-2.718738556E0,1.326392293E0,3.149528618E0
6.144464024E0,8.498029709E-1,-2.212671757E0,2.371511459E0,3.352931254E0
6.149489597E0,6.477112770E-1,-1.839436054E0,3.194374561E0,3.742603871E0
6.154515170E0,3.185710907E-1,-1.556475639E0,3.864635944E0,4.178458440E0
6.159540743E0,2.166895866E-1,-1.273460388E0,4.225845814E0,4.418871867E0
6.164566316E0,-3.094863892E-2,-1.038604259E0,4.165675163E0,4.293309468E0
6.169591889E0,-9.731135368E-1,-9.848914146E-1,4.343190193E0,4.558537277E0
6.174617462E0,-2.243726730E0,-1.033784389E0,4.679073811E0,5.291195662E0
6.179643035E0,-3.606009960E0,-1.115811348E0,4.792703152E0,6.100684084E0
6.184668608E0,-4.795012474E0,-1.089835644E0,4.667988777E0,6.780118405E0
6.189694180E0,-6.001124859E0,-7.820868492E-1,4.581482887E0,7.590464074E0
6.194719753E0,-6.812682152E0,-3.353929520E-1,4.275633812E0,8.050228011E0
6.199745326E0,-7.182712555E0,2.741122246E-1,3.666589260E0,8.069099947E0
6.204770899E0,-7.509754658E0,9.880695343E-1,3.078189850E0,8.176059514E0
6.209796472E0,-7.861697674E0,1.518703699E0,2.632355690E0,8.428644477E0
6.214822045E0,-8.066765785E0,1.861086845E0,2.367813587E0,8.610626903E0
6.219847618E0,-8.077685356E0,2.048343897E0,2.527585030E0,8.708237452E0
6.224873191E0,-8.119803429E0,2.247352600E0,2.856496811E0,8.896143853E0
6.229898764E0,-8.088489532E0,2.280118227E0,2.608010292E0,8.799109030E0
6.234924337E0,-7.974939823E0,2.227407217E0,1.913428187E0,8.498365462E0
6.239949910E0,-7.679409981E0,2.084043503E0,1.267782569E0,8.057533594E0
6.244975483E0,-7.479892731E0,2.088902473E0,8.203264475E-1,7.809304981E0
6.250001055E0,-7.409902096E0,2.150905371E0,4.951306581E-1,7.731636137E0
6.255026628E0,-7.148831844E0,1.849568367E0,7.345676422E-2,7.384585011E0
6.260052201E0,-6.629820824E0,1.673614740E0,-3.053098321E-1,6.844612812E0
6.265077774E0,-5.714709282E0,1.565277338E0,-4.974426627E-1,5.946044444E0
6.270103347E0,-4.662714958E0,1.093124151E0,-3.028037548E-1,4.798699960E0
6.275128920E0,-3.139516354E0,9.436559677E-2,-1.862695217E-1,3.146452627E0
6.280154493E0,-8.926506042E-1,-1.895169258E0,-6.599928737E-1,2.196379341E0
6.285180066E0,1.239702225E0,-4.826990128E0,-1.813613534E0,5.303384707E0
6.290205639E0,1.642200470E0,-8.052222252E0,-2.803327084E0,8.682957348E0
6.295231212E0,-4.767227173E-2,-1.048785686E1,-2.653844357E0,1.081851673E1
6.300256785E0,-1.795263290E0,-1.152888203E1,-1.491038799E0,1.176270750E1
6.305282358E0,-1.881226540E0,-1.143980217E1,4.078085423E-1,1.160062045E1
6.310307930E0,1.418104172E-1,-1.053326607E1,2.873942614E0,1.091921931E1
6.315333503E0,3.632655144E0,-9.289791107E0,5.218664646E0,1.125748031E1
6.320359076E0,7.355688095E0,-8.312896729E0,7.035696030E0,1.314197162E1
6.325384649E0,1.016222095E1,-7.727064610E0,8.750276566E0,1.547726081E1
6.330410222E0,1.141870499E1,-8.045346260E0,9.704805374E0,1.700875267E1
6.335435795E0,1.096932888E1,-9.942966461E0,9.255187988E0,1.745987580E1
6.340461368E0,1.023062897E1,-1.350709724E1,7.041258812E0,1.834902642E1
6.345486941E0,9.784073830E0,-1.695014381E1,2.757472992E-1,1.957323460E1
6.350512514E0,7.162164688E0,-1.938919640E1,-1.049645138E1,2.318217055E1
6.355538087E0,3.197486877E0,-2.060452461E1,-2.156550217E1,2.999735389E1
6.360563660E0,5.252761841E-1,-2.028727913E1,-3.000113678E1,3.622040609E1
6.365589233E0,3.844194412E-1,-1.852580452E1,-3.437772751E1,3.905357039E1
6.370614805E0,2.239921570E0,-1.538819790E1,-3.470887756E1,3.803314429E1
6.375640378E0,5.005485535E0,-1.171869087E1,-3.127524376E1,3.377163711E1
6.380665951E0,7.863581657E0,-8.559833527E0,-2.510886765E1,2.766878929E1
6.385691524E0,1.033348656E1,-6.364368916E0,-1.828858566E1,2.194899774E1
6.390717097E0,1.191196156E1,-4.932220459E0,-1.215084171E1,1.771622367E1
6.395742670E0,1.222189903E1,-3.782978535E0,-7.427196980E0,1.479354581E1
6.400768243E0,1.129405975E1,-2.797121525E0,-4.289863110E0,1.240091126E1
6.405793816E0,9.661779404E0,-2.020599365E0,-2.356024504E0,1.014808625E1
6.410819389E0,7.896155357E0,-1.355020046E0,-1.063175440E0,8.081812344E0
6.415844962E0,6.251807213E0,-7.598543167E-1,1.695531607E-2,6.297837684E0
6.420870535E0,4.805886269E0,-2.430491447E-1,1.115205050E0,4.939564557E0
6.425896108E0,3.644512177E0,2.869501114E-1,2.471604347E0,4.412894449E0
6.430921680E0,2.681266785E0,9.066324234E-1,4.042582035E0,4.934941077E0
6.435947253E0,1.949148178E0,1.553261280E0,5.588003159E0,6.118625542E0
6.440972826E0,1.256161690E0,2.159126282E0,7.058659077E0,7.487618877E0
6.445998399E0,4.441862106E-1,2.719108105E0,8.390431404E0,8.831205434E0
6.451023972E0,-2.954320908E-1,3.281067848E0,9.375523567E0,9.937460868E0
6.456049545E0,-1.192223549E0,3.768935204E0,9.691356659E0,1.046654974E1
6.461075118E0,-2.135922432E0,4.159347534E0,9.213239670E0,1.033180148E1
6.466100691E0,-2.982665062E0,4.501110554E0,8.191139221E0,9.810761888E0
6.471126264E0,-3.937641144E0,4.718960285E0,7.032501698E0,9.339683296E0
6.476151837E0,-4.780200958E0,4.766269207E0,5.915555477E0,8.975602484E0
6.481177410E0,-5.414580822E0,4.921134472E0,4.913753986E0,8.813638761E0
6.486202983E0,-5.926911354E0,5.164671421E0,4.095350266E0,8.864197814E0
6.491228555E0,-5.996915817E0,5.468080521E0,3.394217730E0,8.796795888E0
6.496254128E0,-5.888543129E0,5.916767120E0,2.777152777E0,8.797479803E0
6.501279701E0,-6.013583183E0,6.510118008E0,2.138414860E0,9.116887478E0
6.506305274E0,-6.175801277E0,7.061223030E0,1.549844384E0,9.508070767E0
6.511330847E0,-6.265190601E0,7.527026176E0,1.260417938E0,9.874076651E0
6.516356420E0,-6.286805630E0,7.950374603E0,1.355976224E0,1.022599887E1
6.521381993E0,-6.212178707E0,8.350246429E0,1.711299896E0,1.054733744E1
6.526407566E0,-6.175595760E0,8.826726913E0,2.081469536E0,1.097185520E1
6.531433139E0,-6.029010773E0,9.302803040E0,2.356318474E0,1.133328514E1
6.536458712E0,-5.820887566E0,9.634181976E0,2.598481655E0,1.155215570E1
6.541484285E0,-5.599600792E0,9.868099213E0,2.923250198E0,1.171666774E1
6.546509858E0,-5.356108665E0,1.000864983E1,3.302133799E0,1.182222733E1
6.551535430E0,-5.162534237E0,1.003147221E1,3.677875042E0,1.186629509E1
6.556561003E0,-4.985689163E0,9.883561134E0,3.892715931E0,1.173435616E1
6.561586576E0,-4.749230385E0,9.612632751E0,3.865734100E0,1.139744699E1
6.566612149E0,-4.510780334E0,9.395530701E0,3.731057882E0,1.106995616E1
6.571637722E0,-4.428191185E0,9.236906052E0,3.541063547E0,1.083828592E1
6.576663295E0,-4.443860054E0,8.940586090E0,3.367327452E0,1.053664396E1
6.581688868E0,-4.562111855E0,8.559808731E0,3.415519238E0,1.028343142E1
6.586714441E0,-4.844318390E0,8.172174454E0,3.484169960E0,1.011885845E1
6.591740014E0,-5.146131992E0,7.687796593E0,3.358260155E0,9.841890174E0
6.596765587E0,-5.390410423E0,7.217666626E0,3.134406805E0,9.538120469E0
6.601791160E0,-5.672252655E0,6.734025002E0,2.799742937E0,9.239053167E0
6.606816733E0,-5.828228951E0,6.152091503E0,2.547827005E0,8.849175386E0
6.611842253E0,-5.680943489E0,5.716957569E0,2.623927593E0,8.475949433E0
6.616867774E0,-5.211462498E0,5.534010410E0,2.955677986E0,8.156018940E0
6.621893295E0,-4.477899551E0,5.401563644E0,3.250066280E0,7.732490221E0
6.626918816E0,-3.510031700E0,5.189196110E0,3.343598843E0,7.101248624E0
6.631944337E0,-2.366621494E0,4.909576416E0,3.341082573E0,6.392782699E0
6.636969858E0,-1.326471806E0,4.670793533E0,3.428636551E0,5.944021221E0
6.641995378E0,-5.720109940E-1,4.347048283E0,3.557824135E0,5.646427005E0
6.647020899E0,-3.141355515E-2,3.717919111E0,3.474657297E0,5.088924509E0
6.652046420E0,3.914499283E-1,2.807917833E0,3.126307964E0,4.220359830E0
6.657071941E0,8.838720322E-1,1.646975279E0,2.598755121E0,3.201138160E0
6.662097462E0,1.690398216E0,2.173128128E-1,1.733942747E0,2.431301799E0
6.667122983E0,2.868313789E0,-1.642650604E0,5.730532408E-1,3.354685532E0
6.672148503E0,4.417063713E0,-3.850614071E0,-3.143935800E-1,5.868264129E0
6.677174024E0,5.370400429E0,-6.022543907E0,-6.576876640E-1,8.095973625E0
6.682199545E0,5.979125023E0,-8.065435410E0,-9.139410257E-1,1.008149159E1
6.687225066E0,6.369457245E0,-9.580290794E0,-9.279294014E-1,1.154179407E1
6.692250587E0,5.729571342E0,-1.015005112E1,-1.357218623E-1,1.165632643E1
6.697276108E0,4.807094574E0,-1.010031700E1,1.085318565E0,1.123843753E1
6.702301628E0,4.553257942E0,-9.638149261E0,2.117356300E0,1.086780920E1
6.707327149E0,4.918334961E0,-8.865879059E0,2.403574228E0,1.041974085E1
6.712352670E0,5.627972603E0,-7.958061218E0,1.656033278E0,9.886721407E0
6.717378191E0,6.460198402E0,-6.980130672E0,-1.313479543E-1,9.511763238E0
6.722403712E0,7.111970901E0,-5.829879761E0,-2.508773565E0,9.532133703E0
6.727429233E0,7.358088493E0,-4.556783676E0,-5.281147957E0,1.013884942E1
6.732454753E0,6.855281830E0,-3.352171421E0,-9.132390976E0,1.190094564E1
6.737480274E0,5.810776711E0,-2.276863575E0,-1.311747646E1,1.452643874E1
6.742505795E0,4.289027214E0,-1.580455780E0,-1.490333748E1,1.558855551E1
6.747531368E0,3.422184944E0,-1.812789440E0,-1.504024601E1,1.553082597E1
6.752556941E0,4.166816711E0,-2.694498062E0,-1.377977085E1,1.464598122E1
6.757582514E0,4.338793755E0,-3.490807533E0,-1.140891361E1,1.269543927E1
6.762608087E0,3.880188942E0,-3.969652653E0,-8.179461479E0,9.885221216E0
6.767633660E0,3.149835587E0,-4.175460339E0,-4.633494854E0,6.987503690E0
6.772659233E0,1.956533432E0,-4.410037041E0,-1.286045074E0,4.993031314E0
6.777684805E0,5.786790848E-1,-4.715343952E0,1.963345647E0,5.140434242E0
6.782710378E0,-5.423378944E-1,-4.950439453E0,5.028190613E0,7.076982550E0
6.787735951E0,-1.080007553E0,-5.026669502E0,7.599119186E0,9.174989646E0
6.792761524E0,-9.472713470E-1,-4.755184650E0,9.290723801E0,1.047982122E1
6.797787097E0,-2.351307869E-1,-4.016058445E0,9.634196281E0,1.044039031E1
6.802812670E0,7.634544373E-1,-2.892231941E0,8.981968880E0,9.466975929E0
6.807838243E0,1.697910309E0,-1.558270931E0,8.125139236E0,8.445649491E0
6.812863816E0,2.423995018E0,-2.215528488E-1,7.194556713E0,7.595161869E0
6.817889389E0,2.950819969E0,9.684295654E-1,6.066919804E0,6.815622511E0
6.822914962E0,3.942453384E0,2.110739946E0,5.240949154E0,6.889536257E0
6.827940535E0,5.372763634E0,3.504183292E0,5.084267139E0,8.185087779E0
6.832966108E0,6.751338005E0,5.159788132E0,5.343863010E0,1.003797043E1
6.837991680E0,7.679224014E0,6.677429199E0,5.483702183E0,1.155982404E1
6.843017253E0,8.207901955E0,7.715478897E0,5.234061241E0,1.242150016E1
6.848042826E0,8.370531082E0,8.259151459E0,4.858901978E0,1.272353339E1
6.853068399E0,8.158115387E0,8.452739716E0,4.602931976E0,1.261707724E1
6.858093972E0,7.629631996E0,8.537372589E0,4.476449966E0,1.229376344E1
6.863119545E0,6.629267693E0,8.524964333E0,4.131423473E0,1.156247668E1
6.868145118E0,5.432516098E0,8.227607727E0,3.235143423E0,1.037650775E1
6.873170691E0,4.438609123E0,7.835148335E0,2.192564011E0,9.268124800E0
6.878196264E0,3.777622223E0,7.579040527E0,1.488214493E0,8.598085098E0
6.883221837E0,3.396939278E0,7.383170128E0,9.259709120E-1,8.179720027E0
6.888247410E0,3.229184151E0,6.993970394E0,2.063849866E-1,7.706221312E0
6.893272983E0,3.349842072E0,6.611686707E0,-5.324652195E-1,7.430973168E0
6.898298555E0,3.876369476E0,6.559245110E0,-9.048572183E-1,7.672594301E0
6.903324128E0,4.385125160E0,6.651397228E0,-1.157812357E0,8.050524033E0
6.908349701E0,4.663691521E0,6.411891460E0,-1.393516779E0,8.050109298E0
6.913375274E0,4.673093796E0,5.505218029E0,-1.704544902E0,7.419616196E0
6.918400847E0,5.082928658E0,3.855276108E0,-2.242880821E0,6.762383602E0
6.923426420E0,5.863861084E0,1.371503830E0,-3.114933491E0,6.780022140E0
6.928451993E0,6.360701561E0,-2.036130905E0,-4.885560989E0,8.274844989E0
6.933477566E0,6.321793556E0,-5.891763687E0,-7.418246746E0,1.138895684E1
6.938503139E0,4.932681084E0,-9.105561256E0,-1.052169895E1,1.476308698E1
6.943528712E0,2.533933640E0,-1.093965816E1,-1.337887573E1,1.746686166E1
6.948554285E0,-4.087719917E-1,-1.165413857E1,-1.548286247E1,1.938311303E1
6.953579858E0,-2.683681011E0,-1.157490730E1,-1.554128265E1,1.956302863E1
6.958605430E0,-2.461312771E0,-1.127663803E1,-1.420665264E1,1.830436028E1
6.963631003E0,2.026338577E-1,-1.073279572E1,-1.101705265E1,1.538211343E1
6.968656576E0,4.198417664E0,-9.572069168E0,-5.867640018E0,1.198667670E1
6.973682149E0,9.182166100E0,-7.998912334E0,7.067307234E-1,1.219812449E1
6.978707722E0,1.502465343E1,-6.356683254E0,7.772645950E0,1.807101707E1
6.983733295E0,2.073836708E1,-4.917102337E0,1.385245609E1,2.541944737E1
6.988758868E0,2.503765106E1,-3.836725712E0,1.771245384E1,3.090850135E1
6.993784441E0,2.810055161E1,-3.324043274E0,1.898050880E1,3.407271604E1
6.998810014E0,2.944715309E1,-3.327635765E0,1.825043106E1,3.480353745E1
7.003835587E0,2.802024841E1,-3.658038139E0,1.629908943E1,3.262170873E1
7.008861160E0,2.453413773E1,-4.274455070E0,1.340211868E1,2.828094173E1
7.013886733E0,1.973881912E1,-4.965653896E0,9.674201012E0,2.253594605E1
7.018912305E0,1.492938042E1,-5.562406540E0,5.402422905E0,1.682298842E1
7.023937878E0,1.065748215E1,-5.574816227E0,1.373108625E0,1.210561560E1
7.028963451E0,7.046683311E0,-4.700876713E0,-2.404509783E0,8.805433258E0
7.033989024E0,4.142007828E0,-3.003990173E0,-6.193651199E0,8.033772525E0
7.039014597E0,2.049116135E0,-7.883229256E-1,-9.498929977E0,9.749358988E0
7.044040170E0,6.281719208E-1,1.649786472E0,-1.226214027E1,1.238856245E1
7.049065743E0,-6.106109619E-1,3.960100651E0,-1.388534927E1,1.445192608E1
7.054091316E0,-1.041970730E0,5.682927608E0,-1.400080585E1,1.514608642E1
7.059116889E0,7.170019150E-1,6.455780983E0,-1.390557194E1,1.534783798E1
7.064142462E0,1.498375893E0,7.061844826E0,-1.196342468E1,1.397277041E1
7.069168035E0,1.248214722E0,7.151782990E0,-9.031609535E0,1.158775262E1
7.074193608E0,2.978105545E-1,6.524116516E0,-6.208925247E0,9.011300692E0
7.079219180E0,-1.493156910E0,5.439993858E0,-3.865920782E0,6.838742153E0
7.084244753E0,-3.914766312E0,4.247897148E0,-2.176948547E0,6.173259304E0
7.089270326E0,-6.465839386E0,3.066845417E0,-8.319830298E-1,7.204499673E0
7.094295899E0,-8.943046570E0,2.020495176E0,5.109772682E-1,9.182678284E0
7.099321472E0,-1.102445221E1,1.098302126E0,1.933869123E0,1.124654008E1
7.104347045E0,-1.248008347E1,4.087829590E-1,3.440223217E0,1.295201616E1
7.109372618E0,-1.340148735E1,-1.770687103E-2,5.142762661E0,1.435437858E1
7.114398191E0,-1.382330132E1,-2.957041264E-1,6.989748001E0,1.549282664E1
7.119423764E0,-1.375172806E1,-4.498288631E-1,8.827841759E0,1.634757354E1
7.124449337E0,-1.335075188E1,-4.858002663E-1,1.038291454E1,1.691991407E1
7.129474910E0,-1.282238579E1,-5.101730824E-1,1.137633038E1,1.714919085E1
7.134500483E0,-1.227278709E1,-5.867745876E-1,1.169098759E1,1.696009429E1
7.139526055E0,-1.185094643E1,-7.890183926E-1,1.140581322E1,1.646693828E1
7.144551628E0,-1.161458778E1,-1.137195587E0,1.075344372E1,1.586910253E1
7.149577201E0,-1.155405045E1,-1.573981524E0,9.990972519E0,1.535555376E1
7.154602774E0,-1.173130608E1,-2.008113623E0,9.269337654E0,1.508564494E1
7.159628347E0,-1.216991425E1,-2.476998806E0,8.494384766E0,1.504649156E1
7.164653920E0,-1.271642399E1,-3.137261391E0,7.520127773E0,1.510305167E1
7.169679493E0,-1.338482285E1,-4.025358200E0,6.250543594E0,1.531098581E1
7.174705066E0,-1.430365562E1,-4.923691750E0,4.950780392E0,1.591689452E1
7.179730639E0,-1.538596344E1,-5.624300003E0,3.767868519E0,1.680944540E1
7.184756212E0,-1.620515823E1,-6.162961006E0,2.816305161E0,1.756476064E1
7.189781785E0,-1.645477104E1,-6.571140289E0,2.081463814E0,1.784017563E1
7.194807358E0,-1.616842651E1,-6.752303600E0,1.624130249E0,1.759685821E1
7.199832930E0,-1.553275490E1,-6.577068806E0,1.455560684E0,1.693053353E1
7.204858503E0,-1.462895584E1,-6.088675499E0,1.489105105E0,1.591526790E1
7.209884076E0,-1.345710945E1,-5.498464584E0,1.687866449E0,1.463474635E1
7.214909649E0,-1.207512379E1,-4.903630257E0,1.979449272E0,1.318227687E1
7.219935222E0,-1.054133320E1,-4.253514290E0,2.180018902E0,1.157430654E1
7.224960795E0,-8.967063904E0,-3.526413679E0,2.133964539E0,9.869023920E0
7.229986368E0,-7.545355797E0,-2.705925941E0,1.833878040E0,8.222988384E0
7.235011941E0,-6.560317993E0,-1.761604309E0,1.233984590E0,6.903893096E0
7.240037514E0,-6.056427479E0,-8.061099052E-1,2.712526321E-1,6.115856847E0
7.245063087E0,-5.910051346E0,2.463531494E-2,-9.226118326E-1,5.981682573E0
7.250088660E0,-6.101740360E0,7.301383018E-1,-2.116789818E0,6.499625874E0
7.255114233E0,-6.768965721E0,1.435074925E0,-3.183358192E0,7.616567886E0
7.260139805E0,-7.770925045E0,1.963437676E0,-4.188794136E0,9.043691717E0
7.265165378E0,-8.933015823E0,2.250129700E0,-5.112069607E0,1.053542173E1
7.270190951E0,-1.010933495E1,2.402501583E0,-5.858777046E0,1.192878600E1
7.275216524E0,-1.094864559E1,2.594496727E0,-6.055885315E0,1.277802804E1
7.280242097E0,-1.110089684E1,2.984542370E0,-5.542284012E0,1.276143862E1
7.285267670E0,-1.071971512E1,3.566820621E0,-4.705244064E0,1.223821160E1
7.290293243E0,-9.997439384E0,4.177050591E0,-3.958379030E0,1.153539381E1
7.295318816E0,-9.007127762E0,4.760470867E0,-3.248337269E0,1.069308788E1
7.300344389E0,-8.328739166E0,5.176484108E0,-2.987317085E0,1.025124125E1
7.305369962E0,-8.333484650E0,5.317510605E0,-2.910684347E0,1.030509431E1
7.310395535E0,-7.652557373E0,5.609757900E0,-2.597300291E0,9.837529509E0
7.315421108E0,-5.992128372E0,6.365765572E0,-1.978204608E0,8.963362495E0
7.320446680E0,-4.188571453E0,7.389422894E0,-1.261553884E0,8.587154343E0
7.325472253E0,-2.508096218E0,8.418544769E0,-3.617112637E-1,8.791659554E0
7.330497826E0,-9.633321762E-1,9.296817780E0,3.145943284E-1,9.351887473E0
7.335523399E0,1.946225166E-1,1.005090714E1,8.177810907E-1,1.008599911E1
7.340548972E0,8.496532440E-1,1.073706150E1,1.405838013E0,1.086198789E1
7.345574545E0,6.519651413E-1,1.173260498E1,2.451038361E0,1.200361059E1
7.350600118E0,1.237422943E0,1.204202652E1,2.681993484E0,1.239898009E1
7.355625691E0,-1.091673851E0,1.260877800E1,3.598795891E0,1.315767329E1
7.360651264E0,-1.260239601E0,1.189110374E1,3.967306376E0,1.259865358E1
7.365676837E0,-2.614331245E-1,1.086543655E1,2.341015339E0,1.111784204E1
7.370702410E0,-6.037716866E-1,1.025282478E1,1.520993233E0,1.038259971E1
7.375727983E0,-2.395072937E0,1.013471794E1,1.386978865E0,1.050583612E1
7.380753555E0,-3.919051886E0,9.963731766E0,8.475356698E-1,1.074026234E1
7.385779128E0,-5.350378036E0,9.767244339E0,2.288765311E-1,1.113903010E1
7.390804701E0,-6.882828712E0,9.797053337E0,-9.955084324E-2,1.197353313E1
7.395830274E0,-7.940677166E0,1.005014515E1,-6.927764416E-2,1.280876929E1
7.400855847E0,-8.418407440E0,1.050335503E1,2.347593904E-1,1.346273236E1
7.405881420E0,-8.570024490E0,1.101799202E1,6.259959936E-1,1.397259242E1
7.410906993E0,-8.400803566E0,1.140249443E1,7.845442295E-1,1.418470618E1
7.415932566E0,-7.907136917E0,1.165578556E1,8.025972843E-1,1.410759773E1
7.420958139E0,-7.300863266E0,1.173342323E1,8.292180300E-1,1.384425613E1
7.425983712E0,-7.209416866E0,1.160572815E1,1.017245173E0,1.370048923E1
7.431009285E0,-6.527634621E0,1.099515343E1,8.882637024E-1,1.281766067E1
7.436034858E0,-5.701553822E0,1.015479469E1,2.085453868E-1,1.164779217E1
7.441060430E0,-5.315406322E0,9.308650970E0,-6.821864843E-1,1.074103839E1
7.446086003E0,-4.971876144E0,8.327040672E0,-1.673611641E0,9.841754654E0
7.451111576E0,-4.479471207E0,7.243189812E0,-2.390005827E0,8.845427564E0
7.456137149E0,-4.579087257E0,5.995123863E0,-2.455051422E0,7.933273456E0
7.461162722E0,-5.712888718E0,4.556647778E0,-1.933664799E0,7.559047296E0
7.466188295E0,-7.101894855E0,3.042475700E0,-9.400840998E-1,7.783143776E0
7.471213868E0,-8.297837257E0,1.764262438E0,3.045875132E-1,8.488786642E0
7.476239441E0,-8.978090286E0,8.076570034E-1,1.702999353E0,9.173800838E0
7.481265014E0,-8.912403107E0,2.699518204E-2,3.267090559E0,9.492393723E0
7.486290587E0,-8.096433640E0,-8.342790604E-1,5.150258064E0,9.631895834E0
7.491316160E0,-6.536174297E0,-1.794219017E0,7.169409275E0,9.866165703E0
7.496341733E0,-4.271902084E0,-2.762269974E0,9.031965256E0,1.036608312E1
7.501367305E0,-1.444785595E0,-3.811821938E0,1.070068455E1,1.145085332E1
7.506392878E0,2.239230156E0,-5.036388397E0,1.159150600E1,1.283520047E1
7.511418451E0,6.581183434E0,-6.721601486E0,1.161170292E1,1.494401374E1
7.516444024E0,1.057933044E1,-8.640212059E0,1.127082062E1,1.770894956E1
7.521469597E0,1.287978077E1,-1.037306309E1,1.043214512E1,1.955297528E1
7.526495170E0,1.522006416E1,-1.204652882E1,8.931726456E0,2.136691244E1
7.531520743E0,1.710967445E1,-1.391533852E1,6.502699852E0,2.299266647E1
7.536546316E0,1.880208206E1,-1.682550812E1,2.738963604E0,2.537947862E1
7.541571889E0,1.994165421E1,-2.098209000E1,-1.650269389E0,2.899381076E1
7.546597462E0,1.927315140E1,-2.480531502E1,-4.667887688E0,3.175763205E1
7.551623035E0,1.682364655E1,-2.682700729E1,-5.142556190E0,3.208066844E1
7.556648608E0,1.527608776E1,-2.689337540E1,-3.115329266E0,3.108565222E1
7.561674180E0,1.581017113E1,-2.549934769E1,7.144792080E-1,3.001147654E1
7.566699753E0,1.789993668E1,-2.351311493E1,5.623872757E0,3.008159323E1
7.571725326E0,2.101706314E1,-2.196457863E1,1.025825119E1,3.208412964E1
7.576750899E0,2.478007126E1,-2.075277710E1,1.364342690E1,3.508379664E1
7.581776472E0,2.831629944E1,-1.925524902E1,1.572482586E1,3.768086487E1
7.586802045E0,3.137854576E1,-1.784845924E1,1.671949768E1,3.978344171E1
7.591827618E0,3.374395752E1,-1.736262894E1,1.633725929E1,4.131611785E1
7.596853191E0,3.419006729E1,-1.782558441E1,1.446123695E1,4.118057230E1
7.601878764E0,3.218367004E1,-1.834806252E1,1.156162167E1,3.880864738E1
7.606904337E0,2.811943817E1,-1.808570099E1,8.784082413E0,3.456812820E1
7.611929910E0,2.262601662E1,-1.676928711E1,6.965653419E0,2.901147955E1
7.616955483E0,1.695416260E1,-1.505868435E1,5.574058533E0,2.335118267E1
7.621981055E0,1.208025932E1,-1.371249676E1,3.946425438E0,1.869597567E1
7.627006628E0,8.423909187E0,-1.313550377E1,2.377827406E0,1.578473213E1
7.632032201E0,6.024489880E0,-1.319292259E1,1.563947439E0,1.458744722E1
7.637057774E0,4.635973930E0,-1.347873974E1,1.894315004E0,1.437905103E1
7.642083347E0,3.943154335E0,-1.359259605E1,3.093459368E0,1.448711926E1
7.647108920E0,3.562613964E0,-1.335973358E1,4.577161789E0,1.456451543E1
7.652134493E0,3.230485439E0,-1.274963760E1,5.876461029E0,1.440562701E1
7.657160066E0,2.932210445E0,-1.184242058E1,6.811367989E0,1.397267036E1
7.662185639E0,2.940386295E0,-1.080973816E1,7.442786694E0,1.344958677E1
7.667211212E0,3.354675293E0,-9.819242477E0,7.817814827E0,1.299190509E1
7.672236785E0,4.178029060E0,-9.115934372E0,7.796784401E0,1.270220584E1
7.677262358E0,5.302639008E0,-8.787727356E0,7.297867775E0,1.259368916E1
7.682287930E0,6.495694637E0,-8.708380699E0,6.316515923E0,1.256695335E1
7.687313503E0,7.448049068E0,-8.756899834E0,5.116696358E0,1.258321546E1
7.692339076E0,8.023677826E0,-8.893236160E0,3.890921354E0,1.259397968E1
7.697364649E0,8.336414337E0,-9.081096649E0,2.669180870E0,1.261295552E1
7.702390222E0,8.620197296E0,-9.221462250E0,1.510542870E0,1.271317849E1
7.707415795E0,8.883901596E0,-9.138952255E0,4.646258354E-1,1.275382425E1
7.712441368E0,9.035966873E0,-8.710941315E0,-2.899348736E-1,1.255441190E1
7.717466941E0,8.980260849E0,-8.053866386E0,-7.327480316E-1,1.208498111E1
7.722492514E0,8.712036133E0,-7.321763515E0,-9.346184731E-1,1.141846339E1
7.727518087E0,8.356388092E0,-6.792049885E0,-8.756558895E-1,1.080407038E1
7.732543660E0,7.962489128E0,-6.530467033E0,-5.173451900E-1,1.031095916E1
7.737569233E0,7.512351990E0,-6.377766132E0,1.876473427E-1,9.856294678E0
7.742594805E0,7.040194988E0,-6.198172569E0,1.284466982E0,9.467393733E0
7.747620378E0,6.627681255E0,-6.003928661E0,2.639888048E0,9.324286949E0
7.752645951E0,6.217215061E0,-5.745130539E0,4.019750595E0,9.371162301E0
7.757671524E0,5.660340786E0,-5.367400169E0,5.252840042E0,9.404295343E0
7.762697097E0,5.000191689E0,-4.864594936E0,6.164288998E0,9.309385569E0
7.767722670E0,4.299291134E0,-4.379289627E0,6.552165985E0,8.977358241E0
7.772748243E0,3.615630150E0,-3.910797119E0,6.507778645E0,8.409417243E0
7.777773816E0,3.031008244E0,-3.396693707E0,6.189935684E0,7.683738861E0
7.782799389E0,2.554878235E0,-2.828024864E0,5.681102753E0,6.841056637E0
7.787824962E0,2.206135273E0,-2.224933147E0,5.049759388E0,5.942846980E0
7.792850535E0,2.013480186E0,-1.693852425E0,4.317426205E0,5.056026852E0
7.797876108E0,1.703978062E0,-1.345762730E0,3.911343098E0,4.473614130E0
7.802901680E0,1.110316753E0,-1.161481857E0,3.711444139E0,4.044336905E0
7.807927253E0,4.584288597E-1,-1.011092186E0,3.612516165E0,3.779250914E0
7.812952826E0,-2.078819275E-2,-8.509178162E-1,3.505785465E0,3.607634267E0
7.817978399E0,-4.219336510E-1,-7.522368431E-1,3.345194101E0,3.454592863E0
7.823003972E0,-8.633894920E-1,-6.953001022E-1,3.175701618E0,3.363623703E0
7.828029545E0,-1.439570427E0,-7.370324135E-1,2.946831226E0,3.361457135E0
7.833055118E0,-2.058074474E0,-8.241324425E-1,2.780668020E0,3.556259195E0
7.838080691E0,-2.693607807E0,-8.696789742E-1,2.961378336E0,4.096538317E0
7.843106264E0,-3.378646374E0,-7.961177826E-1,3.579950333E0,4.986491675E0
7.848131837E0,-4.222311020E0,-5.735168457E-1,4.386505127E0,6.115411609E0
7.853157410E0,-5.151754379E0,-2.580375671E-1,5.064511299E0,7.228860994E0
7.858182983E0,-5.879063129E0,1.275558472E-1,5.613461494E0,8.129612766E0
7.863208555E0,-6.217446327E0,4.739861488E-1,5.965801239E0,8.629721092E0
7.868234128E0,-6.052759171E0,6.522841454E-1,6.096676826E0,8.615731920E0
7.873259701E0,-5.458445549E0,5.899319649E-1,5.995587349E0,8.129558118E0
7.878285274E0,-4.565861702E0,3.765139580E-1,5.699637413E0,7.312641279E0
7.883310795E0,-3.497159958E0,1.678276062E-1,5.212725639E0,6.279395072E0
7.888336316E0,-2.446454048E0,1.000404358E-1,4.672753334E0,5.275392802E0
7.893361837E0,-1.516793728E0,1.848049164E-1,4.098222256E0,4.373813179E0
7.898387358E0,-7.389736176E-1,3.431658745E-1,3.494019747E0,3.587759582E0
7.903412878E0,-1.767220497E-1,5.062470436E-1,2.913452625E0,2.962384673E0
7.908438399E0,1.211619377E-1,6.152834892E-1,2.400522470E0,2.481080837E0
7.913463920E0,1.735391617E-1,6.792640686E-1,1.912923694E0,2.037349399E0
7.918489441E0,1.288094521E-1,7.649364471E-1,1.432407856E0,1.628960377E0
7.923514962E0,2.453780174E-1,8.385915756E-1,1.084502697E0,1.392692465E0
7.928540483E0,7.429447174E-1,7.755284309E-1,8.989863396E-1,1.400566899E0
7.933566003E0,1.477004051E0,5.513920784E-1,1.014947414E0,1.875017985E0
7.938591524E0,2.082934856E0,2.758750916E-1,1.455271959E0,2.555883635E0
7.943617045E0,2.378476143E0,-1.284313202E-2,2.098648548E0,3.172008738E0
7.948642566E0,2.335566044E0,-2.279853821E-1,2.828662872E0,3.675347565E0
7.953668087E0,2.817005634E0,-8.465046883E-1,3.128642559E0,4.294239769E0
7.958693608E0,2.938895702E0,-1.933355808E0,3.491206884E0,4.956157598E0
7.963719128E0,2.790002346E0,-2.969491005E0,3.500396967E0,5.371663508E0
7.968744649E0,2.688499451E0,-3.647112846E0,3.783862591E0,5.903141326E0
7.973770170E0,2.908057213E0,-3.936584473E0,4.283026695E0,6.503676786E0
7.978795691E0,3.405447960E0,-3.761030197E0,4.967260361E0,7.100429525E0
7.983821212E0,3.897316456E0,-3.230972290E0,5.590142250E0,7.541747004E0
7.988846733E0,4.214900017E0,-2.534197807E0,5.925566673E0,7.700641602E0
7.993872253E0,4.553399086E0,-1.810565948E0,5.911293030E0,7.678214478E0
7.998897774E0,5.055553913E0,-1.214299679E0,5.711341381E0,7.723507587E0
8.003923295E0,5.643784046E0,-7.036547661E-1,5.508901596E0,7.918044278E0
8.008948816E0,6.169143677E0,-2.460308075E-1,5.443257332E0,8.230912176E0
8.013974337E0,6.544863701E0,1.720204353E-1,5.466289520E0,8.529076914E0
8.018999858E0,6.780315876E0,5.212788582E-1,5.510675430E0,8.752825757E0
8.024025430E0,6.952019691E0,7.247800827E-1,5.466415405E0,8.873419935E0
8.029051003E0,7.098320007E0,7.774972916E-1,5.443720818E0,8.979128315E0
8.034076576E0,7.195436478E0,6.889581680E-1,5.547500134E0,9.111735685E0
8.039102149E0,7.191018581E0,4.688749313E-1,5.781730652E0,9.238993520E0
8.044127722E0,7.047445297E0,1.417188644E-1,6.102337360E0,9.323362629E0
8.049153295E0,6.727585793E0,-2.436633110E-1,6.503676891E0,9.360427101E0
8.054178868E0,6.237346172E0,-6.049408913E-1,6.956010818E0,9.362506463E0
8.059204441E0,5.687944412E0,-8.836355209E-1,7.300605297E0,9.296900617E0
8.064230014E0,5.118643284E0,-1.164946556E0,7.465296745E0,9.126240466E0
8.069255587E0,4.516054630E0,-1.514801502E0,7.531172752E0,8.911113064E0
8.074281160E0,3.804408073E0,-1.846279144E0,7.521952629E0,8.629138939E0
8.079306733E0,3.089759827E0,-2.168290138E0,7.413850784E0,8.319451987E0
8.084332305E0,2.406154633E0,-2.432567596E0,7.278995514E0,8.043055447E0
8.089357878E0,1.639461517E0,-2.662416935E0,7.108193398E0,7.765482044E0
8.094383451E0,8.624067307E-1,-2.818618774E0,6.897345543E0,7.500782139E0
8.099409024E0,2.574834824E-1,-2.905230045E0,6.609255791E0,7.224190022E0
8.104434597E0,-2.372093201E-1,-2.926716328E0,6.298073292E0,6.948932574E0
8.109460170E0,-6.552124023E-1,-2.873692513E0,6.027233124E0,6.709318227E0
8.114485743E0,-1.073004246E0,-2.751008034E0,5.774252892E0,6.485474521E0
8.119511316E0,-1.524202347E0,-2.559091091E0,5.559677601E0,6.307309651E0
8.124536889E0,-2.032780170E0,-2.307755947E0,5.370480537E0,6.188698889E0
8.129562462E0,-2.493557930E0,-2.059198380E0,5.145234585E0,6.077134855E0
8.134588035E0,-2.940324306E0,-1.808784485E0,4.865374565E0,5.965658220E0
8.139613608E0,-3.387679577E0,-1.499299526E0,4.527181625E0,5.849756017E0
8.144639180E0,-3.811964035E0,-1.169252396E0,4.213233471E0,5.800823842E0
8.149664753E0,-4.223075390E0,-8.810443878E-1,3.867090225E0,5.793530165E0
8.154690326E0,-4.678710938E0,-6.203718185E-1,3.580096483E0,5.923874413E0
8.159715899E0,-5.155179501E0,-3.633465767E-1,3.328366280E0,6.147025176E0
8.164741472E0,-5.652734756E0,-1.387510300E-1,3.063820601E0,6.431147545E0
8.169767045E0,-6.109376907E0,1.044130325E-2,2.728875875E0,6.691140318E0
8.174792618E0,-6.515701294E0,6.061673164E-2,2.423684835E0,6.952142542E0
8.179818191E0,-6.852700233E0,6.478214264E-2,2.109361649E0,7.170293145E0
8.184843764E0,-7.096679688E0,3.739023209E-2,1.813868999E0,7.324915110E0
8.189869337E0,-7.319709301E0,-3.610897064E-2,1.527009606E0,7.477379651E0
8.194894910E0,-7.536196232E0,-2.176692486E-1,1.219331264E0,7.637303338E0
8.199920483E0,-7.655173302E0,-4.157178402E-1,8.097979426E-1,7.709103210E0
8.204946055E0,-7.714940071E0,-6.296787262E-1,4.378048480E-1,7.752965154E0
8.209971628E0,-7.772894859E0,-8.590111732E-1,9.856167436E-2,7.820838132E0
8.214997201E0,-7.790623665E0,-1.145951271E0,-2.031141222E-1,7.877072854E0
8.220022774E0,-7.720190048E0,-1.451326132E0,-4.480139315E-1,7.868189017E0
8.225048347E0,-7.537697315E0,-1.702740908E0,-5.309972167E-1,7.745848272E0
8.230073920E0,-7.271986008E0,-1.880826712E0,-4.476153255E-1,7.524602919E0
8.235099493E0,-6.861031532E0,-1.990332365E0,-1.648617387E-1,7.145792888E0
8.240125066E0,-6.324316025E0,-2.055632353E0,1.776403785E-1,6.652379548E0
8.245150639E0,-5.700584412E0,-2.077686548E0,5.887376070E-1,6.095904855E0
8.250176212E0,-5.224514008E0,-1.923365593E0,1.086637735E0,5.672359596E0
8.255201785E0,-4.877083778E0,-1.627310753E0,1.608244419E0,5.387071243E0
8.260227358E0,-4.491182804E0,-1.281881332E0,2.153452635E0,5.143082828E0
8.265252930E0,-3.995675087E0,-9.986584187E-1,2.780437708E0,4.969262710E0
8.270278503E0,-3.438998699E0,-8.267278671E-1,3.484938145E0,4.965378625E0
8.275304076E0,-2.721148968E0,-8.100697994E-1,4.085101604E0,4.974828631E0
8.280329649E0,-1.756610394E0,-9.689185619E-1,4.498918056E0,4.925925998E0
8.285355222E0,-5.890512466E-1,-1.237468719E0,4.700970173E0,4.896675481E0
8.290380795E0,9.148302078E-1,-1.899614811E0,4.721729279E0,5.171090612E0
8.295406368E0,2.237558365E0,-2.703976631E0,4.663934708E0,5.836989294E0
8.300431941E0,2.833784103E0,-3.221532345E0,4.734064579E0,6.389050824E0
8.305457514E0,3.106613159E0,-3.790972233E0,4.837896824E0,6.886781648E0
8.310483087E0,3.301607132E0,-4.887090683E0,4.740566254E0,7.566850957E0
8.315508660E0,3.611495972E0,-6.511384964E0,4.222065926E0,8.559607350E0
8.320534233E0,3.463171005E0,-7.887496948E0,3.048142910E0,9.137687712E0
8.325559805E0,2.441712379E0,-8.330420494E0,1.479277968E0,8.806027950E0
8.330585378E0,6.874618530E-1,-7.885518074E0,1.159639955E-1,7.916277329E0
8.335610951E0,-1.200196266E0,-7.098769188E0,-7.099660039E-1,7.234434794E0
8.340636524E0,-2.584650517E0,-6.784319878E0,-1.367868662E0,7.387724898E0
