"Time (s)"	"Linear Acceleration x (m/s^2)"	"Linear Acceleration y (m/s^2)"	"Linear Acceleration z (m/s^2)"	"Absolute acceleration (m/s^2)"
1.420900000E-4	1.540352583E0	3.178803921E-1	-2.977921963E0	3.367751956E0
5.167819000E-3	2.715078354E0	5.981585979E-1	-2.447729111E0	3.704162790E0
1.019354800E-2	3.132556438E0	7.863214016E-1	-2.077899456E0	3.840426713E0
1.521927700E-2	2.644367933E0	8.581206799E-1	-1.872655392E0	3.351998073E0
2.024521500E-2	2.063827515E0	8.804886341E-1	-1.429854393E0	2.660663043E0
2.527136100E-2	1.696529627E0	8.622369766E-1	-8.019704819E-1	2.065144555E0
3.029766300E-2	1.388155818E0	8.071346283E-1	-2.851839066E-1	1.630880972E0
3.532406900E-2	1.118231773E0	7.525808811E-1	-7.978439331E-3	1.347918372E0
4.035057900E-2	1.033406734E0	7.072954178E-1	2.695341110E-1	1.280954692E0
4.537714200E-2	1.041047573E0	6.703219414E-1	5.621738434E-1	1.359834911E0
5.040370400E-2	9.872610569E-1	6.502146721E-1	8.894481659E-1	1.479385533E0
5.543026700E-2	9.099248052E-1	6.604869366E-1	1.170305252E0	1.622904966E0
6.045610000E-2	8.419206142E-1	6.814754009E-1	1.476727486E0	1.831382841E0
6.548177700E-2	7.876303792E-1	6.791474819E-1	1.751486778E0	2.036985236E0
7.050745400E-2	6.654809713E-1	6.390910149E-1	1.889431000E0	2.102677282E0
7.553313200E-2	6.046490669E-1	5.949692726E-1	1.919352531E0	2.098452542E0
8.055880900E-2	8.350485563E-1	6.188330650E-1	1.903404236E0	2.168688115E0
8.558448600E-2	1.194861650E0	6.917099953E-1	1.951485634E0	2.390492263E0
9.061016300E-2	1.451206923E0	7.756268978E-1	1.977222443E0	2.572354409E0
9.563584000E-2	1.491235971E0	8.185808659E-1	1.994662285E0	2.621552400E0
1.006614650E-1	1.340656281E0	8.789043427E-1	2.003385544E0	2.565810933E0
1.056870900E-1	1.067768455E0	8.951694965E-1	1.936086655E0	2.385348913E0
1.107127150E-1	7.069439888E-1	9.068000317E-1	1.696707726E0	2.049603183E0
1.157383400E-1	2.823113203E-1	9.197854996E-1	1.337549210E0	1.647647697E0
1.207639650E-1	-8.206230402E-2	9.111945629E-1	1.025718689E0	1.374448465E0
1.257895900E-1	-3.961784542E-1	9.200935364E-1	8.038473129E-1	1.284406472E0
1.308152150E-1	-6.031934023E-1	9.085655212E-1	6.381778717E-1	1.263568195E0
1.358408400E-1	-7.660592198E-1	8.675727844E-1	5.140628815E-1	1.266408272E0
1.408664650E-1	-8.851855993E-1	8.073587418E-1	4.215707779E-1	1.270080156E0
1.458920900E-1	-1.018342733E0	7.238030434E-1	3.268671036E-1	1.291415840E0
1.509177150E-1	-1.089666128E0	6.366157532E-1	2.631683350E-1	1.289150674E0
1.559433400E-1	-1.061553717E0	5.942158699E-1	3.162355423E-1	1.256978008E0
1.609689650E-1	-9.396796823E-1	5.967149734E-1	4.619407654E-1	1.205178798E0
1.659945900E-1	-7.582842112E-1	5.769925117E-1	7.480564117E-1	1.211405671E0
1.710202150E-1	-5.751948357E-1	5.154643059E-1	1.126827240E0	1.366123047E0
1.760458400E-1	-4.000817537E-1	4.112324715E-1	1.589032173E0	1.689438014E0
1.810714650E-1	-2.711251378E-1	3.014769554E-1	2.015550613E0	2.055928372E0
1.860970900E-1	-1.401598603E-1	1.848802567E-1	2.330529213E0	2.342048656E0
1.911227150E-1	5.032813549E-2	1.078424454E-1	2.587373734E0	2.590109216E0
1.961483400E-1	2.431797981E-1	4.036927223E-2	2.714981079E0	2.726148997E0
2.011739650E-1	4.717835784E-1	-2.292251587E-2	2.431606293E0	2.477057599E0
2.061995900E-1	5.306124687E-1	-2.163417339E-1	2.684842110E0	2.745310637E0
2.112252150E-1	4.055513442E-1	-4.352853298E-1	2.776108742E0	2.839141588E0
2.162508400E-1	1.554285139E-1	-5.652852058E-1	2.806140900E0	2.866728473E0
2.212764650E-1	5.521323681E-1	-4.341082573E-1	2.487932205E0	2.585170553E0
2.263020900E-1	9.104430676E-1	-3.142743111E-1	2.146944046E0	2.353092361E0
2.313277670E-1	7.468844652E-1	-3.153378963E-1	1.792588234E0	1.967395987E0
2.363534440E-1	4.794081748E-1	-3.171489239E-1	1.329011917E0	1.447994583E0
2.413791210E-1	3.626811504E-1	-3.092617989E-1	8.850717545E-1	1.005252450E0
2.464047980E-1	3.584286273E-1	-2.910549641E-1	4.700393677E-1	6.588786536E-1
2.514304750E-1	3.757517338E-1	-2.716205120E-1	1.315078735E-1	4.819350462E-1
2.564561520E-1	3.668767810E-1	-2.171912193E-1	-1.881189346E-1	4.660035748E-1
2.614818290E-1	2.986195087E-1	-1.658685207E-1	-5.415410995E-1	6.402755186E-1
2.665075070E-1	1.853086501E-1	-1.460874081E-1	-8.714075089E-1	9.027911570E-1
2.715331840E-1	4.604718089E-2	-1.623854637E-1	-1.139539719E0	1.151972288E0
2.765588610E-1	-1.479108185E-1	-1.761951447E-1	-1.393909454E0	1.412765340E0
2.815845380E-1	-3.772543073E-1	-2.160472870E-1	-1.610644341E0	1.668284279E0
2.866102150E-1	-6.230922937E-1	-2.531888485E-1	-1.775403976E0	1.898527819E0
2.916358920E-1	-7.233278155E-1	-2.590062618E-1	-1.940772057E0	2.087314913E0
2.966615690E-1	-1.218741775E0	-4.104704857E-1	-1.991926670E0	2.370989117E0
3.016872460E-1	-1.430075765E0	-4.305400848E-1	-1.703985214E0	2.265843566E0
3.067129230E-1	-1.153156400E0	-3.584263325E-1	-1.478757858E0	1.909178861E0
3.117386000E-1	-9.729788303E-1	-3.240196705E-1	-1.349386215E0	1.694850940E0
3.167642770E-1	-1.052671552E0	-3.230888844E-1	-1.258147240E0	1.671956429E0
3.217899540E-1	-1.239532948E0	-3.084182739E-1	-1.123477936E0	1.701107413E0
3.268156320E-1	-1.381090522E0	-3.715465069E-1	-1.007407188E0	1.749379055E0
3.318413090E-1	-1.487531662E0	-4.794111252E-1	-1.014990807E0	1.863542811E0
3.368669860E-1	-1.468365192E0	-5.889842510E-1	-1.083927155E0	1.917784363E0
3.418926630E-1	-1.362450123E0	-6.620192528E-1	-1.171139717E0	1.914708350E0
3.469183400E-1	-1.322761297E0	-7.463984489E-1	-1.281417847E0	1.987168788E0
3.519440170E-1	-1.262678146E0	-8.271703720E-1	-1.606248856E0	2.204223744E0
3.569696940E-1	-1.133732080E0	-8.938293457E-1	-1.873078346E0	2.364889389E0
3.619953710E-1	-1.111504436E0	-9.842021465E-1	-1.948201180E0	2.449404787E0
3.670210480E-1	-1.002162099E0	-1.402279854E0	-3.042474747E0	3.496765683E0
3.720467250E-1	-1.026486754E0	-1.151107073E0	-2.300051212E0	2.769288380E0
3.770724020E-1	-8.336438537E-1	-7.931082249E-1	-1.640231133E0	2.003582017E0
3.820980790E-1	-5.338853598E-1	-4.878845215E-1	-1.392345428E0	1.568977589E0
3.871237570E-1	-1.595993042E-1	-2.936656475E-1	-1.321268082E0	1.362886934E0
3.921494340E-1	1.538377702E-1	-2.014057636E-1	-1.426596642E0	1.448933511E0
3.971751110E-1	3.754083216E-1	-1.825883389E-1	-1.621965408E0	1.674825870E0
4.022007880E-1	4.738240838E-1	-2.134108543E-1	-1.792465210E0	1.866275699E0
4.072264650E-1	4.471805096E-1	-2.460877895E-1	-1.809021950E0	1.879651570E0
4.122521420E-1	3.328186274E-1	-2.570574284E-1	-1.748295784E0	1.798161536E0
4.172778190E-1	1.780696213E-1	-2.468569279E-1	-1.624633789E0	1.652901111E0
4.223034960E-1	7.327333093E-2	-2.016797066E-1	-1.514544487E0	1.529669470E0
4.273291730E-1	-4.916290939E-2	-1.460516453E-1	-1.437038422E0	1.445277655E0
4.323548500E-1	-9.914672375E-2	-1.281719208E-1	-1.325079918E0	1.334951274E0
4.373805270E-1	3.450632095E-3	-1.056613922E-1	-1.226401329E0	1.230949413E0
4.424062040E-1	1.009294838E-1	-4.046535492E-2	-1.518754005E0	1.522641762E0
4.474318820E-1	1.326782107E-1	4.441809654E-2	-2.039270401E0	2.044064638E0
4.524575590E-1	1.957279146E-1	1.693618298E-1	-2.563192844E0	2.576227941E0
4.574832360E-1	2.523514628E-1	2.971262932E-1	-3.033390045E0	3.058336224E0
4.625089130E-1	2.929554582E-1	3.903629780E-1	-3.359291553E0	3.394561223E0
4.675345900E-1	2.881462872E-1	5.260403156E-1	-3.445535183E0	3.497350339E0
4.725602670E-1	3.230166435E-1	7.136716843E-1	-3.297199726E0	3.388981124E0
4.775859440E-1	3.680626452E-1	8.763728142E-1	-3.230118275E0	3.367070461E0
4.826116210E-1	5.003215671E-1	1.004568338E0	-3.215445042E0	3.405666753E0
4.876372980E-1	5.714660883E-1	8.015985489E-1	-3.329545498E0	3.472032106E0
4.926629750E-1	6.538636088E-1	5.214142799E-1	-3.581779957E0	3.678118830E0
4.976886520E-1	4.687560797E-1	7.234334946E-1	-3.244870663E0	3.357420721E0
5.027143290E-1	3.592377603E-1	9.813458920E-1	-2.663768768E0	2.861425445E0
5.077400070E-1	5.699269772E-1	1.146728516E0	-2.178319454E0	2.526831750E0
5.127656840E-1	8.712754250E-1	1.234005451E0	-2.037212372E0	2.536163356E0
5.177913610E-1	8.803937435E-1	1.234156370E0	-2.230800152E0	2.697165995E0
5.228170380E-1	9.385532737E-1	1.296094656E0	-2.319177151E0	2.817681008E0
5.278427150E-1	1.096512556E0	1.233574390E0	-1.729104042E0	2.390365317E0
5.328683920E-1	1.340947986E0	9.751219749E-1	-1.805551529E0	2.451330392E0
5.378940690E-1	1.561178684E0	6.459159851E-1	-2.098058701E0	2.693758834E0
5.429197460E-1	1.604764819E0	3.805494308E-1	-2.328574657E0	2.853479968E0
5.479454230E-1	1.343230486E0	7.441568375E-2	-2.472812176E0	2.815067653E0
5.529711000E-1	1.351752400E0	2.013850212E-2	-2.831791878E0	3.137942853E0
5.579967770E-1	1.143295169E0	2.240824699E-2	-3.141987324E0	3.343607381E0
5.630224540E-1	8.970327377E-1	8.676195145E-2	-3.202402592E0	3.326796917E0
5.680481320E-1	7.077271342E-1	1.946687698E-1	-3.132707119E0	3.217549925E0
5.730738090E-1	5.609951019E-1	3.035678864E-1	-3.009297371E0	3.076156633E0
5.780994860E-1	4.411023855E-1	3.610651493E-1	-2.851062775E0	2.907490035E0
5.831251630E-1	2.878732085E-1	6.027889252E-2	-2.542860508E0	2.559813292E0
5.881508400E-1	-3.211133480E-1	-1.659432530E0	-2.055476665E0	2.661167869E0
5.931765170E-1	-6.842865944E-1	-3.381965876E0	-1.421927452E0	3.731999331E0
5.982021940E-1	1.713427305E-1	-3.867020607E0	-1.680837631E0	4.220002589E0
6.032278710E-1	-1.075249910E-1	-4.022146702E0	-3.451653004E0	5.301238928E0
6.082535480E-1	-1.960177422E-1	-2.305211544E0	-4.361363888E0	4.936994853E0
6.132792250E-1	4.401743412E-1	-4.830021858E-1	-3.664414406E0	3.722227492E0
6.183049020E-1	3.427376509E0	-4.255235195E-1	-1.684864044E0	3.842752509E0
6.233305790E-1	4.792586803E0	2.075479031E-1	1.268739700E0	4.962022252E0
6.283562570E-1	5.107402802E0	7.565894127E-1	3.772097588E0	6.394271743E0
6.333819340E-1	5.039652348E0	8.710782528E-1	5.007748604E0	7.157822238E0
6.384076110E-1	4.555770397E0	2.050981522E-1	5.271183968E0	6.970114029E0
6.434332880E-1	3.409312487E0	-1.765768647E0	4.775154114E0	6.127270792E0
6.484589650E-1	3.513489246E0	-3.006397724E0	6.644937515E0	8.095568451E0
6.534846420E-1	3.740028620E0	-3.737502098E0	8.210320473E0	9.765556731E0
6.585103190E-1	3.865148783E0	-3.738179207E0	7.820878029E0	9.491021654E0
6.635359960E-1	4.319490433E0	-2.999843597E0	5.811429024E0	7.837714367E0
6.685616730E-1	4.516052246E0	-1.864865780E0	2.673209190E0	5.569425432E0
6.735873500E-1	4.064180374E0	-9.962203503E-1	-4.046602249E-1	4.204017959E0
6.786130270E-1	3.042922497E0	-7.381429672E-1	-2.099558353E0	3.769930721E0
6.836387040E-1	1.837747693E0	-1.345838547E0	-2.997908592E0	3.765110079E0
6.886643820E-1	7.023814917E-1	-2.591396093E0	-3.761785507E0	4.621655945E0
6.936900590E-1	-2.186143398E-1	-3.067328691E0	-3.076761723E0	4.350029911E0
6.987157360E-1	-9.762054682E-1	-2.986242533E0	-1.700102806E0	3.572250150E0
7.037414130E-1	-1.255307913E0	-2.449556112E0	-2.783193588E-1	2.766511299E0
7.087670900E-1	-9.803819060E-1	-1.642322421E0	5.566530228E-1	1.992042721E0
7.137927670E-1	-5.451455116E-1	-1.315737844E0	1.525477409E0	2.086966945E0
7.188184440E-1	-2.738390863E-2	-1.257407784E0	2.769990921E0	3.042149555E0
7.238441210E-1	4.308952093E-1	-1.308520794E0	3.143635750E0	3.432250439E0
7.288697980E-1	1.048015237E0	-1.531932473E0	2.772303581E0	3.336288385E0
7.338954750E-1	1.347207665E0	-1.993924737E0	2.574973106E0	3.524370986E0
7.389211520E-1	1.613127828E0	-2.301391125E0	2.675375938E0	3.880234388E0
7.439468290E-1	2.171013355E0	-2.526277542E0	2.503822327E0	4.167073728E0
7.489725070E-1	2.652651072E0	-2.692999363E0	1.998396873E0	4.275791545E0
7.539981840E-1	2.833416700E0	-2.888176441E0	1.307714462E0	4.252050149E0
7.590238610E-1	2.679463625E0	-3.102864265E0	5.276222229E-1	4.133482452E0
7.640495380E-1	2.404084206E0	-3.275130272E0	-5.093507767E-1	4.094574139E0
7.690752150E-1	2.222262144E0	-3.446933508E0	-2.319991589E0	4.711916873E0
7.741008920E-1	1.388458610E0	-3.411956787E0	-2.512523174E0	4.458928025E0
7.791265690E-1	5.542731285E-1	-3.103946686E0	-2.705270290E0	4.154538611E0
7.841522460E-1	1.441831887E-1	-2.731909275E0	-3.797698975E0	4.680452391E0
7.891779230E-1	1.837333202E0	-2.077186584E0	-4.660541058E0	5.423203883E0
7.942036000E-1	1.713182449E0	-1.789238572E0	-4.331807613E0	4.990082762E0
7.992292770E-1	1.342541575E-1	-2.360751152E0	-3.609440327E0	4.315000539E0
8.042549540E-1	-1.544583082E0	-2.752143383E0	-2.372634411E0	3.948344482E0
8.092806320E-1	-3.196310520E0	-2.948136806E0	-2.548838139E0	5.040286443E0
8.143063090E-1	-4.771253586E0	-2.926265717E0	2.913162231E0	6.309865768E0
8.193319860E-1	-5.213675022E0	-1.896299005E0	8.279133797E0	9.966063093E0
8.243576630E-1	-4.515691757E0	-1.258513927E0	-1.248147964E0	4.851103245E0
8.293833400E-1	-2.255505800E0	-3.615232706E-1	-5.657627106E0	6.101372793E0
8.344090170E-1	9.825326204E-1	8.556002378E-2	-4.726279736E0	4.828085646E0
8.394346940E-1	2.544892311E0	4.569166899E-2	-3.808591843E0	4.580822680E0
8.444603710E-1	3.018384457E0	7.259199023E-2	-4.243410110E0	5.207921245E0
8.494860480E-1	3.737145901E0	-2.730949819E-1	-4.267678738E0	5.679253662E0
8.545117250E-1	5.349626541E0	-3.775814772E-1	1.073158264E0	5.469254114E0
8.595374020E-1	7.477093220E0	-7.810651064E-1	3.636650085E0	8.351180130E0
8.645630790E-1	9.666639328E0	-1.319676042E0	3.460791588E0	1.035193408E1
8.695887570E-1	1.069352436E1	-1.568676114E0	3.347678185E0	1.131455511E1
8.746144340E-1	9.768910408E0	-1.505124569E0	3.618109703E0	1.052557497E1
8.796401110E-1	7.417943001E0	-1.312205315E0	4.233309746E0	8.641103665E0
8.846657880E-1	4.882846832E0	-1.301826000E0	4.747960091E0	6.933979315E0
8.896914650E-1	2.475962162E0	-1.569621801E0	4.927908897E0	5.733967852E0
8.947171420E-1	3.274319172E-1	-1.856696129E0	4.898080826E0	5.248402419E0
8.997428190E-1	-1.322334409E0	-2.194923162E0	4.371907234E0	5.067526896E0
9.047684960E-1	-2.338769436E0	-2.505450487E0	3.503293037E0	4.901039351E0
9.097941730E-1	-3.195793390E0	-2.675340891E0	2.417613983E0	4.818236363E0
9.148198500E-1	-4.002670288E0	-2.667959452E0	1.340276718E0	4.993567738E0
9.198455270E-1	-4.643680573E0	-2.498980999E0	2.188787460E-1	5.277933611E0
9.248712040E-1	-5.138973713E0	-2.379681826E0	-9.073600769E-1	5.735437100E0
9.298968820E-1	-5.837697506E0	-2.119242668E0	-1.889746189E0	6.491613229E0
9.349225590E-1	-6.330918312E0	-1.618449926E0	-2.624006748E0	7.041684334E0
9.399482360E-1	-6.353578568E0	-8.313879371E-1	-3.006387711E0	7.077961118E0
9.449739130E-1	-5.799976349E0	3.334724903E-2	-3.152828693E0	6.601603325E0
9.499995900E-1	-4.827607632E0	6.514557600E-1	-3.164844990E0	5.809168087E0
9.550252670E-1	-3.578839302E0	9.416213632E-1	-3.034267902E0	4.785553599E0
9.600509440E-1	-2.453138113E0	1.161346197E0	-2.710726738E0	3.835968071E0
9.650766210E-1	-1.661868095E0	1.342557192E0	-2.336340427E0	3.165873019E0
9.701022980E-1	-1.167559624E0	1.536258221E0	-1.852623940E0	2.674976683E0
9.751279750E-1	-9.664769173E-1	1.712224960E0	-1.354529381E0	2.387580740E0
9.801536520E-1	-1.032226086E0	1.788141608E0	-9.984269142E-1	2.293424820E0
9.851793290E-1	-1.215848923E0	1.773455739E0	-7.239389420E-1	2.268814989E0
9.902050070E-1	-1.403500557E0	1.744814157E0	-4.884681702E-1	2.291896902E0
9.952306840E-1	-1.501217842E0	1.755331278E0	-2.390599251E-1	2.322066440E0
1.000256361E0	-1.444490433E0	1.819527030E0	1.498570442E-1	2.328022413E0
1.005282038E0	-1.259559155E0	1.903713822E0	6.747317314E-1	2.380310587E0
1.010307715E0	-9.667420387E-1	2.050292253E0	1.388618946E0	2.658298529E0
1.015333392E0	-6.182584763E-1	2.238787174E0	2.194933414E0	3.195644575E0
1.020359069E0	-2.368340492E-1	2.381773949E0	2.833994389E0	3.709509631E0
1.025384746E0	1.249294281E-1	2.401927948E0	3.186404705E0	3.992247509E0
1.030410423E0	3.939385414E-1	2.370138884E0	3.435698986E0	4.192466270E0
1.035436100E0	5.494656563E-1	2.357558250E0	3.698626041E0	4.420387766E0
1.040461777E0	6.186871529E-1	2.378021002E0	4.082195759E0	4.764669967E0
1.045487454E0	6.007113457E-1	2.335493565E0	4.668756962E0	5.254776482E0
1.050513132E0	5.713729858E-1	2.158116102E0	5.224726677E0	5.681698782E0
1.055538809E0	5.439405441E-1	1.884025455E0	5.694009304E0	6.022222612E0
1.060564486E0	5.074853897E-1	1.584575772E0	6.250299931E0	6.467972713E0
1.065590163E0	5.853509903E-1	1.345437288E0	6.861050606E0	7.016185053E0
1.070615840E0	8.532476425E-1	1.194140196E0	7.435963154E0	7.579416229E0
1.075641517E0	1.248428345E0	1.153394341E0	7.989726543E0	8.168514068E0
1.080667194E0	1.579806328E0	1.159500599E0	8.574655533E0	8.795734601E0
1.085692871E0	1.763042450E0	1.182249546E0	9.232444763E0	9.473334628E0
1.090718548E0	1.815871716E0	1.167786837E0	9.855479240E0	1.008918169E1
1.095744225E0	1.704210758E0	9.581387043E-1	1.011129475E1	1.029857493E1
1.100769902E0	1.617288589E0	6.451077461E-1	9.765039444E0	9.919061535E0
1.105795579E0	1.531242847E0	4.213872552E-1	8.971541405E0	9.111027772E0
1.110821257E0	1.396245003E0	3.792580068E-1	7.929918289E0	8.060827552E0
1.115846934E0	1.185538292E0	5.056501031E-1	6.939825058E0	7.058495229E0
1.120872611E0	1.068726540E0	7.822742462E-1	6.084836960E0	6.227308427E0
1.125898288E0	1.119872570E0	1.128322482E0	5.390519142E0	5.620046514E0
1.130923965E0	1.298565865E0	1.414718390E0	4.805362701E0	5.174863488E0
1.135949642E0	1.535960674E0	1.555194736E0	4.229762077E0	4.761165098E0
1.140975319E0	1.682037354E0	1.549732327E0	3.654903412E0	4.311523964E0
1.146000996E0	1.682854176E0	1.398555875E0	3.196078300E0	3.873354259E0
1.151026673E0	1.079530001E0	9.874024987E-1	3.197228432E0	3.516051530E0
1.156052350E0	9.587047100E-1	7.188597322E-1	2.811000824E0	3.055748626E0
1.161078027E0	8.479292393E-1	4.066434801E-1	2.407188416E0	2.584356590E0
1.166103704E0	6.917860508E-1	1.799958348E-1	2.125159264E0	2.242157072E0
1.171129382E0	6.127672195E-1	1.054746956E-1	2.055769920E0	2.147742662E0
1.176155059E0	6.239407063E-1	9.581473470E-2	2.150725365E0	2.241450883E0
1.181180736E0	6.524882317E-1	-2.246937156E-2	2.414316177E0	2.501033460E0
1.186206413E0	4.553506374E-1	-2.933801413E-1	2.778563499E0	2.830871108E0
1.191232090E0	3.257031441E-1	-5.400379896E-1	2.740428925E0	2.812058723E0
1.196257767E0	3.059732914E-1	-6.756691933E-1	2.271554947E0	2.389583727E0
1.201283444E0	3.900005817E-1	-6.177363396E-1	1.702495575E0	1.852617020E0
1.206309121E0	4.483141899E-1	-4.127401412E-1	1.205270767E0	1.350561979E0
1.211334798E0	4.097781181E-1	-2.508038282E-1	8.080320358E-1	9.400725702E-1
1.216360475E0	4.422254562E-1	-1.737022996E-1	4.385566711E-1	6.465816243E-1
1.221386152E0	5.978426933E-1	-1.946662366E-1	4.880619049E-2	6.306289510E-1
1.226411829E0	7.850868702E-1	-2.504768968E-1	-2.895765305E-1	8.734727452E-1
1.231437507E0	9.318251610E-1	-3.167161942E-1	-4.811363220E-1	1.095490501E0
1.236463184E0	1.047482491E0	-3.978872299E-1	-5.213937759E-1	1.235874300E0
1.241488861E0	1.117979765E0	-5.085750818E-1	-4.489488602E-1	1.307701207E0
1.246514538E0	1.163253069E0	-7.306905985E-1	-3.406648636E-1	1.415315867E0
1.251540215E0	1.217820168E0	-1.088655472E0	-1.154956818E-1	1.637557922E0
1.256565892E0	1.359517574E0	-1.521320939E0	2.740097046E-1	2.058588534E0
1.261591569E0	1.474850178E0	-1.934306741E0	6.791858673E-1	2.525474026E0
1.266617246E0	1.508018494E0	-2.266891479E0	1.061520576E0	2.922283814E0
1.271642923E0	1.513153076E0	-2.453748703E0	1.406510353E0	3.207613802E0
1.276668600E0	1.448359966E0	-2.558406591E0	1.613641739E0	3.353659276E0
1.281694277E0	1.219253302E0	-2.615380287E0	1.577719688E0	3.288767562E0
1.286719954E0	8.312630653E-1	-2.605618477E0	1.255983353E0	3.009607967E0
1.291745632E0	3.561749458E-1	-2.485353947E0	7.923383713E-1	2.632801726E0
1.296771309E0	-3.872687817E-1	-2.076565742E0	6.938009262E-1	2.223389781E0
1.301796986E0	-2.108091354E0	-1.139926791E0	1.475544930E0	2.814376501E0
1.306822663E0	-5.529189110E0	4.846972227E-1	3.627080917E0	6.630428311E0
1.311848340E0	-1.015403366E1	2.591023922E0	6.316497803E0	1.223584689E1
1.316874017E0	-1.162129116E1	3.521292925E0	5.554109573E0	1.335297889E1
1.321899694E0	-7.884144783E0	2.997716427E0	2.242862701E0	8.727913601E0
1.326925371E0	-1.641194582E0	2.551893234E0	-1.174871445E0	3.253613629E0
1.331951048E0	3.753488064E0	2.952430248E0	-4.188843250E0	6.352316490E0
1.336976725E0	6.090309143E0	3.799499989E0	-6.052021980E0	9.389091312E0
1.342002402E0	5.401485443E0	5.346065044E0	-5.140657902E0	9.175119624E0
1.347028079E0	4.929710388E0	5.637741089E0	-4.526048183E0	8.750501772E0
1.352053757E0	5.294891357E0	4.830041885E0	-4.453985691E0	8.438196942E0
1.357079434E0	5.159482956E0	4.078532696E0	-4.247237682E0	7.829030671E0
1.362105111E0	4.923157692E0	3.126624107E0	-4.243557453E0	7.212561253E0
1.367130788E0	4.412748337E0	2.105452776E0	-4.459076881E0	6.617298989E0
1.372156465E0	3.645072222E0	1.050724268E0	-4.660909653E0	6.009546720E0
1.377182142E0	2.675357103E0	7.980227470E-2	-4.731437683E0	5.436028567E0
1.382207819E0	1.640590906E0	-7.813954353E-1	-4.730208397E0	5.067246671E0
1.387233496E0	7.059836388E-1	-1.593375921E0	-4.668560028E0	4.983243167E0
1.392259173E0	-1.551296711E-1	-2.345181465E0	-4.528650284E0	5.102216647E0
1.397284850E0	-8.794674873E-1	-3.041046381E0	-4.363510132E0	5.390885532E0
1.402310527E0	-1.400577068E0	-3.580379963E0	-4.119871616E0	5.635075770E0
1.407336204E0	-1.762821317E0	-3.973700762E0	-3.705466270E0	5.712120186E0
1.412361882E0	-2.011101723E0	-4.194014549E0	-3.276232243E0	5.689286940E0
1.417387559E0	-2.191035748E0	-4.272150993E0	-2.906199455E0	5.612299621E0
1.422413236E0	-2.310442209E0	-4.229697227E0	-2.554377556E0	5.454660992E0
1.427438913E0	-2.344187975E0	-4.093391418E0	-2.194173336E0	5.202448192E0
1.432464590E0	-2.210344076E0	-3.876126528E0	-1.799158096E0	4.811127482E0
1.437490267E0	-2.014105558E0	-3.638458729E0	-1.424624443E0	4.395970647E0
1.442515944E0	-1.860558271E0	-3.436355591E0	-1.044992447E0	4.045024851E0
1.447541621E0	-1.768397927E0	-3.325257063E0	-6.879425049E-1	3.828554643E0
1.452567298E0	-1.784786820E0	-3.235624075E0	-4.151639938E-1	3.718479298E0
1.457592975E0	-1.904143095E0	-3.159796476E0	-2.743520737E-1	3.699370725E0
1.462618652E0	-2.096586943E0	-3.046419382E0	-1.748523712E-1	3.702285944E0
1.467644329E0	-2.397861958E0	-2.925467014E0	-5.032825470E-2	3.782939618E0
1.472670007E0	-2.775564671E0	-2.859911442E0	5.532455444E-2	3.985713675E0
1.477695684E0	-3.186373949E0	-2.893110752E0	1.214313507E-2	4.303860618E0
1.482721361E0	-3.695474625E0	-2.933799505E0	-5.141162872E-2	4.718723916E0
1.487747038E0	-3.995645761E0	-3.076653481E0	-5.998764038E-1	5.078467622E0
1.492772715E0	-4.159110069E0	-3.099691391E0	-1.198001862E0	5.323672769E0
1.497798392E0	-4.199260712E0	-2.972292662E0	-1.650170326E0	5.402904432E0
1.502824069E0	-4.176037312E0	-2.755040646E0	-2.043087959E0	5.404048945E0
1.507849746E0	-4.086945057E0	-2.527527571E0	-2.463274956E0	5.399929539E0
1.512875423E0	-3.839426994E0	-2.288292885E0	-2.910951138E0	5.333959177E0
1.517901100E0	-3.461006165E0	-2.021668434E0	-3.357590675E0	5.228682633E0
1.522926777E0	-2.989306211E0	-1.731252313E0	-3.741187572E0	5.092118483E0
1.527952454E0	-2.553343773E0	-1.440012217E0	-4.061935425E0	5.009243356E0
1.532978132E0	-2.205848455E0	-1.104293704E0	-4.233881950E0	4.900100852E0
1.538003809E0	-1.970503211E0	-7.808118463E-1	-4.257282257E0	4.755733620E0
1.543029486E0	-1.870767951E0	-5.505678654E-1	-4.227983475E0	4.656043596E0
1.548055163E0	-1.791332722E0	-4.035431147E-1	-4.160415649E0	4.547612378E0
1.553080840E0	-1.688843250E0	-3.010790348E-1	-4.049846649E0	4.398192582E0
1.558106517E0	-1.529655695E0	-2.427756786E-1	-3.867631912E0	4.166216891E0
1.563132194E0	-1.260976434E0	-1.663228273E-1	-3.542083263E0	3.763519456E0
1.568157871E0	-9.066908360E-1	-1.151404381E-1	-3.068474770E0	3.201700018E0
1.573183548E0	-5.238314271E-1	-8.040368557E-2	-2.470738888E0	2.526937824E0
1.578209225E0	-2.555214167E-1	-1.014782190E-1	-1.868365288E0	1.888485603E0
1.583234902E0	-2.496045828E-2	-1.792519093E-1	-1.237229347E0	1.250396229E0
1.588260579E0	2.159010172E-1	-2.907462120E-1	-5.484485626E-1	6.572232763E-1
1.593286257E0	4.864701033E-1	-3.749687672E-1	2.124938965E-1	6.499295298E-1
1.598311934E0	7.536982298E-1	-4.427242279E-1	9.261693954E-1	1.273520912E0
1.603337611E0	1.008471131E0	-4.904375076E-1	1.521108627E0	1.889792165E0
1.608363288E0	1.313798666E0	-4.998106956E-1	2.045379639E0	2.481825041E0
1.613388965E0	1.623078704E0	-5.097758770E-1	2.475144386E0	3.003430648E0
1.618414642E0	1.913916349E0	-5.159232616E-1	2.681262970E0	3.334430044E0
1.623440319E0	2.125473976E0	-4.654232264E-1	2.625524521E0	3.409932171E0
1.628465996E0	2.287503719E0	-3.099032640E-1	2.384500504E0	3.318818457E0
1.633491673E0	2.463327885E0	-4.821169376E-2	1.962761879E0	3.150038544E0
1.638517350E0	2.648552895E0	2.731895447E-1	1.407960892E0	3.011946021E0
1.643543027E0	2.805328369E0	6.368703842E-1	8.345632553E-1	2.995324185E0
1.648568704E0	2.920035124E0	9.487707615E-1	3.568105698E-1	3.090968273E0
1.653594382E0	2.936216116E0	1.162524581E0	-9.774684906E-2	3.159490929E0
1.658620059E0	2.902809381E0	1.289452434E0	-4.485406876E-1	3.207830830E0
1.663645736E0	2.788008928E0	1.321747065E0	-6.774492264E-1	3.158947062E0
1.668671413E0	2.593138218E0	1.270495176E0	-7.758207321E-1	2.990053782E0
1.673697090E0	2.371618271E0	1.160242796E0	-7.394819260E-1	2.741818755E0
1.678722767E0	2.181205988E0	9.625601768E-1	-5.640544891E-1	2.449967168E0
1.683748444E0	2.021614552E0	6.916614771E-1	-4.074716568E-1	2.175167613E0
1.688774121E0	1.997182846E0	4.044959545E-1	-2.980794907E-1	2.059419258E0
1.693799798E0	2.044295311E0	1.964048147E-1	-2.832031250E-1	2.073143068E0
1.698825475E0	2.199249029E0	4.289269447E-2	-1.994762421E-1	2.208693471E0
1.703851152E0	2.355462551E0	-9.510684013E-2	-1.612100601E-1	2.362887603E0
1.708876829E0	2.430334806E0	-1.321556568E-1	-2.395429611E-1	2.445684612E0
1.713902507E0	2.374479771E0	-7.820379734E-2	-3.572702408E-1	2.402480393E0
1.718928184E0	2.238652706E0	1.003445387E-1	-5.138463974E-1	2.299059174E0
1.723953861E0	2.068418503E0	3.890936375E-1	-6.512689590E-1	2.203156876E0
1.728979538E0	1.923742533E0	6.492900848E-1	-6.686306000E-1	2.137622470E0
1.734005215E0	1.750197291E0	8.328473568E-1	-5.130319595E-1	2.005000516E0
1.739030892E0	1.589974999E0	9.248456955E-1	-1.748256683E-1	1.847680728E0
1.744056569E0	1.505076528E0	9.052014351E-1	3.172664642E-1	1.784741718E0
1.749082246E0	1.442543149E0	7.487126589E-1	8.724441528E-1	1.844630094E0
1.754107923E0	1.382783890E0	5.113118887E-1	1.471780777E0	2.083187411E0
1.759133600E0	1.354387999E0	2.534701824E-1	2.158471107E0	2.560783377E0
1.764159277E0	1.348398089E0	-2.767801285E-3	2.832021713E0	3.136643437E0
1.769184954E0	1.327752829E0	-3.305813074E-1	3.344046593E0	3.613150867E0
1.774210632E0	1.222240686E0	-6.732959747E-1	3.598814011E0	3.859878502E0
1.779236309E0	1.071555972E0	-9.641844034E-1	3.653719902E0	3.927792368E0
1.784261986E0	9.343243837E-1	-1.121665359E0	3.604324341E0	3.888733622E0
1.789287663E0	8.355534077E-1	-1.154804468E0	3.526934624E0	3.804075538E0
1.794313340E0	6.714168787E-1	-1.091137886E0	3.358968735E0	3.595003960E0
1.799339017E0	4.053157568E-1	-1.034551024E0	3.104857445E0	3.297683496E0
1.804364694E0	1.011317968E-1	-1.007376552E0	2.769036293E0	2.948321073E0
1.809390371E0	-1.630687714E-1	-1.017753601E0	2.470768929E0	2.677146413E0
1.814416048E0	-3.240263462E-1	-1.073938370E0	2.171460152E0	2.444089991E0
1.819441725E0	-3.621745110E-1	-1.117833734E0	1.851884842E0	2.193216838E0
1.824467402E0	-3.402709961E-1	-1.153402567E0	1.516959190E0	1.935791057E0
1.829493079E0	-3.022357225E-1	-1.141847372E0	1.243441582E0	1.715024437E0
1.834518757E0	-2.491830587E-1	-1.073589087E0	1.065053940E0	1.532653130E0
1.839544434E0	-2.064584494E-1	-1.020908833E0	1.020330429E0	1.458065198E0
1.844570111E0	-1.132900715E-1	-1.017970324E0	1.071222305E0	1.482098326E0
1.849595788E0	2.811551094E-2	-1.042126417E0	1.232439995E0	1.614226221E0
1.854621465E0	2.056254148E-1	-1.061230183E0	1.451707840E0	1.809957724E0
1.859647142E0	3.400069475E-1	-1.019407392E0	1.657633781E0	1.975486246E0
1.864672819E0	3.860033751E-1	-9.325788021E-1	1.874429703E0	2.128893736E0
1.869698496E0	3.709679842E-1	-8.069331646E-1	2.097414970E0	2.277697946E0
1.874724173E0	3.467551470E-1	-7.058558464E-1	2.345715523E0	2.474035756E0
1.879749850E0	3.609999418E-1	-6.304215789E-1	2.623998642E0	2.722704758E0
1.884775527E0	4.234932661E-1	-5.766957402E-1	2.865147591E0	2.953133123E0
1.889801204E0	4.345926046E-1	-5.598583817E-1	2.939902306E0	3.024125941E0
1.894826882E0	4.193860292E-1	-5.657013655E-1	2.843496323E0	2.929398234E0
1.899852559E0	3.218383789E-1	-5.270853043E-1	2.695518494E0	2.765360521E0
1.904878236E0	2.630903721E-1	-4.485194683E-1	2.543659210E0	2.596264323E0
1.909903913E0	2.164448500E-1	-3.441239893E-1	2.378083229E0	2.412581509E0
1.914929590E0	1.559090614E-1	-3.186604381E-1	2.035813332E0	2.066491721E0
1.919955267E0	1.412886381E-1	-3.424568772E-1	1.454537392E0	1.500972423E0
1.924980944E0	1.979984045E-1	-3.518778682E-1	7.156057358E-1	8.216525856E-1
1.930006621E0	2.693368196E-1	-3.262275457E-1	-8.527088165E-2	4.315528441E-1
1.935032298E0	3.461322784E-1	-2.116833925E-1	-8.572349548E-1	9.484034904E-1
1.940057975E0	4.380944967E-1	-4.535122961E-2	-1.581240654E0	1.641433985E0
1.945083652E0	5.116219521E-1	1.403147131E-1	-2.295619011E0	2.356122213E0
1.950109329E0	5.373635292E-1	3.463250995E-1	-3.005078316E0	3.072327509E0
1.955135007E0	5.478146076E-1	5.737299323E-1	-3.661659718E0	3.746600962E0
1.960160684E0	5.466338396E-1	7.803694010E-1	-4.169629097E0	4.277100860E0
1.965186361E0	5.421526432E-1	9.619448185E-1	-4.423781872E0	4.559508019E0
1.970212038E0	5.718592405E-1	1.103999615E0	-4.419542789E0	4.591099717E0
1.975237715E0	6.687281132E-1	1.206071854E0	-4.281500816E0	4.498116922E0
1.980263392E0	7.653149366E-1	1.248467207E0	-4.091053963E0	4.345238756E0
1.985289069E0	8.423010111E-1	1.230509639E0	-3.862565517E0	4.140415117E0
1.990314746E0	9.332019091E-1	1.156230211E0	-3.562585354E0	3.860019237E0
1.995340423E0	1.052253246E0	1.048864007E0	-3.238985062E0	3.563478193E0
2.000366100E0	1.156709671E0	9.460777044E-1	-2.992257118E0	3.344643919E0
2.005391777E0	1.151475430E0	8.760568500E-1	-2.817586422E0	3.167359234E0
2.010417454E0	1.051923394E0	8.576820493E-1	-2.681537151E0	3.005462164E0
2.015443132E0	8.877975941E-1	8.475725651E-1	-2.612882137E0	2.886817778E0
2.020468809E0	7.074711323E-1	8.266271353E-1	-2.616379261E0	2.833596348E0
2.025494486E0	5.204658508E-1	7.617810965E-1	-2.706276417E0	2.859217932E0
2.030520163E0	2.980816364E-1	6.774942875E-1	-2.896815300E0	2.989881278E0
2.035545840E0	5.447864532E-2	6.463002563E-1	-3.168724060E0	3.234421759E0
2.040571517E0	-1.631290913E-1	6.880947948E-1	-3.459664822E0	3.531198978E0
2.045597194E0	-3.653351068E-1	7.938790321E-1	-3.759929180E0	3.860152989E0
2.050622871E0	-5.103743672E-1	9.403638840E-1	-3.964153290E0	4.106005058E0
2.055648548E0	-6.377248168E-1	1.041728020E0	-4.053195000E0	4.233235159E0
2.060674225E0	-7.726805210E-1	1.102977514E0	-4.012694359E0	4.232648178E0
2.065699902E0	-8.684728146E-1	1.133666992E0	-3.861819267E0	4.117413500E0
2.070725579E0	-8.638758659E-1	1.128906727E0	-3.586255550E0	3.857711858E0
2.075751257E0	-8.073577285E-1	1.054771900E0	-3.195645332E0	3.460710816E0
2.080776934E0	-7.226899862E-1	8.486863971E-1	-2.757098675E0	2.973910308E0
2.085802611E0	-6.571884751E-1	5.869012475E-1	-2.218116760E0	2.386711488E0
2.090828288E0	-6.481257677E-1	2.975835800E-1	-1.645870209E0	1.793742384E0
2.095853965E0	-6.557993889E-1	2.332931757E-2	-1.054896355E0	1.242345932E0
2.100879642E0	-6.696038842E-1	-2.268556058E-1	-5.074930191E-1	8.702769629E-1
2.105905319E0	-6.695299149E-1	-4.151886404E-1	5.865097046E-3	7.878364763E-1
2.110930996E0	-6.744147539E-1	-5.612257123E-1	4.517221451E-1	9.868446974E-1
2.115956673E0	-6.934067011E-1	-6.607325673E-1	7.966527939E-1	1.245807390E0
2.120982350E0	-7.213352323E-1	-7.765133381E-1	1.026410103E0	1.475403396E0
2.126008027E0	-7.291836143E-1	-8.992276192E-1	1.150667191E0	1.632284913E0
2.131033704E0	-6.930583715E-1	-9.812507629E-1	1.179129601E0	1.683309116E0
2.136059382E0	-5.657448769E-1	-9.747248888E-1	1.121553421E0	1.589980488E0
2.141085059E0	-4.246668816E-1	-8.701200485E-1	9.972877502E-1	1.389976157E0
2.146110736E0	-2.946505547E-1	-6.861956120E-1	8.160896301E-1	1.106203260E0
2.151136413E0	-1.527230740E-1	-4.896524251E-1	6.307640076E-1	8.129865115E-1
2.156162090E0	-1.419556141E-2	-2.846886516E-1	4.223051071E-1	5.095004865E-1
2.161187767E0	1.393132210E-1	-1.041640043E-1	2.960481644E-1	3.433698137E-1
2.166213444E0	2.595757246E-1	4.583239555E-3	2.902107239E-1	3.893877594E-1
2.171239121E0	3.658362627E-1	2.272307873E-2	4.094333649E-1	5.495345209E-1
2.176264798E0	4.251135588E-1	-3.043305874E-2	6.200361252E-1	7.523911918E-1
2.181290475E0	4.387496710E-1	-1.595737636E-1	8.739128113E-1	9.908020294E-1
2.186316152E0	4.557904005E-1	-3.645641506E-1	1.094321251E0	1.240238247E0
2.191341829E0	4.916397333E-1	-5.734349489E-1	1.357647896E0	1.553623209E0
2.196367507E0	6.143281460E-1	-7.957825661E-1	1.682781219E0	1.960209580E0
2.201393184E0	7.960858345E-1	-1.046433687E0	1.959486961E0	2.359738390E0
2.206418861E0	9.231907129E-1	-1.287264824E0	2.149357796E0	2.670031976E0
2.211444538E0	9.633650780E-1	-1.441743731E0	2.199657440E0	2.800926653E0
2.216470215E0	8.794808388E-1	-1.452032208E0	2.086387634E0	2.689776467E0
2.221495892E0	6.297755241E-1	-1.317444324E0	1.814229965E0	2.328885383E0
2.226521569E0	2.772604227E-1	-1.089454174E0	1.387928009E0	1.786092914E0
2.231547246E0	-6.372737885E-2	-7.808352709E-1	8.793802261E-1	1.177741262E0
2.236572923E0	-2.847989798E-1	-3.996141851E-1	3.749666214E-1	6.175774631E-1
2.241598600E0	-3.118528128E-1	2.205961943E-2	-5.323600769E-2	3.171322692E-1
2.246624277E0	-2.001761198E-1	4.373744726E-1	-3.618516922E-1	6.019165685E-1
2.251649954E0	9.439826012E-3	7.749533057E-1	-4.453430176E-1	8.938524149E-1
2.256675632E0	2.386443615E-1	1.020206690E0	-2.700958252E-1	1.082000266E0
2.261701309E0	4.001635313E-1	1.091132045E0	1.448001862E-1	1.171181918E0
2.266726986E0	5.228635073E-1	9.197369814E-1	7.800788879E-1	1.314467738E0
2.271752663E0	6.317056417E-1	5.572410822E-1	1.535037994E0	1.750974382E0
2.276778340E0	7.709586620E-1	4.497039318E-2	2.294692993E0	2.421159955E0
2.281804017E0	9.320818186E-1	-4.609488845E-1	2.972873688E0	3.149480648E0
2.286829694E0	1.044576287E0	-8.904446959E-1	3.583848000E0	3.837707370E0
2.291855371E0	1.047598600E0	-1.240177155E0	4.065288544E0	4.377450530E0
2.296881048E0	9.759789705E-1	-1.516065121E0	4.354909897E0	4.713409447E0
2.301906725E0	8.742296696E-1	-1.718926549E0	4.462171555E0	4.861065827E0
2.306932402E0	7.344172001E-1	-1.896872997E0	4.429943085E0	4.874617064E0
2.311958079E0	5.580396652E-1	-2.030770302E0	4.272374153E0	4.763256994E0
2.316983757E0	4.034297466E-1	-2.082005978E0	3.965469360E0	4.496938036E0
2.322009434E0	3.044803143E-1	-2.030869007E0	3.528431892E0	4.082519909E0
2.327035111E0	2.603795528E-1	-1.852896452E0	3.023748398E0	3.555851114E0
2.332060788E0	2.412059307E-1	-1.604920387E0	2.466112137E0	2.952229466E0
2.337086465E0	1.883713007E-1	-1.358238459E0	1.946718216E0	2.381177706E0
2.342112142E0	1.387511492E-1	-1.131466508E0	1.499315262E0	1.883458148E0
2.347137819E0	1.291699409E-1	-9.384692311E-1	1.090643883E0	1.444615330E0
2.352163496E0	1.098922491E-1	-7.407535315E-1	7.401494980E-1	1.052907109E0
2.357189173E0	6.950902939E-2	-5.667206049E-1	4.959239960E-1	7.562700305E-1
2.362214850E0	-1.751255989E-2	-4.737758636E-1	4.346275330E-1	6.431728781E-1
2.367240527E0	-9.968757629E-2	-4.814512730E-1	6.231307983E-1	7.937410994E-1
2.372266204E0	-2.303429842E-1	-5.476086140E-1	8.602914810E-1	1.045482911E0
2.377291882E0	-3.907783031E-1	-6.397343874E-1	1.088638306E0	1.321779531E0
2.382317559E0	-5.623766184E-1	-7.444157004E-1	1.284262657E0	1.587372914E0
2.387343236E0	-6.978375912E-1	-8.434963226E-1	1.413713455E0	1.788029385E0
2.392368913E0	-7.831885219E-1	-9.182692170E-1	1.434034348E0	1.874315108E0
2.397394590E0	-8.710681200E-1	-9.357051253E-1	1.417056084E0	1.908494615E0
2.402420267E0	-9.564056993E-1	-9.056513906E-1	1.362775803E0	1.895276811E0
2.407445944E0	-1.005193233E0	-8.619157076E-1	1.247248650E0	1.819049564E0
2.412471621E0	-1.021417856E0	-8.237013817E-1	1.146970749E0	1.742790952E0
2.417497298E0	-9.801734686E-1	-7.669510245E-1	1.061805725E0	1.635966167E0
2.422522975E0	-9.040027857E-1	-7.393701077E-1	9.676265717E-1	1.516637852E0
2.427548652E0	-7.814673185E-1	-7.119678855E-1	7.732858658E-1	1.309794056E0
2.432574329E0	-5.966649055E-1	-6.604474783E-1	5.216989517E-1	1.031682934E0
2.437600007E0	-3.768630028E-1	-5.508320332E-1	2.413835526E-1	7.097236582E-1
2.442625684E0	-1.542537212E-1	-3.632996678E-1	-8.219242096E-2	4.031580995E-1
2.447651361E0	7.712936401E-2	-1.354653835E-1	-4.635457993E-1	4.890547177E-1
2.452677038E0	2.944431305E-1	6.667187810E-2	-9.458494186E-1	9.928610271E-1
2.457702715E0	5.270750523E-1	2.440865338E-1	-1.471725464E0	1.582201690E0
2.462728392E0	7.899315357E-1	4.741993248E-1	-1.907341957E0	2.118209190E0
2.467754069E0	1.092551947E0	7.574564219E-1	-2.209793091E0	2.578874850E0
2.472779746E0	1.390988588E0	1.103565097E0	-2.493856907E0	3.061376724E0
2.477805423E0	1.535437107E0	1.421840191E0	-2.821394444E0	3.512757214E0
2.482831100E0	1.514995337E0	1.683826447E0	-3.120281219E0	3.855727851E0
2.487856777E0	1.386204481E0	1.846933603E0	-3.309016228E0	4.035135065E0
2.492882454E0	1.215368986E0	1.873308897E0	-3.401916981E0	4.069330060E0
2.497908132E0	1.045154333E0	1.753802538E0	-3.465971470E0	4.022577426E0
2.502933809E0	8.848428726E-1	1.550796986E0	-3.486821651E0	3.917377111E0
2.507959486E0	7.055959702E-1	1.269168139E0	-3.483638287E0	3.774173969E0
2.512985163E0	5.168149471E-1	9.950864911E-1	-3.480335712E0	3.656505365E0
2.518010840E0	3.756079674E-1	7.381071448E-1	-3.438601017E0	3.536928110E0
2.523036517E0	2.336940765E-1	5.173376203E-1	-3.286668777E0	3.335332485E0
2.528062194E0	1.388549805E-1	3.420175910E-1	-3.077284813E0	3.099344859E0
2.533087871E0	9.098601341E-2	1.830136925E-1	-2.848782539E0	2.856104764E0
2.538113548E0	1.829361916E-2	3.013737500E-2	-2.649022579E0	2.649257168E0
2.543139225E0	-3.161907196E-2	-1.170344800E-1	-2.525743961E0	2.528651695E0
2.548164902E0	-5.908417702E-2	-2.396018803E-1	-2.392703533E0	2.405396059E0
2.553190579E0	-2.263784409E-3	-3.141046464E-1	-2.197241783E0	2.219580660E0
2.558216257E0	6.185889244E-2	-2.932458520E-1	-2.011096954E0	2.033305342E0
2.563241934E0	9.939146042E-2	-2.395058870E-1	-1.848506927E0	1.866606438E0
2.568267611E0	1.150996685E-1	-1.867693812E-1	-1.752467155E0	1.766146049E0
2.573293288E0	8.983421326E-2	-1.395158917E-1	-1.679826736E0	1.688002587E0
2.578318965E0	4.273009300E-2	-9.299603850E-2	-1.577923775E0	1.581239249E0
2.583344642E0	5.511903763E-2	-4.732488841E-2	-1.341564178E0	1.343529753E0
2.588370319E0	6.944322586E-2	-3.613833338E-2	-1.066523552E0	1.069392738E0
2.593395996E0	6.225156784E-2	-5.497217178E-2	-8.294591904E-1	8.336064694E-1
2.598421673E0	3.454351425E-2	-1.087949872E-1	-6.496677399E-1	6.596194174E-1
2.603447350E0	1.590824127E-2	-1.736079454E-1	-5.798788071E-1	6.055181432E-1
2.608473027E0	-4.087424278E-2	-2.396239489E-1	-5.674896240E-1	6.173611698E-1
2.613498704E0	-1.784884930E-1	-2.919682860E-1	-5.264186859E-1	6.278696163E-1
2.618524382E0	-3.056089878E-1	-3.206916749E-1	-4.567909241E-1	6.363159216E-1
2.623550059E0	-4.123291969E-1	-3.542271852E-1	-3.300466537E-1	6.359426539E-1
2.628575736E0	-4.791929722E-1	-4.162636697E-1	-1.511402130E-1	6.524911580E-1
2.633601413E0	-5.249793530E-1	-4.684908688E-1	6.061267853E-2	7.062300701E-1
2.638627090E0	-5.685968399E-1	-5.300447345E-1	3.050937653E-1	8.350640649E-1
2.643652767E0	-6.237466335E-1	-5.864337683E-1	5.581569672E-1	1.022009602E0
2.648678444E0	-6.518094540E-1	-6.853741407E-1	7.383794785E-1	1.199915635E0
2.653704121E0	-6.960704327E-1	-7.789905667E-1	8.458929062E-1	1.344200565E0
2.658729798E0	-6.950509548E-1	-8.574582338E-1	9.240083694E-1	1.439486686E0
2.663755475E0	-6.739835739E-1	-8.874149919E-1	9.204931259E-1	1.445360447E0
2.668781152E0	-5.910649300E-1	-8.834265471E-1	9.409904480E-1	1.419599676E0
2.673806829E0	-4.669129848E-1	-8.265195489E-1	9.523830414E-1	1.344684259E0
2.678832507E0	-3.409941196E-1	-7.311779261E-1	9.645709991E-1	1.257495671E0
2.683858184E0	-2.046470642E-1	-5.977584124E-1	9.443445206E-1	1.136213938E0
2.688883861E0	-6.809473038E-2	-5.028136969E-1	8.967285156E-1	1.030330305E0
2.693909538E0	1.063289642E-1	-4.798184037E-1	7.884836197E-1	9.291060046E-1
2.698935215E0	2.801303864E-1	-5.093132257E-1	6.341295242E-1	8.602286026E-1
2.703960892E0	4.820261002E-1	-5.478320122E-1	4.720268250E-1	8.690675453E-1
2.708986569E0	6.646304131E-1	-5.663154125E-1	2.877578735E-1	9.193755088E-1
2.714012246E0	7.568054199E-1	-5.449961424E-1	1.386222839E-1	9.428633922E-1
2.719037923E0	8.168761730E-1	-4.595218897E-1	1.002788544E-2	9.373087046E-1
2.724063600E0	9.031889439E-1	-3.092604280E-1	-5.525493622E-2	9.562663795E-1
2.729089277E0	9.831936359E-1	-1.367453337E-1	-7.671260834E-2	9.956173142E-1
2.734114954E0	1.057845592E0	-8.312433958E-3	2.695083618E-3	1.057881684E0
2.739140632E0	1.070399523E0	1.294741035E-1	1.826305389E-1	1.093559599E0
2.744166309E0	1.064899921E0	2.576352358E-1	5.248336792E-1	1.214840791E0
2.749191986E0	1.028182745E0	3.522410989E-1	9.808788300E-1	1.464020774E0
2.754217663E0	9.951131344E-1	3.938364983E-1	1.478404045E0	1.825112560E0
2.759243340E0	9.288635254E-1	3.869523406E-1	2.012039185E0	2.249626912E0
2.764269017E0	8.501338959E-1	3.263233304E-1	2.538108826E0	2.696518305E0
2.769294694E0	7.602748871E-1	1.970466226E-1	3.027399063E0	3.127617362E0
2.774320371E0	6.794309616E-1	3.196134418E-2	3.493890762E0	3.559483195E0
2.779346048E0	6.223142147E-1	-1.697979867E-1	3.889617920E0	3.942744463E0
2.784371725E0	6.174430847E-1	-3.614530563E-1	4.142968178E0	4.204291807E0
2.789397402E0	6.208906174E-1	-4.914631248E-1	4.268762589E0	4.341586714E0
2.794423079E0	6.549115181E-1	-5.132313371E-1	4.325151443E0	4.404458027E0
2.799448757E0	6.601817608E-1	-4.662598372E-1	4.336813927E0	4.411484243E0
2.804474434E0	6.349401474E-1	-4.042728543E-1	4.261387825E0	4.327356205E0
2.809500111E0	5.777151585E-1	-3.516701460E-1	4.104277611E0	4.159629960E0
2.814525788E0	4.922144413E-1	-2.990172505E-1	3.885080338E0	3.927535563E0
2.819551465E0	4.302558899E-1	-2.079048157E-1	3.613705635E0	3.645162954E0
2.824577142E0	3.532116413E-1	-8.306947351E-2	3.381176949E0	3.400590619E0
2.829602819E0	2.421741486E-1	3.733274341E-2	3.110841751E0	3.120477280E0
2.834628496E0	9.784841537E-2	1.346947402E-1	2.807308197E0	2.812240441E0
2.839654173E0	-9.789204597E-2	1.952172667E-1	2.455958366E0	2.465648826E0
2.844679850E0	-2.199268341E-1	2.053692639E-1	2.037521362E0	2.059620754E0
2.849705527E0	-2.727169991E-1	2.183746994E-1	1.580673218E0	1.618823614E0
2.854731204E0	-2.851378918E-1	2.061233073E-1	1.095097542E0	1.150230004E0
2.859756882E0	-2.766222954E-1	1.931826919E-1	5.809564590E-1	6.718257617E-1
2.864782559E0	-3.096666336E-1	1.659983993E-1	6.233119965E-2	3.568389987E-1
2.869808236E0	-3.943812847E-1	1.300430447E-1	-4.079418182E-1	5.821205359E-1
2.874833913E0	-4.835803509E-1	1.383882165E-1	-7.962093353E-1	9.417805264E-1
2.879859590E0	-5.253503323E-1	1.816414595E-1	-1.092790604E0	1.226041555E0
2.884885267E0	-5.256500244E-1	2.740249634E-1	-1.345296860E0	1.470109271E0
2.889910944E0	-5.096669197E-1	4.202345014E-1	-1.567787170E0	1.701268355E0
2.894936621E0	-5.121700764E-1	6.009954214E-1	-1.779083252E0	1.946445710E0
2.899962298E0	-4.432446957E-1	7.924852371E-1	-1.969384193E0	2.168633859E0
2.904987975E0	-3.177454472E-1	1.028426528E0	-2.086016655E0	2.347357829E0
2.910013652E0	-1.212084293E-1	1.198987126E0	-2.129151344E0	2.446537770E0
2.915039329E0	1.467692852E-1	1.314157486E0	-2.084680557E0	2.468692801E0
2.920065007E0	3.484582901E-1	1.397925138E0	-1.943457603E0	2.419224117E0
2.925090684E0	5.045747757E-1	1.421488523E0	-1.777776718E0	2.331462071E0
2.930116361E0	5.790848732E-1	1.404123187E0	-1.693502426E0	2.274830034E0
2.935142038E0	6.311442852E-1	1.350978374E0	-1.738823891E0	2.290631834E0
2.940167715E0	7.283360958E-1	1.234028816E0	-1.798945427E0	2.299892440E0
2.945193392E0	7.608115673E-1	1.101710200E0	-1.744747162E0	2.199259481E0
2.950219069E0	7.627348900E-1	9.207956791E-1	-1.662596703E0	2.047890864E0
2.955244746E0	7.390336990E-1	7.295641899E-1	-1.476002693E0	1.804721216E0
2.960270423E0	7.526226044E-1	5.418025255E-1	-1.233102798E0	1.542897687E0
2.965296100E0	2.419189930E0	1.634955406E-4	2.063344955E0	3.179602546E0
2.970321777E0	1.282859039E1	-1.278165460E0	1.003095722E1	1.633482602E1
2.975347454E0	1.771237564E1	-2.858451605E0	1.112844372E1	2.111258525E1
2.980373132E0	1.174461555E1	-1.991043210E0	8.163202286E0	1.444084898E1
2.985398809E0	5.288635254E0	-9.375563860E-1	7.446582794E0	9.181517856E0
2.990424486E0	-1.330599785E-1	-2.871114016E-1	6.369443893E0	6.377299854E0
2.995450163E0	-3.252327919E0	-2.365963161E-1	3.860754967E0	5.053616885E0
3.000475840E0	-3.720652580E0	-6.519206762E-1	8.832721710E-1	3.879230068E0
3.005501517E0	-2.251394749E0	-7.484787107E-1	-1.821618080E0	2.991202287E0
3.010527194E0	-1.268668175E-1	-1.114862040E-1	-3.805122852E0	3.808869161E0
3.015552871E0	1.361481428E0	1.031358600E0	-5.001414299E0	5.285023863E0
3.020578548E0	2.042071819E0	2.222010374E0	-5.488074780E0	6.263094459E0
3.025604225E0	2.441144705E0	2.915719986E0	-5.567231655E0	6.742008514E0
3.030629902E0	2.042341709E0	2.883298635E0	-5.196428299E0	6.283903066E0
3.035655579E0	9.086990356E-1	2.445326328E0	-4.395411015E0	5.111261368E0
3.040681257E0	-2.377543449E-1	2.097986221E0	-3.193192482E0	3.828126375E0
3.045706934E0	-1.413319349E0	1.293856144E0	-2.154150009E0	2.883036172E0
3.050732611E0	-1.995225191E0	5.056204200E-1	-1.693396568E0	2.665364423E0
3.055758288E0	-2.092278242E0	4.806005955E-2	-1.427113533E0	2.533099099E0
3.060783965E0	-1.892094374E0	-2.379106879E-1	-9.293737411E-1	2.121404762E0
3.065809642E0	-1.245417595E0	-6.311382055E-1	-1.098175049E-1	1.400521440E0
3.070835319E0	-7.009530067E-1	-8.888816833E-1	8.204946518E-1	1.398090569E0
3.075860996E0	-8.108481169E-1	-1.107164979E0	1.153237343E0	1.792552741E0
3.080886673E0	-4.864952564E-1	-1.121019483E0	2.286071777E-1	1.243231095E0
3.085912350E0	-2.428144217E-1	-1.022325754E0	-1.306993484E0	1.677003506E0
3.090938027E0	-3.122274876E-1	-7.453714013E-1	-2.736235142E0	2.853076809E0
3.095963704E0	-5.492223501E-1	-3.122382164E-1	-3.552946568E0	3.608679427E0
3.100989382E0	-7.366298437E-1	1.000051498E-1	-3.720041752E0	3.793591332E0
3.106015059E0	-9.363852739E-1	4.663743973E-1	-3.405681133E0	3.562721774E0
3.111040736E0	-1.083529949E0	7.896256447E-1	-2.657690525E0	2.976720467E0
3.116066413E0	-1.104560852E0	9.522780180E-1	-1.566627502E0	2.140376096E0
3.121092090E0	-1.046014309E0	8.893219233E-1	-4.141445160E-1	1.434069419E0
3.126117767E0	-1.020862460E0	6.458264589E-1	6.188011169E-1	1.357264455E0
3.131143444E0	-1.102108240E0	3.771436214E-1	1.480328560E0	1.883680580E0
3.136169121E0	-1.213272214E0	1.102880239E-1	1.917492867E0	2.271777235E0
3.141194798E0	-1.263433456E0	-1.025334597E-1	1.859225273E0	2.250221284E0
3.146220475E0	-1.552887797E0	-1.317946911E-1	2.018609047E0	2.550218194E0
3.151246152E0	-1.281463623E0	-3.589512110E-1	1.142118454E0	1.753690267E0
3.156271829E0	-8.455756307E-1	-5.657851696E-1	1.296119690E-1	1.025626768E0
3.161297507E0	-5.826301575E-1	-5.391281843E-1	-7.612524033E-1	1.099828314E0
3.166323184E0	-4.284627438E-1	-2.673029900E-1	-1.512186050E0	1.594282868E0
3.171348861E0	-2.533464432E-1	9.302496910E-2	-2.128536224E0	2.145577900E0
3.176374538E0	-8.171212673E-2	4.519233704E-1	-2.567630291E0	2.608378216E0
3.181400215E0	-9.151852131E-2	7.240920067E-1	-2.829794884E0	2.922400376E0
3.186425892E0	-3.413740396E-1	8.959519863E-1	-2.977459908E0	3.128023929E0
3.191451569E0	-7.033621669E-1	1.078478098E0	-3.053896904E0	3.314229872E0
3.196477246E0	-1.134601116E0	1.286361933E0	-2.911091805E0	3.378831486E0
3.201502923E0	-1.543328762E0	1.390666008E0	-2.611748219E0	3.337221055E0
3.206528600E0	-1.488768339E0	1.253309488E0	-2.677665234E0	3.310152103E0
3.211554277E0	-1.273840308E0	9.517433643E-1	-2.902828217E0	3.309818155E0
3.216579954E0	-1.027892232E0	6.875545979E-1	-2.933326721E0	3.183347204E0
3.221605632E0	-6.879383922E-1	4.892511368E-1	-2.946480751E0	3.065024424E0
3.226631309E0	-5.361341238E-1	3.759601116E-1	-3.267570972E0	3.332537451E0
3.231656986E0	-4.719268680E-1	2.089662552E-1	-3.561440945E0	3.598644671E0
3.236682663E0	-3.170633316E-1	-2.154612541E-2	-3.392985821E0	3.407835995E0
3.241708340E0	-4.123055935E-2	-1.159279346E-1	-2.853530884E0	2.856182373E0
3.246734017E0	2.413849831E-1	-9.967231750E-2	-2.234982967E0	2.250188913E0
3.251759694E0	3.580495119E-1	-1.083354950E-1	-1.694773674E0	1.735567296E0
3.256785371E0	1.664779186E-1	-2.186348438E-1	-2.194114208E0	2.211256035E0
3.261811048E0	-1.146229625E0	-5.320888758E-1	-3.761799812E0	3.968387425E0
3.266836725E0	-2.543745518E0	-8.437206745E-1	-4.422348499E0	5.171041683E0
3.271862402E0	-2.618046284E0	-8.375116587E-1	-3.678944588E0	4.592409542E0
3.276888079E0	-1.998243093E0	-6.900264025E-1	-1.861437798E0	2.816746806E0
3.281913757E0	-1.415760398E0	-6.606370211E-1	1.028213501E-1	1.565691862E0
3.286939434E0	-3.733137250E-1	-8.120369911E-1	1.908632278E0	2.107520910E0
3.291965111E0	1.290718198E0	-1.138723493E0	3.131271362E0	3.573164564E0
3.296990788E0	2.792232990E0	-1.380085468E0	3.733954430E0	4.862470221E0
3.302016465E0	3.623786449E0	-1.284013152E0	4.014663696E0	5.558600777E0
3.307042142E0	3.444177866E0	-1.047266841E0	3.950120926E0	5.344397472E0
3.312067819E0	2.994350433E0	-6.686122417E-1	3.372710228E0	4.559424430E0
3.317093496E0	2.725150824E0	-1.726744175E-1	1.769275665E0	3.253705556E0
3.322119173E0	1.399121523E0	-1.620993614E-1	1.191083908E0	1.844586164E0
3.327144850E0	6.161566973E-1	-1.595842838E-1	5.409221649E-1	8.352921691E-1
3.332170527E0	1.362111330E0	-8.044004440E-3	-7.135534286E-1	1.537715994E0
3.337196204E0	1.926077008E0	2.795326710E-2	-6.698884964E-1	2.039437330E0
3.342221882E0	2.548059225E0	-8.383512497E-3	3.259706497E-1	2.568838835E0
3.347247559E0	5.604956150E-1	-4.384202957E-1	1.035118103E0	1.256119890E0
3.352273236E0	-2.596019745E0	-1.524136305E0	1.286308289E0	3.273667516E0
3.357298913E0	-1.068103313E0	-2.864147425E0	1.927433014E0	3.613749186E0
3.362324590E0	9.494268894E-2	-3.144245625E0	1.346699715E0	3.421826235E0
3.367350267E0	2.449671030E-1	-1.953663230E0	8.849534988E-1	2.158692102E0
3.372375944E0	1.206819057E0	-3.523683548E-1	1.064448357E0	1.647308714E0
3.377401621E0	1.875235796E0	8.286782503E-1	1.464766502E0	2.519674153E0
3.382427298E0	2.126158714E0	1.361235857E0	2.005402565E0	3.224151576E0
3.387452975E0	2.161590099E0	1.385865450E0	2.304238319E0	3.450015802E0
3.392478652E0	1.773041725E0	1.164094210E0	2.395216942E0	3.199352511E0
3.397504329E0	1.153635621E0	8.767004609E-1	2.584591866E0	2.963037961E0
3.402530007E0	5.718944073E-1	5.945519209E-1	2.623305321E0	2.749961092E0
3.407555684E0	2.874308527E-1	4.610925317E-1	2.300647736E0	2.363937990E0
3.412581361E0	3.128543496E-1	5.729331374E-1	1.802984238E0	1.917519853E0
3.417607038E0	6.150213480E-1	7.014769912E-1	1.546079636E0	1.805736267E0
3.422632715E0	1.181774735E0	6.663762927E-1	1.314030647E0	1.888736464E0
3.427658392E0	1.398996234E0	5.128340721E-1	8.100109100E-1	1.695967842E0
3.432684069E0	1.408544660E0	4.011005759E-1	3.163232803E-1	1.498312433E0
3.437709746E0	1.237550378E0	3.906375766E-1	-5.238819122E-2	1.298796819E0
3.442735423E0	1.042267799E0	3.869571686E-1	2.412414551E-2	1.112043160E0
3.447761100E0	9.608945251E-1	3.469974995E-1	7.510776520E-1	1.268007568E0
3.452786777E0	8.541005850E-1	2.364987433E-1	1.802689552E0	2.008758096E0
3.457812454E0	7.090868354E-1	1.260966957E-1	2.518801689E0	2.619745496E0
3.462838132E0	7.441681623E-1	7.287871838E-2	2.603410721E0	2.708661098E0
3.467863809E0	9.842298627E-1	1.724542677E-1	2.435069084E0	2.632111385E0
3.472889486E0	1.125033140E0	5.292070508E-1	2.410979271E0	2.712670403E0
3.477915163E0	1.237092614E0	1.035896897E0	2.870513916E0	3.292921296E0
3.482940840E0	1.396095037E0	1.498389244E0	3.459197998E0	4.019987869E0
3.487966517E0	1.528759003E0	1.880560637E0	3.822927475E0	4.526409932E0
3.492992194E0	1.527944684E0	2.161076784E0	3.937958717E0	4.744721982E0
3.498017871E0	1.536163568E0	2.386490583E0	3.694523811E0	4.658824101E0
3.503043548E0	2.007575035E0	2.337675095E0	2.638689041E0	4.056816760E0
3.508069225E0	2.286667585E0	2.247960329E0	1.244814873E0	3.439729401E0
3.513094902E0	1.986675739E0	2.182811022E0	6.083860397E-1	3.013582258E0
3.518120579E0	1.371610641E0	2.295942545E0	1.154082298E0	2.912829187E0
3.523146257E0	1.111537218E0	2.369868279E0	2.469296455E0	3.598501859E0
3.528171934E0	1.541356564E0	2.110187054E0	3.639939308E0	4.480828899E0
3.533197611E0	2.293094158E0	1.587753773E0	3.887014389E0	4.784153397E0
3.538223288E0	3.690898895E0	1.072033286E0	3.441231728E0	5.158882226E0
3.543248965E0	4.635330677E0	1.010797143E0	2.815215111E0	5.516650929E0
3.548274642E0	4.079142094E0	1.116089463E0	2.310654640E0	4.819147308E0
3.553300319E0	2.977634192E0	1.156479359E0	1.841765404E0	3.687255034E0
3.558325996E0	2.415160179E0	1.066816092E0	1.270552635E0	2.930085197E0
3.563351673E0	2.591250420E0	9.007301331E-1	6.263828278E-1	2.813938336E0
3.568377350E0	2.843559027E0	7.642935514E-1	9.772300720E-3	2.944497932E0
3.573403027E0	3.337538719E0	9.056257010E-1	2.523040771E-1	3.467416900E0
3.578428704E0	3.423923016E0	8.535465002E-1	3.240003586E-1	3.543552833E0
3.583454382E0	2.714532852E0	7.802789211E-1	-4.158763885E-1	2.854904021E0
3.588480059E0	1.744045734E0	7.334628105E-1	-5.174837112E-1	1.961492444E0
3.593505736E0	9.013288021E-1	5.494210720E-1	-2.834072113E-1	1.092966958E0
3.598531413E0	4.378782511E-1	4.996004105E-1	4.659271240E-2	6.659645739E-1
3.603557090E0	5.260155201E-1	5.731698275E-1	1.952238083E-1	8.020774986E-1
3.608582767E0	8.691184521E-1	6.452394724E-1	2.249994278E-1	1.105588351E0
3.613608444E0	1.164839506E0	6.869945526E-1	2.745523453E-1	1.379924484E0
3.618634121E0	1.353808045E0	7.654916048E-1	4.484920502E-1	1.618616304E0
3.623659798E0	1.494128227E0	8.896327019E-1	8.328971863E-1	1.928103531E0
3.628685475E0	1.446814775E0	1.169336319E0	1.151181221E0	2.187655966E0
3.633711152E0	1.048269391E0	1.222766399E0	8.637800217E-1	1.827605622E0
3.638736829E0	8.443658352E-1	1.156319618E0	5.309648514E-1	1.527073147E0
3.643762507E0	7.262188196E-1	1.216047764E0	6.945838928E-1	1.577533747E0
3.648788184E0	6.244413853E-1	1.030047894E0	5.368967056E-1	1.318781172E0
3.653813861E0	8.253281116E-1	9.389338493E-1	-1.664848328E-1	1.261142524E0
3.658839538E0	2.264197826E0	1.666446686E0	8.322477341E-1	2.931940082E0
3.663865215E0	2.306863308E0	2.083448172E0	1.890563965E-1	3.114179977E0
3.668890892E0	2.526757717E-1	2.632383823E0	-1.827767849E0	3.214657828E0
3.673916569E0	2.340692759E0	2.004730225E0	-2.837285519E0	4.189030315E0
3.678942246E0	2.129086971E0	1.604267359E0	-3.715226650E0	4.572700969E0
3.683967923E0	1.027977467E-1	1.889467001E0	-3.670710087E0	4.129741574E0
3.688993600E0	4.454326630E-2	1.715303183E0	-3.304121017E0	3.723098818E0
3.694019277E0	3.785204887E-1	1.484286785E0	-3.324435234E0	3.660362639E0
3.699044954E0	1.577317715E-1	1.474641085E0	-3.679209232E0	3.966866045E0
3.704070632E0	-3.514289856E-3	1.553429365E0	-3.923411369E0	4.219752589E0
3.709096309E0	1.997807026E-1	1.582675219E0	-3.630360126E0	3.965386214E0
3.714121986E0	4.672625065E-1	1.529444933E0	-2.831676006E0	3.252064738E0
3.719147663E0	4.805858135E-1	1.326315165E0	-1.873800755E0	2.345464540E0
3.724173340E0	2.980885506E-1	1.010763884E0	-1.213243484E0	1.607003474E0
3.729199017E0	8.067703247E-2	5.679335594E-1	-1.063243866E0	1.208116232E0
3.734224694E0	-1.346426010E-1	1.361386776E-1	-1.153426170E0	1.169210973E0
3.739250371E0	-2.883715630E-1	1.406702995E-1	-1.886114597E0	1.913210539E0
3.744276048E0	-1.210279465E-1	2.732038498E-3	-2.575605869E0	2.578449306E0
3.749301725E0	-1.505703926E-1	-3.538101912E-1	-2.837297916E0	2.863234633E0
3.754327402E0	-3.760185242E-1	-7.188072205E-1	-2.974778175E0	3.083403792E0
3.759353079E0	-2.969403267E-1	-1.116676450E0	-2.960300446E0	3.177816637E0
3.764378757E0	-2.627077103E-1	-1.380407929E0	-2.679057598E0	3.025209250E0
3.769404434E0	-2.336902618E-1	-1.582387090E0	-2.470079899E0	2.942763114E0
3.774430111E0	-1.600880623E-1	-1.784935594E0	-2.432593822E0	3.021446006E0
3.779455788E0	-8.298158646E-2	-2.026082993E0	-2.369214058E0	3.118505009E0
3.784481465E0	-5.816125870E-2	-2.239082813E0	-2.135502815E0	3.094712725E0
3.789507142E0	-2.673721313E-2	-2.429074287E0	-1.835974216E0	3.044982446E0
3.794532819E0	-1.812934875E-3	-2.610872269E0	-1.618149281E0	3.071654991E0
3.799558496E0	-1.020245552E-1	-2.832848310E0	-1.500419617E0	3.207288198E0
3.804584173E0	-2.596011162E-1	-3.114517212E0	-1.300464630E0	3.385087659E0
3.809609850E0	-4.449973106E-1	-3.375433445E0	-8.169727325E-1	3.501288048E0
3.814635527E0	-5.950679779E-1	-3.593049526E0	-2.218542099E-1	3.648743631E0
3.819661204E0	-6.662812233E-1	-3.725451469E0	1.981306076E-1	3.789746041E0
3.824686882E0	-7.258837223E-1	-3.821026087E0	1.083135605E-1	3.890871286E0
3.829712559E0	-7.355632782E-1	-3.965147018E0	-5.003442764E-1	4.063716108E0
3.834738236E0	-5.036060810E-1	-4.146896362E0	-1.168004990E0	4.337580452E0
3.839763913E0	-1.634762287E-1	-4.293533325E0	-1.349122047E0	4.503474569E0
3.844789590E0	1.365513802E-1	-4.391318798E0	-1.034631729E0	4.513622700E0
3.849815267E0	2.951109409E-1	-4.470839500E0	-5.028953552E-1	4.508702701E0
3.854840944E0	3.488330841E-1	-4.596380711E0	-1.949710846E-1	4.613720178E0
3.859866621E0	2.815291882E-1	-4.673852444E0	-2.167615891E-1	4.687338364E0
3.864892298E0	2.926297188E-1	-4.551148415E0	-3.056755066E-1	4.570779098E0
3.869917975E0	3.521018028E-1	-4.090335369E0	-3.380098343E-1	4.119353075E0
3.874943652E0	-1.028719187E0	-2.546373367E0	-3.938026428E-1	2.774411832E0
3.879969329E0	-5.373497009E-1	-1.868497849E0	5.787477493E-1	2.028540822E0
3.884995007E0	2.032862663E0	-3.084737062E0	1.702301979E0	4.067673215E0
3.890020684E0	2.832910299E0	-3.628786564E0	1.673045158E0	4.898219349E0
3.895046361E0	2.322239399E0	-3.638686419E0	6.158742905E-1	4.360290795E0
3.900072038E0	1.319983244E0	-3.548308849E0	-5.450439453E-1	3.824908412E0
3.905097715E0	7.827970982E-1	-3.494544268E0	-1.498860359E0	3.882163483E0
3.910123392E0	8.287065029E-1	-3.504233122E0	-2.227038383E0	4.233923027E0
3.915149069E0	1.148842573E0	-3.623265505E0	-2.711520672E0	4.669072342E0
3.920174746E0	1.580799580E0	-3.658876419E0	-3.088277340E0	5.042198022E0
3.925200423E0	1.877064466E0	-3.538371086E0	-3.411450386E0	5.261314920E0
3.930226100E0	1.401508093E0	-3.227990150E0	-3.437164307E0	4.919171050E0
3.935251777E0	1.389822006E0	-3.054117918E0	-3.026669979E0	4.518846382E0
3.940277454E0	1.613554478E0	-2.874261856E0	-2.394949913E0	4.074398650E0
3.945303132E0	1.596695185E0	-2.646795273E0	-1.612947464E0	3.486625912E0
3.950328809E0	1.556289196E0	-2.469225407E0	-7.998790741E-1	3.026370219E0
3.955354486E0	1.588902712E0	-2.309454441E0	-2.137947083E-1	2.811387526E0
3.960380163E0	1.671191096E0	-2.135025024E0	2.844362259E-1	2.726190658E0
3.965405840E0	1.708514214E0	-2.022904396E0	5.374660492E-1	2.701857281E0
3.970431517E0	1.468152046E0	-1.891583204E0	4.362039566E-1	2.433892221E0
3.975457194E0	9.288384914E-1	-1.711564183E0	2.067918777E-1	1.958304312E0
3.980482871E0	7.243485451E-1	-1.697502136E0	2.711486816E-2	1.845786969E0
3.985508548E0	7.748401165E-1	-1.699517608E0	-5.851440430E-1	1.957327478E0
3.990534225E0	-7.542457581E-1	-7.737497091E-1	-1.679430962E0	1.997013678E0
3.995559902E0	5.913014412E-1	-1.402360082E0	-1.503168106E0	2.139103912E0
4.000585579E0	1.849934459E0	-2.176800251E0	-1.428282738E0	3.193854789E0
4.005611257E0	2.797167778E0	-2.441029072E0	-1.728782654E0	4.095297300E0
4.010636934E0	3.449644089E0	-2.275825262E0	-2.151546001E0	4.659246201E0
4.015662611E0	3.176344872E0	-2.188383579E0	-2.592852592E0	4.647695558E0
4.020688288E0	2.158000231E0	-1.978158951E0	-2.996075153E0	4.188859529E0
4.025713965E0	1.386730909E0	-1.598899245E0	-2.634093285E0	3.379045552E0
4.030739642E0	1.208476782E0	-1.350316644E0	-1.517260551E0	2.363440448E0
4.035765319E0	8.725745678E-1	-8.056393862E-1	-6.297969818E-2	1.189288712E0
4.040790996E0	-1.357617378E-1	4.130889177E-1	1.122303009E0	1.203593680E0
4.045816673E0	1.454804182E0	-6.641496420E-1	3.381685257E0	3.740767987E0
4.050842350E0	1.517747283E0	-1.235488176E0	4.566936493E0	4.968591026E0
4.055868027E0	7.224860191E-1	-6.904053688E-1	4.072834969E0	4.193641652E0
4.060893704E0	8.803138733E-1	-1.104699492E0	3.724781990E0	3.983630801E0
4.065919382E0	1.008260727E0	-1.739166021E0	3.449194908E0	3.992271741E0
4.070945059E0	3.842363358E-1	-1.065987825E0	2.629676819E0	2.863418897E0
4.075970736E0	7.600226402E-1	-9.974570274E-1	2.297620773E0	2.617559198E0
4.080996413E0	1.508019686E0	-1.865837097E0	2.432259560E0	3.416336929E0
4.086022090E0	1.064111710E0	-1.228563547E0	1.488980293E0	2.204260519E0
4.091047767E0	9.045710564E-1	-5.864106417E-1	8.030109406E-1	1.344229447E0
4.096073444E0	1.925369859E0	-2.038100719E0	1.626270294E0	3.241243389E0
4.101099121E0	1.719708204E0	-2.162086964E0	1.227854729E0	3.023184345E0
4.106124798E0	1.758927226E0	6.383923531E0	-2.294438362E1	2.388080912E1
4.111150475E0	4.336610794E0	4.803110063E-1	2.711325645E0	5.136942534E0
4.116176152E0	5.251727104E-1	-3.259056091E0	1.221959209E1	1.265763343E1
4.121201829E0	-1.439692736E0	-4.224174976E0	1.106704998E1	1.193297803E1
4.126227507E0	9.499192238E-2	-7.979357839E-1	2.087720871E0	2.237030044E0
4.131253184E0	3.658766747E0	1.657879353E0	-5.703904152E0	6.976364428E0
4.136278861E0	2.055935621E0	7.815092802E-1	3.285336494E0	3.953614032E0
4.141304538E0	2.041496038E0	1.515543699E0	2.651332855E0	3.673437721E0
4.146330215E0	1.107417226E0	2.463292599E0	3.866071701E0	4.716004001E0
4.151355892E0	3.977470398E-1	1.895178795E0	9.209962845E0	9.411340020E0
4.156381569E0	-3.509187698E-1	9.678959846E-1	9.843084335E0	9.896781085E0
4.161407246E0	-3.720486164E-1	8.253803253E-1	5.559797287E0	5.633029267E0
4.166432923E0	1.931694746E-1	8.002331853E-1	3.597575188E0	3.690560232E0
4.171458600E0	1.367750645E0	8.237709403E-1	1.398923874E0	2.122811436E0
4.176484277E0	1.495051146E0	4.972196817E-1	-3.184556961E-1	1.607426319E0
4.181509954E0	1.897987723E0	-4.107043743E-1	-1.046590805E0	2.205989074E0
4.186535632E0	2.687967777E0	-1.691736937E0	-2.674189091E0	4.151919066E0
4.191561309E0	2.436987877E0	-2.127257347E0	-3.865991592E0	5.040835717E0
4.196586986E0	2.253893375E0	-2.294661045E0	-4.771994591E0	5.754775151E0
4.201612663E0	2.321669579E0	-2.394425154E0	-4.801249504E0	5.845974534E0
4.206638340E0	2.298938513E0	-2.053231955E0	-4.921170235E0	5.806788805E0
4.211664017E0	2.757797241E0	-1.501107335E0	-4.518754482E0	5.502536772E0
4.216689694E0	2.456578732E0	-1.050065875E0	-4.019715309E0	4.826544165E0
4.221715371E0	1.606755018E0	-4.961264133E-1	-3.328553677E0	3.729218777E0
4.226741048E0	7.811329365E-1	7.870626450E-2	-2.841650009E0	2.948107548E0
4.231766725E0	1.926872730E-1	2.486640215E-1	-2.285349369E0	2.306899200E0
4.236792402E0	1.243026257E-1	2.738797665E-1	-1.914366722E0	1.937849637E0
4.241818079E0	4.508756399E-1	5.238579512E-1	-1.486216545E0	1.639071571E0
4.246843757E0	1.017464280E0	9.289244413E-1	-9.395637512E-1	1.667607334E0
4.251869434E0	1.256116271E0	1.234150529E0	-3.462219238E-1	1.794665772E0
4.256895111E0	1.111113071E0	1.495533824E0	2.650251389E-1	1.881869284E0
4.261920788E0	7.982343435E-1	1.773266077E0	7.598018646E-1	2.087809742E0
4.266946465E0	4.228427410E-1	2.003471375E0	1.223876953E0	2.385491213E0
4.271972142E0	4.372272491E-1	2.388986349E0	3.168592453E0	3.992292772E0
4.276997819E0	8.402292728E-1	2.319197655E0	3.790055275E0	4.522077175E0
4.282023496E0	1.851358414E-1	1.565789938E0	3.090825081E0	3.469751157E0
4.287049173E0	2.961017132E0	1.212739348E0	2.612185478E0	4.130601912E0
4.292074850E0	4.015199661E0	1.372336745E0	1.679423332E0	4.563507334E0
4.297100527E0	5.237466812E0	1.931739807E0	8.862686157E-1	5.652269398E0
4.302126204E0	6.166816711E0	2.467399597E0	2.038745880E-1	6.645242958E0
4.307151882E0	6.289429665E0	2.703869343E0	-3.013381958E-1	6.852637422E0
4.312177559E0	5.493859291E0	2.661542416E0	-5.250139236E-1	6.127147588E0
4.317203236E0	5.097409248E0	2.365785122E0	-5.818367004E-1	5.649695057E0
4.322228913E0	4.584632874E0	1.864701867E0	-7.552776337E-1	5.006637189E0
4.327254590E0	3.914452314E0	1.417118788E0	-6.668157578E-1	4.216136363E0
4.332280267E0	3.018155813E0	1.012863040E0	-5.838003159E-1	3.236661684E0
4.337305944E0	2.205253363E0	5.460017920E-1	-5.913772583E-1	2.347549235E0
4.342331621E0	1.960406184E0	1.408109665E-1	-6.458034515E-1	2.068835961E0
4.347357298E0	2.172733784E0	-7.380306721E-2	-7.757530212E-1	2.308248630E0
4.352382975E0	2.226673126E0	3.573858738E-2	-1.072949409E0	2.471956895E0
4.357408652E0	2.072043419E-1	2.338138580E0	-9.239280701E0	9.532792536E0
4.362434329E0	-2.886557817E0	-5.062969923E-1	-1.528772354E0	3.305404300E0
4.367460007E0	-5.233065605E0	-8.270382881E-2	-1.500336647E0	5.444522532E0
4.372485684E0	-1.044469547E1	3.349395990E-1	-3.287090778E0	1.095485344E1
4.377511361E0	-1.044014072E1	-1.510713220E0	-2.715353012E0	1.089274689E1
4.382537038E0	-8.487219810E0	-1.701108098E0	-2.673842430E0	9.059586205E0
4.387562715E0	-9.107853889E0	-2.417262554E0	-2.766910553E0	9.820995608E0
4.392588392E0	-8.540113449E0	-3.197370529E0	-3.059651852E0	9.618637402E0
4.397614069E0	-9.131269455E0	-3.251029491E0	-4.470669746E0	1.067408837E1
4.402639746E0	-9.122475624E0	-2.529402733E0	-5.851331711E0	1.112903960E1
4.407665423E0	-4.554375648E0	-2.648231030E0	-3.826389313E0	6.511276396E0
4.412691100E0	-2.677820683E0	-2.351809025E0	-1.532711029E0	3.879553118E0
4.417716777E0	-4.068316460E0	-2.372623920E0	-4.080255985E0	6.231294568E0
4.422742454E0	-4.146469116E0	-2.129122972E0	-5.237293720E0	7.011106637E0
4.427768132E0	-2.911889553E0	-1.869760156E0	-5.271716595E0	6.306036764E0
4.432793809E0	-4.843838215E-1	4.537934065E-1	-5.572446823E0	5.611837465E0
4.437819486E0	-3.319933176E0	-3.543186426E0	-2.095366955E0	5.288354094E0
4.442845163E0	-4.429074287E0	-3.323927879E0	-1.119217873E0	5.649587971E0
4.447870840E0	-5.357321739E0	-2.257121801E0	-1.836065292E0	6.096444111E0
4.452896517E0	-4.798805714E0	-5.121088028E-1	-1.400700569E0	5.025211815E0
4.457922194E0	-1.667889833E0	2.791613579E0	-4.701576233E-1	3.285728391E0
4.462947871E0	2.265926361E0	7.692969799E0	1.025106430E0	8.084989165E0
4.467973548E0	4.404920101E0	1.162712669E1	2.641734123E0	1.271110363E1
4.472999225E0	2.206991673E0	1.243767166E1	4.052976608E0	1.326623941E1
4.478024902E0	-2.087980032E0	1.115560627E1	3.910772324E0	1.200422226E1
4.483050579E0	-5.892895699E0	8.433696747E0	3.036823273E0	1.072733686E1
4.488076257E0	-8.828083038E0	4.935791016E0	2.052776337E0	1.032041539E1
4.493101934E0	-1.266870308E1	1.900020719E0	1.727449417E0	1.292633737E1
4.498127611E0	-1.298807526E1	5.831972361E-1	1.459436417E0	1.308281975E1
4.503153288E0	-1.190811539E1	-1.250848651E0	2.578737259E0	1.224817212E1
4.508178965E0	-1.064421558E1	-3.359625340E0	5.297451019E0	1.235513639E1
4.513204642E0	-9.174224854E0	-4.895424843E0	7.414731979E0	1.277144614E1
4.518230319E0	-7.493337631E0	-4.559173584E0	6.311472893E0	1.080605676E1
4.523255996E0	-3.845519304E0	-3.397153378E0	3.121299744E0	6.005928894E0
4.528281673E0	-1.130787373E0	-2.252467632E0	8.436927795E-1	2.657838976E0
4.533307350E0	1.422719240E0	-1.871436596E0	8.582782745E-1	2.502607953E0
4.538333027E0	2.785779715E0	-1.314808965E0	2.065679550E0	3.708951771E0
4.543358704E0	3.447283983E0	-1.292556763E0	3.105849266E0	4.816717711E0
4.548384382E0	4.917780876E0	-1.949267149E0	4.104056358E0	6.695333431E0
4.553410059E0	5.921016693E0	-2.572462559E0	5.343011856E0	8.379962887E0
4.558435736E0	6.670342445E0	-2.953572750E0	6.497884750E0	9.769317610E0
4.563461413E0	7.354691505E0	-3.151597261E0	7.077004433E0	1.068213669E1
4.568487090E0	7.922336578E0	-3.181951046E0	7.177351952E0	1.115359181E1
4.573512767E0	8.100034714E0	-3.197473049E0	7.043780327E0	1.120041238E1
4.578538444E0	7.707131386E0	-3.101140976E0	7.088858604E0	1.092102861E1
4.583564121E0	7.259778500E0	-3.145498037E0	7.073681831E0	1.061298810E1
4.588589798E0	7.028424263E0	-3.290784121E0	6.817622185E0	1.032995547E1
4.593615475E0	5.934559822E0	-2.349883080E0	6.241771698E0	8.927522876E0
4.598641152E0	3.689802885E0	6.327599287E-2	5.438078880E0	6.572012712E0
4.603666829E0	4.419569969E0	7.550299168E-3	3.678459167E0	5.750105874E0
4.608692507E0	3.292793036E0	-7.811180949E-1	3.099780083E0	4.589255715E0
4.613718184E0	-7.207355499E-1	9.537044764E-1	3.803863525E0	3.987278480E0
4.618743861E0	-1.388389111E0	7.199624181E-1	2.745566368E0	3.159763423E0
4.623769538E0	-2.519822121E0	3.085064888E-1	2.591167450E0	3.627509962E0
4.628795215E0	-2.513313770E0	1.528867483E-1	2.809891701E0	3.773010977E0
4.633820892E0	-1.547972202E0	3.764334023E-1	2.962965965E0	3.364087894E0
4.638846569E0	-3.566942215E-1	7.299148440E-1	2.976209641E0	3.085098098E0
4.643872246E0	6.507222652E-1	9.263401031E-1	2.587644577E0	2.824437981E0
4.648897923E0	1.767417908E0	1.482835531E0	2.501441956E0	3.402907452E0
4.653923600E0	2.523668528E0	1.839637518E0	2.652225494E0	4.097251409E0
4.658949277E0	3.554926872E0	2.321359158E0	2.912341118E0	5.148586621E0
4.663974954E0	3.716114521E0	1.832028151E0	2.465272903E0	4.821141438E0
4.669000632E0	3.537397385E0	1.233597159E0	1.839347839E0	4.173504844E0
4.674026309E0	3.419863462E0	7.176337242E-1	1.452551842E0	3.784226621E0
4.679051986E0	3.391077280E0	2.791461647E-1	1.186694145E0	3.603549735E0
4.684077663E0	3.624483109E0	1.662493348E-1	1.090046883E0	3.788498232E0
4.689103340E0	3.873415709E0	1.916598976E-1	1.103900909E0	4.032205350E0
4.694129017E0	3.903259516E0	2.977822125E-1	9.867076874E-1	4.037041138E0
4.699154694E0	3.875727415E0	5.661153793E-1	8.697948456E-1	4.012267774E0
4.704180371E0	3.886242151E0	1.083106756E0	7.698898315E-1	4.107155787E0
4.709206048E0	3.682639122E0	1.571395874E0	6.613817215E-1	4.058145103E0
4.714231725E0	3.519929647E0	1.748486280E0	5.664434433E-1	3.970889972E0
4.719257402E0	3.772875309E0	1.361175537E0	5.314311981E-1	4.045961698E0
4.724283079E0	5.019288063E0	8.032311201E-1	1.592922211E-1	5.085647147E0
4.729308757E0	6.967760086E0	6.180897951E-1	-9.311046600E-1	7.056817378E0
4.734334434E0	4.885102749E0	3.717575371E-1	-1.742751598E0	5.199963045E0
4.739360111E0	2.161571980E0	5.643430948E-1	-2.340991020E0	3.235910306E0
4.744385788E0	2.483669281E0	1.357013106E0	-2.657588959E0	3.882380293E0
4.749411465E0	2.412275314E0	1.429044127E0	-2.404440880E0	3.693585691E0
4.754437142E0	2.080252647E0	8.423778415E-1	-2.240876675E0	3.171526411E0
4.759462819E0	2.269778967E0	3.340106308E-1	-2.610656738E0	3.475483889E0
4.764488496E0	2.340138435E0	2.004242241E-1	-3.005954266E0	3.814731814E0
4.769514173E0	1.550276518E0	1.208846271E-1	-3.283337116E0	3.632942746E0
4.774539850E0	1.045018911E0	8.212673664E-2	-3.633988380E0	3.782152942E0
4.779565527E0	2.413868904E-1	-1.095491648E-2	-3.904503345E0	3.911973161E0
4.784591204E0	-6.767110825E-1	-2.157126069E-1	-4.237818241E0	4.296926025E0
4.789616882E0	-6.608362198E-1	8.458933234E-2	-4.585737228E0	4.633880209E0
4.794642559E0	-3.258783817E-1	9.415956736E-1	-4.652392387E0	4.757893868E0
4.799668236E0	-3.678796291E-1	1.383024573E0	-4.376869202E0	4.604897002E0
4.804693913E0	-4.463074207E-1	1.370726109E0	-4.055911541E0	4.304474278E0
4.809719590E0	-3.641877174E-1	1.048856974E0	-3.770500183E0	3.930573148E0
4.814745267E0	-1.259288788E-1	9.110134840E-1	-3.429389000E0	3.550565105E0
4.819770944E0	-6.687355042E-2	1.162693739E0	-2.984874249E0	3.204029195E0
4.824796621E0	-1.840353012E-3	1.367470264E0	-2.633746147E0	2.967591124E0
4.829822298E0	5.818319321E-2	1.381705284E0	-2.625077248E0	2.967073530E0
4.834847975E0	-1.701002121E-1	1.335050464E0	-2.944454670E0	3.237453803E0
4.839873652E0	-2.282361984E-1	1.136641026E0	-3.185317993E0	3.389733810E0
4.844899329E0	-1.984078884E-1	8.534770012E-1	-3.386260033E0	3.497791545E0
4.849925007E0	-1.072049141E-2	5.806531906E-1	-3.318547249E0	3.368980395E0
4.854950684E0	6.338970661E-1	9.678184986E-1	-3.165220261E0	3.370032260E0
4.859976361E0	1.969337940E0	1.664746404E0	-2.821194172E0	3.822147180E0
4.865002038E0	2.953280926E0	1.834210157E0	-2.707090855E0	4.406192917E0
4.870027715E0	3.481311798E0	1.826344728E0	-2.937214375E0	4.907371515E0
4.875053392E0	3.562254906E0	1.788673520E0	-3.464055061E0	5.280974384E0
4.880079069E0	3.414696455E0	1.602419496E0	-4.732889175E0	6.052118643E0
4.885104746E0	2.662507534E0	1.376137733E0	-6.452331543E0	7.114441916E0
4.890130423E0	1.731370926E0	1.112942457E0	-8.055004120E0	8.313806443E0
4.895156100E0	1.056512117E0	8.540101051E-1	-9.117443085E0	9.218097391E0
4.900181777E0	4.389927387E-1	7.207251787E-1	-9.445075989E0	9.482701084E0
4.905207454E0	2.742357254E-1	3.213845491E-1	-9.187332153E0	9.197041120E0
4.910233132E0	2.421653271E-1	-2.775591612E-1	-7.956685066E0	7.965206863E0
4.915258809E0	-5.492091179E-1	-1.246510148E0	-5.313041687E0	5.484872849E0
4.920284486E0	-2.245668173E0	-2.794508934E0	1.559257507E-3	3.585011598E0
4.925310163E0	-3.123204708E0	-4.101693153E0	6.443661690E0	8.252216087E0
4.930335840E0	-2.156451702E0	-4.374840736E0	1.032683182E1	1.142072549E1
4.935361517E0	-3.072862625E-1	-3.387569427E0	1.051675129E1	1.105314929E1
4.940387194E0	1.066818237E0	-1.228853822E0	9.211417198E0	9.354057391E0
4.945412871E0	1.848113537E0	5.609890223E-1	6.054140091E0	6.354749764E0
4.950438548E0	1.117285252E0	1.877561569E0	3.046086311E0	3.748627161E0
4.955464225E0	7.009820938E-1	1.120939016E0	-6.525421143E-2	1.323683605E0
4.960489902E0	3.700473309E-1	-1.448671103E0	-4.076465607E0	4.342021975E0
4.965515579E0	-1.403208256E0	-3.827209949E0	-7.680670261E0	8.695356523E0
4.970541257E0	-3.332459450E0	-5.339306831E0	-9.755060196E0	1.160924988E1
4.975566934E0	-4.170769215E0	-6.653852463E0	-1.100562000E1	1.352008654E1
4.980592611E0	-4.618395805E0	-7.810289860E0	-1.060461807E1	1.395665189E1
4.985618288E0	-5.090108871E0	-7.985503197E0	-6.674544811E0	1.158563844E1
4.990643965E0	-5.740909100E0	-6.478761673E0	-1.679705143E0	8.817811490E0
4.995669642E0	-5.994431973E0	-3.836049318E0	2.830791473E-1	7.122402885E0
5.000695319E0	-5.809078693E0	-1.216072440E0	-5.270586014E-1	5.958357006E0
5.005720996E0	-5.651147366E0	6.642303467E-1	-1.273911476E0	5.830910645E0
5.010746673E0	-4.650478363E0	1.595191002E0	-1.450590611E0	5.125992241E0
5.015772350E0	-3.068904877E0	2.039150000E0	-1.240190506E0	3.887722001E0
5.020798027E0	-1.871585846E0	1.950410843E0	-3.693075180E-1	2.728245604E0
5.025823704E0	-1.480297089E0	1.539766788E0	1.292120934E0	2.496344876E0
5.030849382E0	-7.877087593E-1	1.784293771E0	2.526806831E0	3.192012236E0
5.035875059E0	-1.522709131E0	1.961716294E0	4.228936195E0	4.904169171E0
5.040900736E0	-2.895973444E0	2.504234791E0	5.329365730E0	6.562011366E0
5.045926413E0	-1.408291817E0	2.015035391E0	4.490768433E0	5.119634224E0
5.050952090E0	-1.135624886E0	2.648506403E0	2.303015709E0	3.688917375E0
5.055977767E0	-1.062408209E0	2.320383549E0	1.789705276E0	3.117039620E0
5.061003444E0	-1.946415663E0	2.095657825E0	1.253736496E0	3.122846595E0
5.066029121E0	-1.536195755E0	2.114818096E0	1.075059891E0	2.826323893E0
5.071054798E0	-1.687854290E0	2.181719780E0	1.906788826E0	3.353296427E0
5.076080475E0	-2.564412832E0	2.080632210E0	2.364427567E0	4.061497419E0
5.081106152E0	-3.586554527E0	2.057274818E0	1.471606255E0	4.388778648E0
5.086131829E0	-4.515404701E0	2.138393879E0	5.879020691E-2	4.996505207E0
5.091157507E0	-5.200391769E0	2.269520044E0	-1.255913734E0	5.811378072E0
5.096183184E0	-5.643546104E0	2.529230356E0	-1.960421562E0	6.487670732E0
5.101208861E0	-5.878623962E0	2.798864603E0	-1.791666031E0	6.752920103E0
5.106234538E0	-5.597924232E0	2.959035635E0	-1.213479042E0	6.447106249E0
5.111260215E0	-4.716512680E0	2.942890167E0	-5.510873795E-1	5.586572446E0
5.116285892E0	-3.446471691E0	2.845571518E0	1.229419708E-1	4.471080307E0
5.121311569E0	-1.878330231E0	3.369516611E0	2.477989197E-1	3.865639786E0
5.126337246E0	-4.747414589E-1	4.285344124E0	-1.300144196E-1	4.313520310E0
5.131362923E0	1.853723526E-1	3.718129396E0	1.796960831E-1	3.727081942E0
5.136388600E0	-9.814405441E-2	2.792314291E0	8.604507446E-1	2.923529859E0
5.141414277E0	-8.297317028E-1	2.070380211E0	1.462775230E0	2.667328306E0
5.146439954E0	-1.473581314E0	1.803052902E0	1.843258858E0	2.969856036E0
5.151465632E0	-1.581824303E0	1.748204708E0	2.145257950E0	3.187556979E0
5.156491309E0	-2.008048296E0	1.669362307E0	2.291916847E0	3.474465614E0
5.161516986E0	-1.950258970E0	1.598438263E0	2.215939522E0	3.356918661E0
5.166542663E0	-1.343483210E0	1.644397020E0	1.988920212E0	2.909431612E0
5.171568340E0	-7.676124573E-1	1.643970966E0	1.768707275E0	2.533810342E0
5.176594017E0	-3.911020756E-1	1.625483751E0	1.593181610E0	2.309412458E0
5.181619694E0	-3.860783577E-1	1.550373077E0	1.385684013E0	2.114907412E0
5.186645371E0	-5.460948944E-1	1.466109991E0	1.103307724E0	1.914415335E0
5.191671048E0	-7.663357258E-1	1.315185785E0	7.124710083E-1	1.680654346E0
5.196696725E0	-8.673312664E-1	1.083460450E0	3.798503876E-1	1.438901105E0
5.201722402E0	-7.566165924E-1	8.381406069E-1	3.241434097E-1	1.174741374E0
5.206748079E0	-5.807821751E-1	7.222876549E-1	5.245275497E-1	1.064958469E0
5.211773757E0	-3.268208504E-1	7.210474014E-1	9.225044250E-1	1.215621503E0
5.216799434E0	5.865097046E-3	8.292194009E-1	1.316988945E0	1.556309447E0
5.221825111E0	4.752979279E-1	9.460613132E-1	1.502437592E0	1.838004038E0
5.226850788E0	1.052279711E0	1.095408082E0	1.502726555E0	2.136679329E0
5.231876465E0	1.645472288E0	1.286577463E0	1.422999382E0	2.527407340E0
5.236902142E0	2.025664806E0	1.533610582E0	1.382948875E0	2.892719640E0
5.241927819E0	2.410003185E0	1.769351721E0	1.263644218E0	3.245846203E0
5.246953496E0	2.963981152E0	1.975221753E0	1.076119423E0	3.720849131E0
5.251979173E0	3.461741447E0	2.123633385E0	6.167678833E-1	4.107782276E0
5.257004850E0	3.701348066E0	2.034580708E0	-3.273382187E-1	4.236348247E0
5.262030527E0	3.464667320E0	2.006605625E0	-1.190245628E0	4.176969048E0
5.267056204E0	3.340537786E0	2.016561985E0	-2.024427891E0	4.395909829E0
5.272081882E0	3.262465477E0	2.098524570E0	-2.705070972E0	4.729153764E0
5.277107559E0	3.120909214E0	2.157196999E0	-3.246229172E0	4.993153017E0
5.282133236E0	3.025365591E0	2.149970531E0	-3.590713024E0	5.164148552E0
5.287158913E0	2.916454315E0	1.947982311E0	-3.505163670E0	4.958478921E0
5.292184590E0	3.083936214E0	1.594234943E0	-2.976644516E0	4.573036213E0
5.297210267E0	3.660242081E0	1.298340082E0	-2.044520378E0	4.388977402E0
5.302235944E0	4.132928371E0	1.039556384E0	-9.963712692E-1	4.376588866E0
5.307261621E0	4.392182827E0	9.166268706E-1	-1.192550659E-1	4.488395769E0
5.312287298E0	4.366127014E0	8.417828083E-1	4.864301682E-1	4.473061335E0
5.317312975E0	4.197670460E0	8.664026260E-1	9.162359238E-1	4.382987459E0
5.322338652E0	4.010604858E0	9.752507210E-1	1.150946617E0	4.284943805E0
5.327364329E0	3.737545967E0	1.124636054E0	1.114162445E0	4.058991755E0
5.332390007E0	3.612224102E0	1.228439808E0	9.207448959E-1	3.924920189E0
5.337415684E0	3.662225246E0	1.267985225E0	6.757001877E-1	3.933986659E0
5.342441361E0	3.714729786E0	1.315619349E0	4.650573730E-1	3.968167085E0
5.347467038E0	3.769972324E0	1.381343246E0	2.938566208E-1	4.025810751E0
5.352492715E0	3.880765915E0	1.408406854E0	7.626724243E-2	4.129136792E0
5.357518392E0	3.994387150E0	1.326111794E0	-1.636362076E-1	4.211944681E0
5.362544069E0	4.072005749E0	1.145108581E0	-2.826657295E-1	4.239387266E0
5.367569746E0	4.203561306E0	9.043797255E-1	-2.051324844E-1	4.304638159E0
5.372595423E0	4.378695011E0	6.236425042E-1	8.248806000E-2	4.423652818E0
5.377621100E0	4.558385372E0	3.940388560E-1	4.167218208E-1	4.594322681E0
5.382646777E0	4.598378658E0	3.014700413E-1	7.824826241E-1	4.674211113E0
5.387672454E0	4.512496948E0	2.641472816E-1	1.203025341E0	4.677571214E0
5.392698132E0	4.390636921E0	2.958365083E-1	1.576910496E0	4.674597151E0
5.397723809E0	4.073982716E0	3.722208738E-1	1.783739567E0	4.462915010E0
5.402749486E0	3.495304823E0	3.829275370E-1	1.799366474E0	3.949874556E0
5.407775163E0	2.893897295E0	3.328456879E-1	1.700395584E0	3.372947220E0
5.412800840E0	2.566442490E0	2.697999477E-1	1.558862686E0	3.014875112E0
5.417826517E0	2.575481415E0	2.752355337E-1	1.418512821E0	2.953140319E0
5.422852194E0	2.935890913E0	3.690209389E-1	1.280076027E0	3.224007838E0
5.427877871E0	3.270460606E0	5.904970169E-1	1.134684563E0	3.511710175E0
5.432903548E0	3.312968493E0	7.926616669E-1	9.451122284E-1	3.535153444E0
5.437929225E0	3.194542408E0	6.947374344E-1	7.937293053E-1	3.364188982E0
5.442954902E0	3.074689865E0	3.603363037E-1	7.244024277E-1	3.179358252E0
5.447980579E0	2.973747730E0	-8.820056915E-3	7.425251007E-1	3.065060665E0
5.453006257E0	2.897692442E0	-2.114472389E-1	9.300413132E-1	3.050624242E0
5.458031934E0	2.837792158E0	-2.905471325E-1	1.248956203E0	3.114060624E0
5.463057611E0	2.751758814E0	-3.419518471E-1	1.599181175E0	3.201013600E0
5.468083288E0	2.554148674E0	-3.465616703E-1	1.804090977E0	3.146192094E0
5.473108965E0	2.154558182E0	-2.951345444E-1	1.907161236E0	2.892488433E0
5.478134642E0	1.620327950E0	-2.265393734E-1	1.942244530E0	2.539507150E0
5.483160319E0	1.171812534E0	-1.221513748E-1	2.029322624E0	2.346532737E0
5.488185996E0	8.760027885E-1	8.012533188E-3	2.044295788E0	2.224093153E0
5.493211673E0	7.087068558E-1	1.496596336E-1	1.920208454E0	2.052282612E0
5.498237350E0	6.220231056E-1	3.271284103E-1	1.700162411E0	1.839695074E0
5.503263027E0	4.289884567E-1	4.310801029E-1	1.503175259E0	1.621541553E0
5.508288704E0	4.278278351E-2	4.237062931E-1	1.462114334E0	1.522870879E0
5.513314382E0	-3.031682968E-1	3.146243095E-1	1.618741035E0	1.676669917E0
5.518340059E0	-5.477342606E-1	1.468083858E-1	1.952763081E0	2.033432854E0
5.523365736E0	-7.442030907E-1	-2.718544006E-2	2.410772324E0	2.523172702E0
5.528391413E0	-8.885855675E-1	-1.502223015E-1	2.867580414E0	3.005855699E0
5.533417090E0	-1.072816849E0	-1.652669907E-1	3.264832497E0	3.440549433E0
5.538442767E0	-1.359815598E0	-1.730465889E-1	3.625635624E0	3.876116260E0
5.543468444E0	-1.764459133E0	-2.694001198E-1	3.882332325E0	4.272984524E0
5.548494121E0	-2.148249149E0	-3.683156967E-1	4.015485764E0	4.568890103E0
5.553519798E0	-2.320082188E0	-3.454074860E-1	3.972232342E0	4.613102802E0
5.558545475E0	-2.304268360E0	-2.005691528E-1	3.757037163E0	4.411939359E0
5.563571152E0	-2.210741997E0	-9.921073914E-3	3.479796886E0	4.122676919E0
5.568596829E0	-2.168435097E0	1.406536102E-1	3.207446098E0	3.874223107E0
5.573622507E0	-2.143015862E0	2.657346725E-1	2.950058460E0	3.655950877E0
5.578648184E0	-2.052197456E0	4.131755829E-1	2.703711510E0	3.419398250E0
5.583673861E0	-1.904257774E0	6.355886459E-1	2.445801258E0	3.164192534E0
5.588699538E0	-1.831581116E0	8.135447502E-1	2.120393753E0	2.917638448E0
5.593725215E0	-1.760855675E0	9.138140678E-1	1.757638931E0	2.650464765E0
5.598750892E0	-1.695628166E0	9.175634384E-1	1.392178059E0	2.378074282E0
5.603776569E0	-1.587585449E0	8.587665558E-1	1.086350918E0	2.106671752E0
5.608802246E0	-1.407993793E0	8.000121117E-1	9.785461426E-1	1.892093670E0
5.613827923E0	-1.291089058E0	7.031517029E-1	1.034649849E0	1.797730120E0
5.618853600E0	-1.328396320E0	6.157288551E-1	1.234774113E0	1.915313530E0
5.623879277E0	-1.510838985E0	5.704841614E-1	1.516438961E0	2.215327005E0
5.628904954E0	-1.753089905E0	5.567364693E-1	1.812482834E0	2.582319448E0
5.633930632E0	-1.864964485E0	5.827960968E-1	2.012629986E0	2.805070994E0
5.638956309E0	-1.756692410E0	7.387137413E-1	2.092692852E0	2.830376227E0
5.643981986E0	-1.658915997E0	9.425663948E-1	2.076173306E0	2.819739223E0
5.649007663E0	-1.667562962E0	1.160763741E0	1.991548061E0	2.845066321E0
5.654033340E0	-1.811502457E0	1.330840588E0	1.881788731E0	2.931519512E0
5.659059017E0	-2.071768761E0	1.452444077E0	1.708611965E0	3.053059849E0
5.664084694E0	-2.314786911E0	1.553893566E0	1.491006851E0	3.161633294E0
5.669110371E0	-2.426325798E0	1.616146564E0	1.204342842E0	3.154271434E0
5.674136048E0	-2.345294952E0	1.586822987E0	9.190282822E-1	2.977083907E0
5.679161725E0	-2.187355995E0	1.447279453E0	6.529059410E-1	2.702855940E0
5.684187402E0	-2.019823551E0	1.231424332E0	4.482712746E-1	2.407704342E0
5.689213079E0	-1.837655544E0	9.682812691E-1	3.529195786E-1	2.106916881E0
5.694238757E0	-1.510313034E0	6.966857910E-1	3.536610603E-1	1.700438972E0
5.699264434E0	-1.074129581E0	4.172801971E-1	3.568048477E-1	1.206311245E0
5.704290163E0	-6.035351753E-1	1.501731873E-1	2.685823441E-1	6.774534446E-1
5.709315892E0	-2.068543434E-1	-7.505273819E-2	8.082246780E-2	2.344224908E-1
5.714341621E0	1.221451759E-1	-2.576408386E-1	-9.064626694E-2	2.991905604E-1
5.719367350E0	3.801136017E-1	-3.921060562E-1	-1.874604225E-1	5.773862828E-1
5.724393079E0	4.339914322E-1	-4.542555809E-1	-1.755342484E-1	6.523104846E-1
5.729418809E0	3.272900581E-1	-4.732446671E-1	-6.396770477E-3	5.754304612E-1
5.734444538E0	1.364707947E-1	-4.593315125E-1	2.580757141E-1	5.442543434E-1
5.739470267E0	-9.936809540E-3	-4.518775940E-1	6.133575439E-1	7.619052283E-1
5.744495996E0	-1.656355858E-1	-3.609695435E-1	9.922008514E-1	1.068736024E0
5.749521725E0	-3.034310341E-1	-2.453298569E-1	1.370090485E0	1.424571889E0
5.754547454E0	-4.155488014E-1	-2.209320068E-1	1.808125973E0	1.868371294E0
5.759573184E0	-5.277142525E-1	-3.462700844E-1	2.195086002E0	2.284028866E0
5.764598913E0	-6.985917091E-1	-5.072283745E-1	2.534891129E0	2.677869309E0
5.769624642E0	-9.529552460E-1	-5.466485023E-1	2.831713200E0	3.037358710E0
5.774650371E0	-1.171826363E0	-5.321598053E-1	3.022884846E0	3.285453374E0
5.779676100E0	-1.288884163E0	-4.448995590E-1	3.102970600E0	3.389333939E0
5.784701829E0	-1.290181637E0	-2.847223282E-1	3.095222950E0	3.365418335E0
5.789727559E0	-1.161007404E0	-1.850728989E-1	3.105014801E0	3.320136606E0
5.794753288E0	-1.029560566E0	-1.881537437E-1	3.142644405E0	3.312342170E0
5.799779017E0	-9.568881989E-1	-2.359070778E-1	3.170935631E0	3.320560186E0
5.804804746E0	-6.596693993E-1	-1.792526245E-1	3.214675426E0	3.286553410E0
5.809830475E0	-3.189406395E-1	-1.267671585E-2	3.226656437E0	3.242405834E0
5.814856204E0	-9.647417068E-2	1.736803055E-1	3.135710716E0	3.141998378E0
5.819881934E0	3.331661224E-3	3.561916351E-1	3.004269123E0	3.025312636E0
5.824907663E0	4.673004150E-3	5.448107719E-1	2.822707653E0	2.874807665E0
5.829933392E0	-1.306538582E-1	6.443490982E-1	2.561862946E0	2.644881461E0
5.834959069E0	-3.359303474E-1	6.602468491E-1	2.211048603E0	2.331847127E0
5.839984746E0	-5.210528374E-1	6.552901268E-1	1.830538750E0	2.012901717E0
5.845010423E0	-6.869349480E-1	6.919207573E-1	1.514155388E0	1.800916571E0
5.850036100E0	-8.294720650E-1	7.366461754E-1	1.341824532E0	1.741024000E0
5.855061777E0	-9.539804459E-1	7.605400085E-1	1.298259735E0	1.781566203E0
5.860087454E0	-1.089385986E0	7.009010315E-1	1.354764938E0	1.874409806E0
5.865113132E0	-1.125537872E0	5.955443382E-1	1.416388035E0	1.904642650E0
5.870138809E0	-9.427089691E-1	3.865280151E-1	1.446069241E0	1.768960247E0
5.875164486E0	-6.456499100E-1	1.644663811E-1	1.397826195E0	1.548493160E0
5.880190163E0	-3.960056305E-1	1.031255722E-2	1.226470232E0	1.288858424E0
5.885215840E0	-2.452688217E-1	-1.003265381E-1	1.011230230E0	1.045374951E0
5.890241517E0	-1.018137932E-1	-1.776762009E-1	7.399041653E-1	7.677193853E-1
5.895267194E0	9.204626083E-2	-2.319188118E-1	3.948912621E-1	4.671166431E-1
5.900292871E0	2.117810249E-1	-3.068609238E-1	9.676051140E-2	3.851979045E-1
5.905318548E0	2.716436386E-1	-4.126000404E-1	-7.259726524E-2	4.992989312E-1
5.910344225E0	2.284193039E-1	-5.301885605E-1	-1.227180958E-1	5.901991351E-1
5.915369902E0	1.535487175E-1	-6.738147736E-1	-8.780765533E-2	6.966446311E-1
5.920395579E0	8.434104919E-2	-8.287789822E-1	7.301187515E-2	8.362528014E-1
5.925421257E0	7.221794128E-2	-9.565274715E-1	3.043556213E-1	1.006375963E0
5.930446934E0	1.398854256E-1	-1.114373684E0	3.931221962E-1	1.189933486E0
5.935472611E0	1.524825096E-1	-1.259063482E0	3.945722580E-1	1.328224015E0
5.940498288E0	1.286864281E-1	-1.414673328E0	3.792686462E-1	1.470273964E0
5.945523965E0	5.879974365E-2	-1.561992168E0	3.176784515E-1	1.595053774E0
5.950549642E0	6.249237061E-2	-1.643637896E0	2.383222580E-1	1.662001302E0
5.955575319E0	2.118020058E-1	-1.688185453E0	-1.140952110E-2	1.701458313E0
5.960600996E0	4.687724113E-1	-1.661750555E0	-3.496491909E-1	1.761651792E0
5.965626673E0	7.766437531E-1	-1.601891041E0	-6.990635395E-1	1.912569020E0
5.970652350E0	1.035638809E0	-1.560765266E0	-1.082396507E0	2.163358075E0
5.975678027E0	1.164919376E0	-1.533423901E0	-1.417393923E0	2.391115126E0
5.980703704E0	1.164713860E0	-1.491462231E0	-1.646009445E0	2.508060018E0
5.985729382E0	1.130741119E0	-1.425698757E0	-1.844509125E0	2.591024187E0
5.990755059E0	1.101269722E0	-1.384230614E0	-2.055557966E0	2.711864293E0
5.995780736E0	1.104971886E0	-1.386011124E0	-2.288896561E0	2.895002102E0
6.000806413E0	1.146490097E0	-1.430705070E0	-2.521332502E0	3.117446732E0
6.005832090E0	1.259183884E0	-1.469920158E0	-2.639261246E0	3.272905322E0
6.010857767E0	1.414233685E0	-1.541316271E0	-2.648985624E0	3.375327777E0
6.015883444E0	1.583002567E0	-1.644388437E0	-2.551340342E0	3.423338721E0
6.020909121E0	1.713066578E0	-1.774028778E0	-2.494740725E0	3.507920536E0
6.025934798E0	1.766384602E0	-1.891848564E0	-2.502778292E0	3.600431186E0
6.030960475E0	1.695089817E0	-1.916707993E0	-2.542337179E0	3.607017792E0
6.035986152E0	1.623766422E0	-1.830076694E0	-2.497371912E0	3.496092757E0
6.041011829E0	1.633912563E0	-1.723505020E0	-2.408993959E0	3.382808259E0
6.046037507E0	1.711197376E0	-1.549854994E0	-2.279836893E0	3.244673053E0
6.051063184E0	1.841134548E0	-1.410114050E0	-2.233144999E0	3.219492917E0
6.056088861E0	1.865509510E0	-1.300112247E0	-2.263640404E0	3.208502059E0
6.061114538E0	1.774723530E0	-1.234685421E0	-2.370227337E0	3.208125516E0
6.066140215E0	1.879765987E0	-1.213868618E0	-2.594980717E0	3.426502898E0
6.071165892E0	1.984514713E0	-1.193762779E0	-2.794422150E0	3.629347513E0
6.076191569E0	1.926512241E0	-1.168715000E0	-2.830541372E0	3.617914956E0
6.081217246E0	1.658066273E0	-1.085639954E0	-2.699716568E0	3.349069635E0
6.086242923E0	1.269946098E0	-9.446823597E-1	-2.503972530E0	2.962273837E0
6.091268600E0	1.024929523E0	-7.844426632E-1	-2.287958384E0	2.626896341E0
6.096294277E0	8.317418098E-1	-6.239695549E-1	-2.082609177E0	2.327744279E0
6.101319954E0	5.992450714E-1	-5.206885338E-1	-1.899831414E0	2.059021760E0
6.106345632E0	4.852886200E-1	-4.888634682E-1	-1.789011002E0	1.917042748E0
6.111371309E0	5.616884232E-1	-4.277107716E-1	-1.784125090E0	1.918732062E0
6.116396986E0	6.897153854E-1	-2.607147694E-1	-1.827267766E0	1.970428124E0
6.121422663E0	6.876077652E-1	-6.964778900E-2	-1.941373587E0	2.060724789E0
6.126448340E0	6.651630402E-1	9.648561478E-2	-2.110929728E0	2.215350008E0
6.131474017E0	7.991704941E-1	1.844191551E-1	-2.215266228E0	2.362221066E0
6.136499694E0	1.017496586E0	2.557108402E-1	-2.243207216E0	2.476422006E0
6.141525371E0	1.233713627E0	3.718600273E-1	-2.250174522E0	2.592993362E0
6.146551048E0	1.466654778E0	5.034372807E-1	-2.286766052E0	2.762937623E0
6.151576725E0	1.653732300E0	6.544899940E-1	-2.384756565E0	2.974937234E0
6.156602402E0	1.708518028E0	8.292219639E-1	-2.399567366E0	3.060157914E0
6.161628079E0	1.669135094E0	9.700112343E-1	-2.335528135E0	3.030119705E0
6.166653757E0	1.607284546E0	1.048404932E0	-2.322017670E0	3.012354988E0
6.171679434E0	1.513393402E0	1.084028006E0	-2.298051596E0	2.957451173E0
6.176705111E0	1.282412529E0	1.144474983E0	-2.208292246E0	2.798385164E0
6.181730788E0	8.907380104E-1	1.225319386E0	-2.059784889E0	2.556860495E0
6.186756465E0	4.821605682E-1	1.312306404E0	-1.759039283E0	2.246963754E0
6.191782142E0	2.291831970E-1	1.597290039E0	-9.101404548E-1	1.852624100E0
6.196807819E0	1.031970978E-1	1.477846146E0	-4.135026336E-1	1.538071292E0
6.201833496E0	-5.611419678E-3	1.150719643E0	-5.097603798E-1	1.258587633E0
6.206859173E0	-1.207704544E-1	9.223814011E-1	-7.218044996E-1	1.177444133E0
6.211884850E0	-1.938076019E-1	8.889098167E-1	-8.597187996E-1	1.251734182E0
6.216910527E0	-1.810588837E-1	8.689503670E-1	-9.342521429E-1	1.288675338E0
6.221936204E0	-1.156558990E-1	8.151216507E-1	-9.263095856E-1	1.239293767E0
6.226961882E0	-1.157283783E-2	7.281603813E-1	-9.308739901E-1	1.181895874E0
6.231987559E0	4.067420959E-2	6.709561348E-1	-8.179866076E-1	1.058743886E0
6.237013236E0	7.040691376E-2	6.587028503E-1	-5.778858662E-1	8.790896728E-1
6.242038913E0	-6.041049957E-2	7.399582863E-1	-3.162068129E-1	8.069538044E-1
6.247064590E0	-3.415098190E-1	8.911395073E-1	-1.004583836E-1	9.596095377E-1
6.252090267E0	-6.336164474E-1	9.976205826E-1	4.971230030E-2	1.182872750E0
6.257115944E0	-8.503332138E-1	1.016412258E0	9.052813053E-2	1.328290554E0
6.262141621E0	-9.770774841E-1	9.573378563E-1	1.027600765E-1	1.371763760E0
6.267167298E0	-1.056748390E0	9.211068153E-1	1.625956297E-1	1.411237848E0
6.272192975E0	-1.132302284E0	8.792815208E-1	2.798116207E-1	1.460663890E0
6.277218652E0	-1.199140549E0	8.032193184E-1	3.692677021E-1	1.489784536E0
6.282244329E0	-1.291213036E0	7.357816696E-1	4.038640261E-1	1.540036337E0
6.287270007E0	-1.361275673E0	7.051763535E-1	3.517305851E-1	1.572914350E0
6.292295684E0	-1.429165840E0	7.010855675E-1	2.907634974E-1	1.618202516E0
6.297321361E0	-1.466915131E0	7.371287346E-1	2.560256720E-1	1.661549854E0
6.302347038E0	-1.518301964E0	7.743167877E-1	2.395373583E-1	1.721100080E0
6.307372715E0	-1.540843964E0	7.977724075E-1	1.710895300E-1	1.743534503E0
6.312398392E0	-1.606872559E0	8.643865585E-1	5.243432522E-2	1.825363772E0
6.317424069E0	-1.774345398E0	9.255948067E-1	-1.146985292E-1	2.004540618E0
6.322449746E0	-1.756629944E0	1.052630424E0	-3.242142200E-1	2.073377542E0
6.327475423E0	-1.730961800E0	1.192752838E0	-4.703747034E-1	2.154098523E0
6.332501100E0	-1.840786934E0	1.369783878E0	-5.630556345E-1	2.362590963E0
6.337526777E0	-2.018891335E0	1.554875374E0	-5.696160793E-1	2.611134261E0
6.342552454E0	-2.217233658E0	1.700128555E0	-4.863505363E-1	2.836035797E0
6.347578132E0	-2.344768524E0	1.753141403E0	-4.668273926E-1	2.964687509E0
6.352603809E0	-2.425306320E0	1.685719490E0	-5.730352402E-1	3.008675844E0
6.357629486E0	-2.473025322E0	1.613046169E0	-7.384430170E-1	3.043529247E0
6.362655163E0	-2.525880814E0	1.559363842E0	-8.062678576E-1	3.075996966E0
6.367680840E0	-2.597959518E0	1.467309952E0	-7.110943794E-1	3.067254044E0
6.372706517E0	-2.617212296E0	1.284437656E0	-4.688522816E-1	2.952863484E0
6.377732194E0	-2.578812599E0	1.049101353E0	-1.187084913E-1	2.786571330E0
6.382757871E0	-2.391816139E0	7.855124474E-1	2.817020416E-1	2.533213431E0
6.387783548E0	-2.171002388E0	5.753364563E-1	6.892597079E-1	2.349328064E0
6.392809225E0	-1.944863319E0	3.950753212E-1	9.892946482E-1	2.217494474E0
6.397834902E0	-1.718126297E0	2.209029198E-1	1.162852764E0	2.086380268E0
6.402860579E0	-1.519428253E0	6.727647781E-2	1.248366833E0	1.967640234E0
6.407886257E0	-1.277025223E0	-6.577539444E-2	1.284534216E0	1.812497717E0
6.412911934E0	-9.813356400E-1	-1.637053490E-1	1.314747095E0	1.648750740E0
6.417937611E0	-6.657981873E-1	-2.548918724E-1	1.396949053E0	1.568350646E0
6.422963288E0	-4.213409424E-1	-2.579021454E-1	1.498247623E0	1.577589188E0
6.427988965E0	-3.341236115E-1	-2.303547859E-1	1.547477007E0	1.599808427E0
6.433014642E0	-3.947572708E-1	-2.111454010E-1	1.511515379E0	1.576418226E0
6.438040319E0	-4.982805252E-1	-1.771130562E-1	1.476699114E0	1.568532049E0
6.443065996E0	-4.297809601E-1	-7.631540298E-2	1.510009289E0	1.571834523E0
6.448091673E0	-2.661943436E-1	9.090757370E-2	1.616571903E0	1.640862070E0
6.453117350E0	-8.901119232E-2	2.287926674E-1	1.677096844E0	1.694969882E0
6.458143027E0	-2.274799347E-2	3.419823647E-1	1.682510018E0	1.717064172E0
6.463168704E0	1.867580414E-2	4.541611671E-1	1.642482877E0	1.704218634E0
6.468194382E0	3.270339966E-1	4.458484650E-1	1.518984795E0	1.616492157E0
6.473220059E0	5.866670609E-1	5.713253021E-1	1.546662092E0	1.750072704E0
6.478245736E0	6.590323448E-1	7.972035408E-1	1.696893096E0	1.987285409E0
6.483271413E0	4.914999008E-1	9.555602074E-1	1.701884031E0	2.012728675E0
6.488297090E0	2.370777130E-1	9.882798195E-1	1.647180080E0	1.935485743E0
6.493322767E0	1.526546478E-2	8.805098534E-1	1.699065685E0	1.913727995E0
6.498348444E0	-1.404075623E-1	7.611989975E-1	1.874827266E0	2.028328246E0
6.503374121E0	-2.058076859E-1	7.595067024E-1	2.268237114E0	2.400855439E0
6.508399798E0	-3.481960297E-1	7.320442200E-1	2.840148926E0	2.953569897E0
6.513425475E0	-5.196123123E-1	5.833315849E-1	3.193659306E0	3.287815757E0
6.518451152E0	-2.988586426E-1	8.639011383E-1	3.577212095E0	3.692165765E0
6.523476829E0	-2.499895096E-1	6.512732506E-1	3.989669800E0	4.050199589E0
6.528502507E0	-5.206794739E-1	-3.505373001E-2	3.686856031E0	3.723606219E0
6.533528184E0	-8.665590286E-1	-6.165957451E-1	3.192813873E0	3.365289778E0
6.538553861E0	-1.048423767E0	-9.983630180E-1	2.764127731E0	3.120308194E0
6.543579538E0	-1.209749222E0	-1.257217646E0	2.360221863E0	2.935087159E0
6.548605215E0	-1.331288338E0	-1.321371794E0	2.108719110E0	2.822241723E0
6.553630892E0	-1.245408058E0	-1.252516270E0	1.826280713E0	2.540696653E0
6.558656569E0	-8.897390366E-1	-1.150172234E0	1.472499609E0	2.069489507E0
6.563682246E0	-5.605030060E-1	-1.012644529E0	1.217326164E0	1.679730798E0
6.568707923E0	-3.674831390E-1	-8.431584835E-1	1.346263409E0	1.630455535E0
6.573733600E0	-3.971948624E-1	-6.216959953E-1	1.725425601E0	1.876529556E0
6.578759277E0	-5.166225433E-1	-4.531626701E-1	2.155860901E0	2.262739818E0
6.583784954E0	-6.743679047E-1	-4.043607712E-1	2.233670473E0	2.368029452E0
6.588810632E0	-1.005586624E0	-4.561128616E-1	2.005523920E0	2.289403764E0
6.593836309E0	-1.186030388E0	-6.085944176E-1	1.354622602E0	1.900541407E0
6.598861986E0	-1.317183495E0	-6.847443581E-1	2.633410692E-1	1.507712079E0
6.603887663E0	-1.462065697E0	-5.841464996E-1	-9.854488969E-1	1.857410230E0
6.608913340E0	-1.535310745E0	-3.880929947E-1	-2.128356934E0	2.652866090E0
6.613939017E0	-1.503933907E0	-1.964001656E-1	-3.092741966E0	3.444625247E0
6.618964694E0	-1.224552155E0	-2.222204208E-2	-3.814548492E0	4.006345217E0
6.623990371E0	-6.539325714E-1	4.058933258E-2	-4.167776108E0	4.218961126E0
6.629016048E0	1.179885864E-2	-6.377840042E-2	-4.013003826E0	4.013527950E0
6.634041725E0	5.858106613E-1	-2.100858688E-1	-3.297842264E0	3.356050328E0
6.639067402E0	9.959697723E-1	-3.506107330E-1	-2.065075397E0	2.319357685E0
6.644093079E0	1.045516014E0	-4.962494373E-1	-6.056528091E-1	1.306209235E0
6.649118757E0	5.850882530E-1	-6.257815361E-1	7.175550461E-1	1.117504380E0
6.654144434E0	-2.004737854E-1	-6.760420799E-1	1.550573349E0	1.703379096E0
6.659170111E0	-1.022095680E0	-7.371635437E-1	1.848987103E0	2.237597590E0
6.664195788E0	-1.763579369E0	-8.798053265E-1	1.802289009E0	2.670676932E0
6.669221465E0	-2.255922318E0	-9.541604519E-1	1.395257950E0	2.818927530E0
6.674247142E0	-2.468403816E0	-8.094015121E-1	7.569675446E-1	2.705762013E0
6.679272819E0	-2.454768181E0	-6.096189022E-1	2.246732712E-1	2.539291261E0
6.684298496E0	-2.223842621E0	-4.320418835E-1	-1.781592369E-1	2.272416534E0
6.689324173E0	-1.777804375E0	-3.150107861E-1	-5.175127983E-1	1.878201184E0
6.694349850E0	-1.533143044E0	-2.722916603E-1	-8.826465607E-1	1.789898123E0
6.699375527E0	-1.594306946E0	-3.562369347E-1	-1.353815079E0	2.121682035E0
6.704401204E0	-8.940577507E-1	-4.031217098E-1	-1.735923290E0	1.993809430E0
6.709426882E0	5.063343048E-2	-4.444572926E-1	-1.859453678E0	1.912504643E0
6.714452559E0	8.533611298E-1	-8.174715042E-1	-1.823017120E0	2.172527629E0
6.719478236E0	1.208797932E0	-1.605719924E0	-1.415494442E0	2.458282618E0
6.724503913E0	-5.486874580E-1	-5.100219727E0	1.509428024E-1	5.131869339E0
6.729529590E0	-1.280626774E0	-5.833806992E0	-4.579010010E-1	5.990240586E0
6.734555267E0	-1.154069901E0	-4.578011990E0	-1.089865208E0	4.845397536E0
6.739580944E0	-2.023496628E-1	-3.374843359E0	-1.885238647E0	3.870999592E0
6.744606621E0	9.884195328E-1	-2.508707047E0	-2.191522121E0	3.474673140E0
6.749632298E0	2.346716166E0	-1.623497009E0	-2.057341099E0	3.517878863E0
6.754657975E0	3.760507584E0	-7.321949005E-1	-1.562346935E0	4.137445420E0
6.759683652E0	4.598022461E0	-9.671330452E-2	-7.991223335E-1	4.667950355E0
6.764709329E0	4.673553944E0	1.927058697E-1	1.120080948E-1	4.678866084E0
6.769735007E0	4.040902138E0	1.217432022E-1	8.696470261E-1	4.135214317E0
6.774760684E0	2.963124514E0	-2.862482071E-1	1.282341480E0	3.241364619E0
6.779786361E0	1.731542110E0	-7.734115124E-1	1.397905827E0	2.355959284E0
6.784812038E0	8.952889442E-1	-1.115211248E0	1.292553902E0	1.927675805E0
6.789837715E0	6.012454033E-1	-1.201426983E0	1.128257275E0	1.754390865E0
6.794863392E0	4.981727600E-1	-1.165882826E0	9.707770348E-1	1.596830271E0
6.799889069E0	4.306941032E-1	-1.151942253E0	9.332542419E-1	1.543836729E0
6.804914746E0	4.354162216E-1	-1.097409725E0	1.057446957E0	1.584957241E0
6.809940423E0	3.295044899E-1	-1.079038382E0	1.342538357E0	1.753655119E0
6.814966100E0	2.126913071E-1	-1.063936472E0	1.701995850E0	2.018412317E0
6.819991777E0	2.182931900E-1	-1.062356234E0	1.925255775E0	2.209720001E0
6.825017454E0	2.972164154E-1	-1.022045851E0	1.983241558E0	2.250813719E0
6.830043132E0	2.520174980E-1	-9.337863922E-1	2.057213783E0	2.273235227E0
6.835068809E0	3.126926422E-1	-7.163932323E-1	2.276552200E0	2.407007659E0
6.840094486E0	4.950881004E-1	-4.556446075E-1	2.230689049E0	2.329956624E0
6.845120163E0	5.944800377E-1	-3.083782196E-1	1.800596714E0	1.921107016E0
6.850145840E0	5.112400055E-1	-3.452556133E-1	1.163694382E0	1.317099995E0
6.855171517E0	2.740869522E-1	-5.844326019E-1	4.966812134E-1	8.144798041E-1
6.860197194E0	1.275944710E-1	-5.037999153E-1	4.022121429E-1	6.571676435E-1
6.865222871E0	1.014394760E-1	-2.235603333E-1	6.030507088E-1	6.511062488E-1
6.870248548E0	2.636308670E-1	5.009222031E-2	9.132461548E-1	9.518555583E-1
6.875274225E0	3.190412521E-1	9.658789635E-2	1.219202042E0	1.263950221E0
6.880299902E0	2.256665230E-1	-1.175270081E-1	1.067262650E0	1.097172521E0
6.885325579E0	1.369347572E-1	-2.712390423E-1	5.631690025E-1	6.399070801E-1
6.890351257E0	5.767011642E-2	-2.540557384E-1	8.488655090E-2	2.739997940E-1
6.895376934E0	-4.582071304E-2	-5.612850189E-2	-1.193070412E-1	1.395855169E-1
6.900402611E0	7.458686829E-3	1.643033028E-1	-2.127132416E-1	2.688831167E-1
6.905428288E0	1.585288048E-1	4.932901859E-1	-4.258441925E-1	6.706786606E-1
6.910453965E0	2.584962845E-1	5.479784012E-1	-2.996497154E-1	6.759368382E-1
6.915479642E0	-6.493663788E-2	1.705620289E-1	1.278023720E-1	2.228039922E-1
6.920505319E0	-6.685185432E-1	-8.027069569E-1	1.132029057E0	1.540371801E0
6.925530996E0	-9.582839012E-1	-3.967542648E-1	2.644867897E-1	1.070362202E0
6.930556673E0	-5.078115463E-1	5.074837208E-1	-8.107204437E-1	1.082903473E0
6.935582350E0	5.643653870E-2	1.120805979E0	-1.067653656E0	1.548959475E0
6.940608027E0	3.451824188E-1	1.237078190E0	-4.984421730E-1	1.377663947E0
6.945633704E0	3.977670670E-1	8.169212341E-1	5.145211220E-1	1.044179547E0
6.950659382E0	2.120981216E-1	3.756380081E-1	1.179074287E0	1.255510136E0
6.955685059E0	1.971096992E-1	2.851643562E-1	1.143512249E0	1.194902175E0
6.960710736E0	3.916525841E-1	4.353001118E-1	6.147127151E-1	8.489697616E-1
6.965736413E0	6.473875046E-1	6.208798885E-1	1.430363655E-1	9.083291358E-1
6.970762090E0	7.976288795E-1	7.039568424E-1	-4.186868668E-2	1.064668987E0
6.975787767E0	6.192054749E-1	7.041435242E-1	-6.865501404E-2	9.401845743E-1
6.980813444E0	9.364094734E-1	7.844307423E-1	-8.018016815E-2	1.224182646E0
6.985839121E0	1.352430582E0	8.972091675E-1	-1.429052353E-1	1.629255866E0
6.990864798E0	1.490325212E0	9.902143478E-1	-6.475925446E-2	1.790471294E0
6.995890475E0	1.528649092E0	1.135554552E0	2.117681503E-2	1.904389835E0
7.000916152E0	1.473173857E0	1.285874128E0	-6.126403809E-2	1.956391262E0
7.005941829E0	1.256685257E0	1.489394426E0	-2.352399826E-1	1.962878356E0
7.010967507E0	9.974150658E-1	1.746247530E0	-3.625092506E-1	2.043435883E0
7.015993184E0	7.702665329E-1	1.984813690E0	-3.099141121E-1	2.151474535E0
7.021018861E0	5.640821457E-1	2.224293232E0	-1.882953644E-1	2.302417033E0
7.026044538E0	3.481707573E-1	2.450346470E0	-9.919309616E-2	2.476945694E0
7.031070215E0	1.772494316E-1	2.638823748E0	-2.509641647E-2	2.644889026E0
7.036095892E0	2.434635162E-2	2.731749058E0	3.675651550E-2	2.732104811E0
7.041121569E0	-1.181845665E-1	2.738101482E0	1.224508286E-1	2.743385049E0
7.046147246E0	-2.950587273E-1	2.757750988E0	2.639808655E-1	2.786025137E0
7.051172923E0	-5.350117683E-1	2.479219675E0	3.176136017E-1	2.556099800E0
7.056198600E0	-5.592517853E-1	2.418974876E0	3.801932335E-1	2.511722299E0
7.061224277E0	-3.179373741E-1	2.500122309E0	4.298415184E-1	2.556650047E0
7.066249954E0	7.560300827E-2	2.541113377E0	2.912120819E-1	2.558862537E0
7.071275632E0	4.408874512E-1	2.470774412E0	1.428680420E-1	2.513865394E0
7.076301309E0	6.787424088E-1	2.246798754E0	5.785512924E-2	2.347795373E0
7.081326986E0	9.621820450E-1	1.961135149E0	-6.357288361E-2	2.185380258E0
7.086352663E0	1.267559052E0	1.686521053E0	-1.683015823E-1	2.116455678E0
7.091378340E0	1.141150951E0	1.437716722E0	1.130475998E-1	1.839030894E0
7.096404017E0	4.746913910E-1	1.155284166E0	1.031798840E0	1.620068599E0
7.101429694E0	9.937267303E-1	8.282513618E-1	8.555917740E-1	1.550977246E0
7.106455371E0	1.546357155E0	5.808048248E-1	5.541868210E-1	1.742319640E0
7.111481048E0	1.861850739E0	3.170781136E-1	1.158714294E-4	1.888657385E0
7.116506725E0	1.946546078E0	3.260016441E-2	-8.161325455E-1	2.110965830E0
7.121532402E0	1.907414913E0	-2.102544308E-1	-1.612841845E0	2.506730419E0
7.126558079E0	1.810184479E0	-3.205034733E-1	-2.130362034E0	2.813882144E0
7.131583757E0	1.627059937E0	-2.888996601E-1	-2.249408960E0	2.791169597E0
7.136609434E0	1.288577557E0	-2.119176388E-1	-1.986788750E0	2.377534593E0
7.141635111E0	9.312152863E-1	-8.127021790E-2	-1.511108160E0	1.776855264E0
7.146660788E0	8.197832108E-1	1.090979576E-2	-9.099776745E-1	1.224835868E0
7.151686465E0	9.887390137E-1	5.439996719E-2	-3.337059021E-1	1.044951589E0
7.156712142E0	1.319176674E0	3.972887993E-2	-9.462356567E-3	1.319808705E0
7.161737819E0	1.744390965E0	-1.744914055E-2	-5.081391335E-2	1.745218142E0
7.166763496E0	2.120182991E0	-1.301102638E-1	-2.577345371E-1	2.139750380E0
7.171789173E0	2.273350716E0	-2.154743671E-1	-3.792600632E-1	2.314819836E0
7.176814850E0	2.145696640E0	-2.728786469E-1	-4.038970470E-1	2.200365799E0
7.181840527E0	1.923345089E0	-2.781655788E-1	-4.438934326E-1	1.993407585E0
7.186866204E0	1.677462578E0	-2.936036587E-1	-4.536068439E-1	1.762340199E0
7.191891882E0	1.345554352E0	-3.579297066E-1	-3.435232639E-1	1.434098470E0
7.196917559E0	1.028380871E0	-4.046676159E-1	-1.996319294E-1	1.123020927E0
7.201943236E0	8.505649567E-1	-4.296915531E-1	-1.121525764E-1	9.595174708E-1
7.206968913E0	9.173727036E-1	-4.384574890E-1	-6.596088409E-2	1.018905533E0
7.211994590E0	1.161952496E0	-4.648294449E-1	-5.492758751E-2	1.252683940E0
7.217020267E0	1.465079308E0	-4.900469780E-1	-1.484656334E-1	1.551981141E0
7.222045944E0	1.794100761E0	-5.518357754E-1	-3.767478466E-1	1.914486669E0
7.227071621E0	2.063618183E0	-6.731872559E-1	-7.224235535E-1	2.287705592E0
7.232097298E0	2.197352886E0	-8.053574562E-1	-1.007179737E0	2.547816980E0
7.237122975E0	2.156929493E0	-8.999063969E-1	-1.221795321E0	2.637225847E0
7.242148652E0	1.899209023E0	-1.018519640E0	-1.419357777E0	2.580494849E0
7.247174329E0	1.553162575E0	-1.069526672E0	-1.706879020E0	2.543548166E0
7.252200007E0	1.175594330E0	-1.052457094E0	-1.830318570E0	2.416558303E0
7.257225684E0	7.947778702E-1	-9.573466778E-1	-1.603781819E0	2.029852371E0
7.262251361E0	4.536695480E-1	-7.651503086E-1	-1.227682829E0	1.516072618E0
7.267277038E0	3.294849396E-2	-8.252024651E-1	-9.528822899E-1	1.260963667E0
7.272302715E0	-3.858366013E-1	-7.602930069E-1	-8.521981239E-1	1.205469610E0
7.277328392E0	-6.349296570E-1	-5.756816864E-1	-7.402380705E-1	1.132474050E0
7.282354069E0	-5.131349564E-1	-1.948447227E-1	-6.332881451E-1	8.380488196E-1
7.287379746E0	-1.924524307E-1	1.956908703E-1	-5.754560232E-1	6.375597929E-1
7.292405423E0	1.220350266E-1	3.479466438E-1	-6.086754203E-1	7.116496202E-1
7.297431100E0	1.724824905E-1	4.055709839E-1	-8.750725389E-1	9.797907842E-1
7.302456777E0	2.226428986E-1	5.744810104E-1	-1.046470761E0	1.214371997E0
7.307482454E0	2.152166367E-1	4.333398342E-1	-1.245195031E0	1.335893812E0
7.312508132E0	5.185928345E-1	1.832861900E-1	-1.319637060E0	1.429676301E0
7.317533809E0	9.414606094E-1	-5.025005341E-2	-1.438249111E0	1.719719062E0
7.322559486E0	1.316875935E0	-1.796200275E-1	-1.660908341E0	2.127214634E0
7.327585163E0	1.559412003E0	-1.985998154E-1	-1.838525414E0	2.418963286E0
7.332610840E0	1.602648735E0	-2.402851582E-1	-1.827449203E0	2.442496779E0
7.337636517E0	1.313017368E0	-5.100970268E-1	-1.704868913E0	2.211513417E0
7.342662194E0	6.951999664E-1	-9.469358921E-1	-1.667489767E0	2.039733488E0
7.347687871E0	3.087730408E-1	-6.762759686E-1	-1.327506304E0	1.521500234E0
7.352713548E0	1.340990067E-1	-3.406987190E-1	-1.175129414E0	1.230848203E0
7.357739225E0	-1.068878174E-2	-2.082214355E-1	-1.001892328E0	1.023356562E0
7.362764902E0	-1.015615463E-1	2.808446884E-1	-7.426646948E-1	8.004619514E-1
7.367790579E0	-3.826093674E-1	3.216431141E-1	-8.204867840E-1	9.607511559E-1
7.372816257E0	-5.714979172E-1	7.606170177E-1	-6.952933669E-1	1.178380661E0
7.377841934E0	-7.259273529E-1	7.593636513E-1	-8.274436593E-1	1.337260889E0
7.382867611E0	-9.180469513E-1	5.945541859E-1	-1.025654316E0	1.499423776E0
7.387893288E0	-1.109963417E0	5.475020409E-1	-1.332134485E0	1.818339781E0
7.392918965E0	-1.143944740E0	6.176466942E-1	-1.665717840E0	2.112986732E0
7.397944642E0	-9.818038940E-1	7.428104877E-1	-1.859486580E0	2.230111353E0
7.402970319E0	-6.091680527E-1	8.137638569E-1	-1.798413038E0	2.065813832E0
7.407995996E0	-2.460145950E-1	8.030066490E-1	-1.629775643E0	1.833442529E0
7.413021673E0	-1.313486099E-1	6.540846825E-1	-1.423668265E0	1.572231077E0
7.418047350E0	-1.883516312E-1	3.915002346E-1	-1.264816642E0	1.337351827E0
7.423073027E0	-2.304134369E-1	1.205174923E-1	-1.248336077E0	1.275130495E0
7.428098704E0	-2.576599121E-1	-4.906415939E-2	-1.297648430E0	1.323890996E0
7.433124382E0	-2.557506561E-1	-1.125617027E-1	-1.327166080E0	1.356262637E0
7.438150059E0	-2.343626022E-1	-4.636263847E-2	-1.251442671E0	1.274042418E0
7.443175736E0	-1.793098450E-1	7.272410393E-2	-1.079930067E0	1.097127962E0
7.448201413E0	-1.290454865E-1	1.106560230E-1	-1.008014083E0	1.022247467E0
7.453227090E0	-1.125974655E-1	1.339111328E-1	-1.020174503E0	1.035068306E0
7.458252767E0	-7.304573059E-2	2.705044746E-1	-1.081932545E0	1.117625331E0
7.463278444E0	7.515621185E-2	5.095489025E-1	-1.091739535E0	1.207138664E0
7.468304121E0	1.976222992E-1	8.167083263E-1	-1.239215136E0	1.497237862E0
7.473329798E0	1.936435699E-1	1.066776037E0	-1.513208032E0	1.861533640E0
7.478355475E0	1.348848343E-1	1.254341125E0	-1.731328130E0	2.142209763E0
7.483381152E0	8.338165283E-2	1.388382912E0	-1.826972604E0	2.296168222E0
7.488406829E0	8.211612701E-2	1.530941010E0	-1.796099901E0	2.361461049E0
7.493432507E0	2.077608109E-1	1.644351721E0	-1.657897234E0	2.344286752E0
7.498458184E0	3.888311386E-1	1.615009785E0	-1.406612635E0	2.176695974E0
7.503483861E0	5.685548782E-1	1.430545807E0	-1.279353261E0	2.001614529E0
7.508509538E0	7.285280228E-1	1.126384497E0	-1.274084687E0	1.850077540E0
7.513535215E0	9.653921127E-1	7.193205357E-1	-9.149593115E-1	1.512135743E0
7.518560892E0	1.103003979E0	4.028389454E-1	-5.172452331E-1	1.283136635E0
7.523586569E0	9.698915482E-1	3.463196754E-2	-7.433370352E-1	1.222472468E0
7.528612246E0	3.370628357E-1	2.321746349E-1	-6.681914330E-1	7.835791009E-1
7.533637923E0	-2.489948273E-2	1.816825867E-1	-1.084730148E0	1.100121830E0
7.538663600E0	-4.465494156E-1	-6.527373791E-1	-2.390919924E0	2.518326934E0
7.543689277E0	-9.426708221E-1	-1.180967808E0	-3.168862104E0	3.510697976E0
7.548714954E0	-1.293547630E0	-1.088586330E0	-3.142948627E0	3.568810971E0
7.553740632E0	-1.389568329E0	-4.579904079E-1	-2.749982357E0	3.114973245E0
7.558766309E0	-1.207201958E0	4.663419724E-1	-2.013491869E0	2.393524787E0
7.563791986E0	-8.949518204E-1	1.278065681E0	-1.333544016E0	2.052493676E0
7.568817663E0	-8.021249771E-1	1.723998308E0	-1.358174920E0	2.336710029E0
7.573843340E0	-1.677970886E-1	2.297975779E0	-9.321204424E-1	2.485497347E0
7.578869017E0	2.621469498E-1	2.390027046E0	-4.469571114E-1	2.445551260E0
7.583894694E0	1.007137299E-1	2.096934319E0	-4.470818937E-1	2.146429363E0
7.588920371E0	-4.558200836E-1	1.743222237E0	-6.732106209E-1	1.923488564E0
7.593946048E0	-1.211758614E0	1.456030369E0	-8.666939735E-1	2.083156695E0
7.598971725E0	-2.010026932E0	1.194442987E0	-7.878962755E-1	2.467323014E0
7.603997402E0	-3.268586159E0	5.704984665E-1	-4.462592006E-1	3.347875633E0
7.609023079E0	-2.616253853E0	6.706781387E-1	4.453824759E-1	2.737326970E0
7.614048757E0	-1.163797379E0	1.056998730E0	1.374623537E0	2.088363120E0
7.619074434E0	-2.548370361E-1	1.034163952E0	1.982895374E0	2.250846743E0
7.624100111E0	-1.222648621E-1	7.288000584E-1	2.147439480E0	2.271033804E0
7.629125788E0	-5.830478668E-1	3.183364868E-1	2.091145992E0	2.194122716E0
7.634151465E0	-1.139185905E0	-6.920552254E-2	1.797206163E0	2.128963110E0
7.639177142E0	-1.408271790E0	-1.576926708E-1	1.476296306E0	2.046349724E0
7.644202819E0	-1.438700676E0	-5.487203598E-3	1.356945157E0	1.977672851E0
7.649228496E0	-1.398430824E0	1.811375618E-1	1.441674471E0	2.016641978E0
7.654254173E0	-1.498285294E0	3.062319756E-1	1.732874870E0	2.311166839E0
7.659279850E0	-1.599609375E0	5.130672455E-1	1.923172712E0	2.553542918E0
7.664305527E0	-1.649820328E0	8.206684589E-1	2.112902641E0	2.803526601E0
7.669331204E0	-1.658495903E0	9.994916916E-1	2.086911678E0	2.846891753E0
7.674356882E0	-1.616052628E0	1.088247538E0	1.859703064E0	2.693400134E0
7.679382559E0	-1.488954544E0	1.168728113E0	1.618103862E0	2.490215080E0
7.684408236E0	-1.171784401E0	1.318128347E0	1.439279795E0	2.276415461E0
7.689433913E0	-7.933664322E-1	1.422822237E0	1.252183557E0	2.054706080E0
7.694459590E0	-4.967613220E-1	1.373727322E0	1.081874013E0	1.817787101E0
7.699485267E0	-3.148870468E-1	1.161758661E0	1.035511136E0	1.587803625E0
7.704510944E0	-7.041168213E-2	8.298382759E-1	1.124295115E0	1.399152914E0
7.709536621E0	1.983356476E-1	5.354456902E-1	1.114489675E0	1.252248518E0
7.714562298E0	4.672546387E-1	3.211636543E-1	1.034617305E0	1.179790641E0
7.719587975E0	6.881914139E-1	1.242876053E-1	1.022366643E0	1.238663951E0
7.724613652E0	8.419218063E-1	-2.654600143E-2	1.019461274E0	1.322436504E0
7.729639329E0	9.667997360E-1	-9.287524223E-2	9.393980503E-1	1.351220277E0
7.734665007E0	1.096435547E0	-7.433104515E-2	8.345309496E-1	1.379905040E0
7.739690684E0	1.149576664E0	-6.616497040E-2	8.046798706E-1	1.404782547E0
7.744716361E0	1.126222134E0	-1.545724869E-1	1.122148991E0	1.597337568E0
7.749742038E0	1.054968834E0	-2.202253342E-1	1.336712003E0	1.717049043E0
7.754767715E0	1.026381493E0	-2.586374283E-1	1.384958506E0	1.743118570E0
7.759793392E0	1.059199810E0	-1.933541298E-1	1.313151360E0	1.698133255E0
7.764819069E0	1.124579906E0	-1.464700699E-2	1.268690825E0	1.695426468E0
7.769844746E0	1.179556370E0	1.390659809E-1	1.198753119E0	1.687513442E0
7.774870423E0	1.195590496E0	2.155227661E-1	1.070033789E0	1.618906732E0
7.779896100E0	1.163357258E0	3.108255863E-1	8.829191923E-1	1.493170772E0
7.784921777E0	1.049690723E0	3.536860943E-1	8.004561663E-1	1.366628897E0
7.789947454E0	9.890027046E-1	4.547193050E-1	9.670082331E-1	1.456022293E0
7.794973132E0	9.577751160E-1	6.479096413E-1	1.130110741E0	1.616870546E0
7.799998809E0	9.277648926E-1	9.053218365E-1	1.123044014E0	1.715104423E0
7.805024486E0	8.802413940E-1	9.884314537E-1	1.008814931E0	1.664190258E0
7.810050163E0	7.292299271E-1	7.540359497E-1	9.122081995E-1	1.390133195E0
7.815075840E0	4.602565765E-1	4.075329304E-1	1.048465014E0	1.215400383E0
7.820101517E0	7.290458679E-2	1.869673729E-1	1.345283389E0	1.360168840E0
7.825127194E0	-1.846742630E-1	1.387248039E-1	1.701271176E0	1.716878787E0
7.830152871E0	-2.748794556E-1	2.570178509E-1	1.957610011E0	1.993452745E0
7.835178548E0	-2.697286606E-1	4.221811295E-1	2.118531704E0	2.176962801E0
7.840204225E0	-2.789659500E-1	5.155868530E-1	2.121607542E0	2.201106623E0
7.845229902E0	-3.787183762E-1	5.527746677E-1	1.985391855E0	2.095416011E0
7.850255579E0	-4.823131561E-1	6.498570442E-1	1.814561725E0	1.986850375E0
7.855281257E0	-6.130399704E-1	7.363424301E-1	1.747871876E0	1.993257202E0
7.860306934E0	-8.133974075E-1	6.602249146E-1	1.670639992E0	1.971940735E0
7.865332611E0	-1.131067276E0	4.649989605E-1	1.553570390E0	1.977149001E0
7.870358288E0	-1.437057495E0	2.078862190E-1	1.481575251E0	2.074467678E0
7.875383965E0	-1.664930344E0	-1.213557720E-1	1.534480572E0	2.267454718E0
7.880409642E0	-1.801101685E0	-5.094416142E-1	1.878164530E0	2.651603296E0
7.885435319E0	-1.870488167E0	-9.487113953E-1	2.378165722E0	3.170875509E0
7.890460996E0	-1.869386673E0	-1.393278599E0	2.445090055E0	3.378505167E0
7.895486673E0	-1.894433975E0	-1.763841867E0	2.380644083E0	3.516743447E0
7.900512350E0	-1.779017448E0	-2.115211964E0	2.238656521E0	3.556769286E0
7.905538027E0	-1.437965393E0	-2.416137457E0	2.198160648E0	3.568945911E0
7.910563704E0	-8.288621902E-1	-2.529088974E0	1.834765792E0	3.232594791E0
7.915589382E0	-2.005300522E-1	-2.439977646E0	1.409183383E0	2.824801059E0
7.920615059E0	4.093217850E-1	-2.162926912E0	1.044233203E0	2.436435949E0
7.925640788E0	1.279432297E0	-1.471078396E0	4.315916300E-1	1.996819968E0
7.930666517E0	1.459582329E0	-7.916338444E-1	-3.412222266E-1	1.695139323E0
7.935692246E0	6.693525314E-1	-3.238193989E-1	-4.647769332E-1	8.768747984E-1
7.940717975E0	-1.910486221E-1	-2.501330376E-1	-4.095554352E-3	3.147743415E-1
7.945743704E0	6.000986099E-1	-4.305760860E-1	-6.890443563E-1	1.010097140E0
7.950769434E0	1.242717743E0	-5.666415691E-1	-1.585036874E0	2.092312584E0
7.955795163E0	1.517153740E0	-6.137769222E-1	-2.538442612E0	3.020292779E0
7.960820892E0	1.510163307E0	-5.563538074E-1	-3.285239458E0	3.658267496E0
7.965846621E0	1.370841026E0	-4.940044880E-1	-3.596548080E0	3.880515900E0
7.970872350E0	1.200457573E0	-6.653578281E-1	-3.647210598E0	3.896914750E0
7.975898079E0	1.181265831E0	-1.046050310E0	-3.559285641E0	3.893343613E0
7.980923809E0	1.318175316E0	-1.559172392E0	-3.245255709E0	3.834095633E0
7.985949538E0	1.319284439E0	-1.874797821E0	-2.895832539E0	3.693402820E0
7.990975267E0	1.280239105E0	-2.103566408E0	-2.477385044E0	3.493056034E0
7.996000996E0	1.071504593E0	-2.251135349E0	-2.014433146E0	3.205257143E0
8.001026725E0	6.257724762E-1	-2.313719273E0	-1.570007324E0	2.865276786E0
8.006052454E0	-5.285263062E-2	-2.015753984E0	-1.231024265E0	2.362515242E0
8.011078184E0	-5.153999329E-1	-1.813532829E0	-9.408723116E-1	2.107078338E0
8.016103913E0	-8.679542542E-1	-1.650721788E0	-8.766297102E-1	2.060753905E0
8.021129642E0	-7.808856964E-1	-1.255250931E0	-9.753526449E-1	1.771087280E0
8.026155371E0	-4.123373032E-1	-7.752327919E-1	-1.093292117E0	1.402246621E0
8.031181100E0	8.451080322E-2	-4.110441208E-1	-1.154696345E0	1.228585770E0
8.036206829E0	4.707107544E-1	-1.378660202E-1	-1.112278104E0	1.215622571E0
8.041232559E0	7.755160332E-1	4.497432709E-2	-1.041353822E0	1.299178814E0
8.046258288E0	7.554545403E-1	1.855468750E-1	-1.111578822E0	1.356741200E0
8.051284017E0	7.362928391E-1	1.211767197E-1	-1.516537786E0	1.690176854E0
8.056309694E0	6.650762558E-1	5.712366104E-2	-2.011874437E0	2.119723635E0
8.061335371E0	5.796842575E-1	4.072284698E-2	-2.120961666E0	2.199129505E0
8.066361048E0	3.937206268E-1	1.623854637E-1	-1.711552858E0	1.763745491E0
8.071386725E0	4.181776047E-1	7.282114029E-2	-8.126854300E-1	9.168604233E-1
8.076412402E0	8.502287865E-1	-6.127932072E-1	1.860877872E-1	1.064440308E0
8.081438079E0	6.336050034E-1	-1.255082130E0	-4.503130913E-2	1.406667791E0
8.086463757E0	2.762565613E-1	-1.924596548E0	-5.902494192E-1	2.031940929E0
8.091489434E0	-1.126708984E0	-3.913864851E0	-2.398674011E0	4.726674118E0
8.096515111E0	-2.858447075E0	-2.829549074E0	-2.545897007E0	4.760111261E0
8.101540788E0	-3.804061890E0	-1.453819990E0	-9.915207624E-1	4.191371237E0
8.106566465E0	-3.996866226E0	-1.674284935E-1	7.377036810E-1	4.067822348E0
8.111592142E0	-3.174235344E0	1.178477764E0	2.063236237E0	3.965037658E0
8.116617819E0	-2.318120956E0	4.689831734E-1	1.975103617E0	3.081341312E0
8.121643496E0	-1.400631905E0	-2.323913574E-2	8.476213813E-1	1.637306262E0
8.126669173E0	-1.345012665E0	-6.619057655E-1	-9.124344587E-2	1.501833439E0
8.131694850E0	-8.733892441E-1	-9.355759621E-2	1.622529030E-1	8.932456549E-1
8.136720527E0	-1.268534660E0	-1.909241676E-1	9.278500676E-1	1.583204968E0
8.141746204E0	-1.589192390E0	-2.693817616E-1	1.508992910E0	2.207976130E0
8.146771882E0	-1.807923317E0	2.802937031E-1	1.236691952E0	2.208293066E0
8.151797559E0	-1.342564583E0	2.113258839E-1	1.109574318E0	1.754506613E0
8.156823236E0	-8.590793610E-1	-2.695441246E-2	7.262887955E-1	1.125272991E0
8.161848913E0	-5.538339615E-1	-2.295451164E-1	5.716826916E-1	8.283985256E-1
8.166874590E0	3.870410919E-1	-1.181721687E-1	7.401404381E-1	8.435480641E-1
8.171900267E0	1.916893482E0	9.510040283E-3	5.271508694E-1	1.988079249E0
8.176925944E0	3.023377895E0	-1.667346954E-1	2.089011669E-2	3.028044048E0
8.181951621E0	3.402617455E0	-7.958784103E-1	-6.438827515E-1	3.553282002E0
8.186977298E0	3.113700390E0	-1.530955076E0	-1.344485283E0	3.721101213E0
8.192002975E0	2.348734856E0	-2.055888176E0	-1.872772932E0	3.640125007E0
8.197028652E0	1.571619034E0	-2.252351522E0	-2.111554623E0	3.464352276E0
8.202054329E0	1.030632496E0	-2.245869875E0	-2.100587368E0	3.243239450E0
8.207080007E0	7.442102432E-1	-2.276711226E0	-2.002764463E0	3.122231315E0
8.212105684E0	1.090321064E0	-2.224261761E0	-1.727218390E0	3.019838368E0
8.217131361E0	2.094031811E0	-1.673372269E0	-1.363542557E0	3.007389612E0
8.222157038E0	2.541863441E0	-1.188692093E0	-1.508867264E0	3.186022452E0
8.227182715E0	4.879112244E-1	-1.597509861E0	-1.944866300E0	2.563708260E0
8.232208392E0	-9.247817993E-1	-2.123729229E0	-2.212279558E0	3.203065416E0
8.237234069E0	-1.516860962E0	-2.220164061E0	-1.893535614E0	3.288688607E0
8.242259746E0	-1.400685310E0	-2.028831959E0	-1.004497290E0	2.662159511E0
8.247285423E0	-1.548527718E0	-3.507616043E0	-7.393926978E-1	3.904870031E0
8.252311100E0	-1.116584778E0	-2.304100037E0	-7.043056488E-1	2.655500893E0
