"Time (s)","Linear Acceleration x (m/s^2)","Linear Acceleration y (m/s^2)","Linear Acceleration z (m/s^2)","Absolute acceleration (m/s^2)"
0.000000000E0,2.691001892E-1,-4.739761353E-3,-6.248950958E-2,2.763011328E-1
0.000000000E0,2.973895073E-1,-5.240678787E-3,-4.970264435E-2,3.015598392E-1
0.000000000E0,2.910439968E-1,8.355379105E-3,4.820823669E-2,2.951278613E-1
0.000000000E0,2.792611122E-1,5.951690674E-2,1.879539490E-1,3.418416562E-1
0.000000000E0,2.958998680E-1,1.049418449E-1,3.171739578E-1,4.462833654E-1
0.000000000E0,3.174818754E-1,1.161139011E-1,4.028635025E-1,5.259051064E-1
3.284343000E-3,3.442178965E-1,1.171078682E-1,4.739236832E-1,5.973306208E-1
8.309812000E-3,3.858181238E-1,1.270134449E-1,4.877986908E-1,6.347720871E-1
1.333528000E-2,4.235827923E-1,1.316783428E-1,4.165229797E-1,6.084841498E-1
1.836074900E-2,4.577381611E-1,1.551775932E-1,3.129987717E-1,5.758233589E-1
2.338627000E-2,4.219329357E-1,1.691524982E-1,1.774282455E-1,4.879761800E-1
2.841184300E-2,3.924700022E-1,1.645121574E-1,4.177093506E-4,4.255550811E-1
3.343746800E-2,3.451517820E-1,1.653354168E-1,-1.751060486E-1,4.208653953E-1
3.846314500E-2,2.938581705E-1,1.527032852E-1,-2.875843048E-1,4.386064866E-1
4.348887400E-2,2.759840488E-1,1.456856728E-1,-3.804225922E-1,4.920496510E-1
4.851465500E-2,2.432825565E-1,1.014506817E-1,-4.538888931E-1,5.248750046E-1
5.354043700E-2,2.241601944E-1,6.782913208E-2,-5.034580231E-1,5.552644099E-1
5.856621800E-2,1.945536137E-1,3.512668610E-2,-5.056028366E-1,5.428804851E-1
6.359199900E-2,2.066538334E-1,3.154516220E-3,-5.034313202E-1,5.442047886E-1
6.861778000E-2,2.221934795E-1,-3.281784058E-2,-4.969673157E-1,5.453654425E-1
7.364351000E-2,2.556016445E-1,-3.479290009E-2,-5.004320145E-1,5.630052821E-1
7.866903000E-2,2.403626442E-1,-1.263546944E-2,-4.519557953E-1,5.120526308E-1
8.369449900E-2,1.961510181E-1,2.869415283E-2,-3.756408691E-1,4.247406725E-1
8.871996800E-2,1.710314751E-1,6.984925270E-2,-3.285598755E-1,3.769380259E-1
9.374543700E-2,1.365611553E-1,9.175300598E-2,-2.344169617E-1,2.863893768E-1
9.877090500E-2,1.308200359E-1,1.134276390E-1,-1.315479279E-1,2.174501516E-1
1.037963740E-1,9.199213982E-2,1.061897278E-1,-3.892707825E-2,1.457879607E-1
1.088218430E-1,2.067041397E-2,1.034462452E-1,1.988792419E-2,1.073495281E-1
1.138473120E-1,-7.790613174E-2,9.090399742E-2,3.098583221E-2,1.236649664E-1
1.188727800E-1,-1.605603695E-1,9.265398979E-2,-1.476192474E-2,1.859631912E-1
1.238982490E-1,-2.179496288E-1,8.957338333E-2,-1.121358871E-1,2.609595541E-1
1.289237180E-1,-2.266316414E-1,1.057965755E-1,-2.560834885E-1,3.579574966E-1
1.339491870E-1,-2.157304287E-1,9.877562523E-2,-3.798913956E-1,4.478992235E-1
1.389746550E-1,-2.236528397E-1,1.163218021E-1,-4.648323059E-1,5.287914778E-1
1.440001240E-1,-1.934247017E-1,1.348006725E-1,-5.161085129E-1,5.674084363E-1
1.490255930E-1,-1.635029316E-1,1.448869705E-1,-5.198383331E-1,5.638770570E-1
1.540510620E-1,-1.433739662E-1,1.608464718E-1,-4.953927994E-1,5.402237567E-1
1.590765300E-1,-1.520326138E-1,1.778454781E-1,-4.430112839E-1,5.010009255E-1
1.641019990E-1,-1.465854645E-1,2.147371769E-1,-3.534069061E-1,4.387434271E-1
1.691274680E-1,-1.318159103E-1,2.377679348E-1,-2.362632751E-1,3.601796222E-1
1.741529370E-1,-9.830474854E-2,2.562615871E-1,-8.697700500E-2,2.879215588E-1
1.791784050E-1,-1.784944534E-2,2.698342800E-1,1.085176468E-1,2.913850048E-1
1.842038740E-1,9.974265099E-2,2.640154362E-1,2.454624176E-1,3.740381604E-1
1.892293430E-1,2.545398474E-1,2.386636734E-1,3.150234222E-1,4.700964151E-1
1.942548120E-1,3.422895670E-1,2.177662849E-1,2.988681793E-1,5.038913485E-1
1.992802800E-1,2.926532030E-1,1.539311409E-1,2.452363968E-1,4.116814104E-1
2.043057490E-1,1.110899448E-1,8.076882362E-2,2.113132477E-1,2.520275131E-1
2.093312180E-1,-1.118798256E-1,2.952337265E-3,1.682920456E-1,2.021089416E-1
2.143566870E-1,-2.675080299E-1,-3.572940826E-3,1.873006821E-1,3.265805528E-1
2.193821550E-1,-3.520617485E-1,-1.481771469E-3,2.013244629E-1,4.055628308E-1
2.244076760E-1,-3.995707035E-1,4.309415817E-3,2.721099854E-1,4.834450975E-1
2.294331970E-1,-3.438642025E-1,-5.370616913E-3,3.659811020E-1,5.022087218E-1
2.344587180E-1,-2.186009884E-1,-2.569532394E-2,4.591197968E-1,5.091538368E-1
2.394842390E-1,-8.997988701E-2,-7.060837746E-2,4.472122192E-1,4.616066421E-1
2.445097600E-1,1.903820038E-2,-1.016042233E-1,4.262123108E-1,4.385690426E-1
2.495352800E-1,1.092681885E-1,-8.990931511E-2,3.582553864E-1,3.851884523E-1
2.545608010E-1,1.811373234E-1,-7.365059853E-2,2.674798965E-1,3.313316098E-1
2.595863220E-1,2.299302816E-1,-3.173351288E-4,1.967000961E-1,3.025871163E-1
2.646118430E-1,2.793244123E-1,5.842351913E-2,1.219348907E-1,3.103281368E-1
2.696373640E-1,3.386788368E-1,8.860325813E-2,4.789543152E-2,3.533381726E-1
2.746628850E-1,3.838369846E-1,1.000649929E-1,-3.027820587E-2,3.978198126E-1
2.796884050E-1,3.765125275E-1,1.072325706E-1,-8.416366577E-2,4.004298068E-1
2.847139260E-1,3.261971474E-1,9.109807014E-2,-1.235494614E-1,3.605106195E-1
2.897394470E-1,2.327688932E-1,7.066798210E-2,-1.343746185E-1,2.779062062E-1
2.947649680E-1,1.390144825E-1,5.057096481E-2,-6.467437744E-2,1.614472791E-1
2.997904890E-1,5.430889130E-2,2.569007874E-2,-3.376674652E-2,6.891755212E-2
3.048160100E-1,-6.893467903E-2,-3.954172134E-3,-8.090972900E-3,6.952042357E-2
3.098415300E-1,-2.494025230E-1,-1.463627815E-2,-2.082920074E-2,2.506984139E-1
3.148670510E-1,-3.727774620E-1,-4.456973076E-2,-3.843402863E-2,3.773945835E-1
3.198925720E-1,-4.491910934E-1,-9.350347519E-2,-1.818561554E-2,4.591799810E-1
3.249180930E-1,-4.886300564E-1,-1.519246101E-1,-7.869720459E-3,5.117639609E-1
3.299436140E-1,-4.674761295E-1,-2.053756714E-1,6.855964661E-3,5.106467491E-1
3.349691350E-1,-4.049830437E-1,-2.490012646E-1,1.648044586E-2,4.756937045E-1
3.399946550E-1,-3.390896320E-1,-2.779853344E-1,1.635456085E-2,4.387768184E-1
3.450201760E-1,-2.599580288E-1,-3.065732718E-1,1.611518860E-2,4.022748401E-1
3.500456970E-1,-1.816484928E-1,-3.204716444E-1,5.855560303E-2,3.729973304E-1
3.550712180E-1,-1.038708687E-1,-2.961236238E-1,9.116840363E-2,3.267874474E-1
3.600967390E-1,-2.163815498E-2,-2.765001059E-1,1.093187332E-1,2.981125689E-1
3.651222600E-1,2.236127853E-2,-2.425835133E-1,1.321420670E-1,2.771431283E-1
3.701477800E-1,2.871704102E-2,-1.898705959E-1,1.501913071E-1,2.437887207E-1
3.751733010E-1,2.641868591E-2,-1.137368679E-1,1.587867737E-1,1.970970867E-1
3.801988220E-1,-8.180499077E-3,-4.769492149E-2,1.485290527E-1,1.562133336E-1
3.852243430E-1,-7.489728928E-2,3.452301025E-3,1.955614090E-1,2.094416076E-1
3.902498640E-1,-1.881169081E-1,3.022146225E-2,3.040885925E-1,3.588470147E-1
3.952753850E-1,-3.385342360E-1,4.653429985E-2,5.163345337E-1,6.191705909E-1
4.003009050E-1,-5.072557926E-1,4.717445374E-2,7.412528992E-1,8.994385631E-1
4.053264260E-1,-6.706939936E-1,6.021404266E-2,9.645509720E-1,1.176356554E0
4.103519470E-1,-7.903319597E-1,5.644702911E-2,1.129518509E0,1.379718426E0
4.153774680E-1,-8.372949362E-1,4.521536827E-2,1.232112885E0,1.490372235E0
4.204029890E-1,-7.973797321E-1,-1.996755600E-3,1.258743286E0,1.490051370E0
4.254285100E-1,-6.753817797E-1,-7.517027855E-2,1.172144890E0,1.354885516E0
4.304540300E-1,-4.712377787E-1,-1.640553474E-1,1.025525093E0,1.140473988E0
4.354795510E-1,-2.849280834E-1,-2.441700697E-1,8.383264542E-1,9.184738861E-1
4.405050720E-1,-1.351603270E-1,-2.816179991E-1,5.965023041E-1,6.733439018E-1
4.455305930E-1,-4.746840000E-1,2.772498131E-2,2.429943085E-1,5.339848391E-1
4.505561140E-1,-7.704094648E-1,2.113878727E-1,8.668518066E-2,8.035732056E-1
4.555816350E-1,-1.427781582E0,3.412415981E-1,-2.147865295E-2,1.468151016E0
4.606071550E-1,-1.260859013E0,-2.279014587E-1,-4.047241211E-1,1.343691236E0
4.656326760E-1,-1.002395034E0,-6.158391237E-1,-7.378911972E-1,1.388717772E0
4.706581970E-1,-7.433558702E-1,-8.617397547E-1,-8.077907562E-1,1.395599964E0
4.756837180E-1,-5.700714588E-1,-9.479815960E-1,-6.927223206E-1,1.305187645E0
4.807092390E-1,-4.542250633E-1,-8.953491449E-1,-5.699882507E-1,1.154494307E0
4.857347600E-1,-4.050142765E-1,-7.669639587E-1,-4.728517532E-1,9.878557884E-1
4.907602800E-1,-4.882552624E-1,-5.969773531E-1,-3.202610016E-1,8.350702189E-1
4.957858010E-1,-6.834697723E-1,-4.480099678E-1,-4.121780396E-2,8.182559308E-1
5.008113220E-1,-8.560894728E-1,-2.776870728E-1,3.492670059E-1,9.653946018E-1
5.058368430E-1,-9.960588217E-1,-1.319646835E-3,6.986293793E-1,1.216642070E0
5.108623640E-1,-1.088748574E0,1.992313862E-1,9.837455750E-1,1.480818003E0
5.158878850E-1,-1.067205548E0,2.958729267E-1,1.233884811E0,1.657992822E0
5.209134050E-1,-9.218412638E-1,3.272833824E-1,1.387862206E0,1.697959726E0
5.259389260E-1,-8.801885843E-1,5.981552601E-1,1.342226028E0,1.712919254E0
5.309644470E-1,-8.639039993E-1,6.033670902E-1,1.393266678E0,1.746875497E0
5.359899680E-1,-4.976310730E-1,3.974168301E-1,1.259994507E0,1.411794241E0
5.410154890E-1,5.526838303E-1,6.528782845E-1,-2.245435715E-1,8.843807359E-1
5.460410100E-1,1.340142250E0,4.753658772E-1,-1.365457535E0,1.971402609E0
5.510665300E-1,2.283480167E-1,-4.920363426E-2,5.124692917E-1,5.631949834E-1
5.560920510E-1,-5.011546612E-2,-2.002243996E-1,7.007703781E-1,7.305343886E-1
5.611175720E-1,-2.737883329E-1,-8.860230446E-2,6.127977371E-1,6.770018362E-1
5.661430930E-1,1.690560579E-1,-2.063703537E-2,6.705570221E-2,1.830363493E-1
5.711686140E-1,4.437659979E-1,1.336181164E-1,-5.824785233E-1,7.443542785E-1
5.761941350E-1,5.157818794E-1,1.104950905E-2,-7.286481857E-1,8.927940509E-1
5.812196550E-1,5.710120797E-1,-2.590944767E-1,-5.634660721E-1,8.430176495E-1
5.862451760E-1,7.276214957E-1,-4.857776165E-1,-4.126367569E-1,9.673065837E-1
5.912706970E-1,8.120639920E-1,-5.829210281E-1,-4.772291183E-1,1.107696928E0
5.962962180E-1,6.900870204E-1,-5.837736130E-1,-6.136837006E-1,1.092528906E0
6.013217390E-1,6.724097729E-1,-6.841115952E-1,-6.068935394E-1,1.135104993E0
6.063472600E-1,6.725245714E-1,-6.590597630E-1,-4.379568100E-1,1.038486994E0
6.113727800E-1,8.292283416E-1,-6.524372101E-1,-3.317823410E-1,1.106062149E0
6.163983010E-1,6.131536365E-1,-3.768985271E-1,-4.842061996E-1,8.674477076E-1
6.214238220E-1,4.612528086E-1,-3.010687828E-1,-7.800273895E-1,9.549027667E-1
6.264493430E-1,2.503057718E-1,-2.281930447E-1,-9.655323029E-1,1.023219269E0
6.314748640E-1,1.900942326E-1,-1.920213699E-1,-8.113431931E-1,8.551525014E-1
6.365003850E-1,2.973853350E-1,9.802794456E-2,-6.909303665E-1,7.585725323E-1
6.415259050E-1,2.886849642E-1,4.497084618E-1,-6.185998917E-1,8.174610297E-1
6.465514260E-1,1.233688593E-1,6.001944542E-1,-5.557317734E-1,8.272188720E-1
6.515769470E-1,-5.733275414E-2,5.841479301E-1,-6.791391373E-1,8.976334535E-1
6.566024680E-1,-1.238887310E-1,5.218904018E-1,-8.165121078E-1,9.769391135E-1
6.616279890E-1,1.886951923E-2,4.853115082E-1,-8.531322479E-1,9.816913727E-1
6.666535100E-1,2.265446186E-1,2.782187462E-1,-9.709320068E-1,1.035102457E0
6.716790300E-1,3.434327841E-1,-2.764351368E-1,-1.437983513E0,1.504047554E0
6.767045510E-1,6.604586840E-1,-2.549655437E-1,-1.560640335E0,1.713712741E0
6.817300720E-1,1.218644738E0,8.454275131E-2,-1.339055061E0,1.812542670E0
6.867555930E-1,1.448678374E0,-2.619469166E-1,-1.596404076E0,2.171587252E0
6.917811140E-1,1.634903193E0,-5.375628471E-1,-1.457581520E0,2.255310655E0
6.968066350E-1,1.924082994E0,-4.317746162E-1,-1.085909843E0,2.251160784E0
7.018321550E-1,1.813992143E0,-2.271034718E-1,-1.117774010E0,2.142793088E0
7.068576760E-1,1.300184250E0,-6.275677681E-2,-1.016949654E0,1.651848690E0
7.118831970E-1,7.089905739E-1,1.944308281E-1,-9.027976990E-1,1.164265720E0
7.169087180E-1,2.564992905E-1,5.290417671E-1,-7.031497955E-1,9.165678984E-1
7.219342390E-1,-1.007190943E-1,8.394727707E-1,-5.039186478E-1,9.842727631E-1
7.269597600E-1,-8.711253405E-1,6.273560524E-1,-7.402896881E-1,1.304018327E0
7.319852800E-1,-9.359403849E-1,-2.740232944E-1,-1.599402428E0,1.873275552E0
7.370108010E-1,-3.825581074E-1,-2.843899727E-1,-1.507522583E0,1.581092249E0
7.420363220E-1,-1.898741722E-2,-2.311456203E-1,-1.345900536E0,1.365736824E0
7.470618430E-1,3.678956032E-1,-5.180907249E-2,-3.968381882E-1,5.436100647E-1
7.520873640E-1,6.521590948E-1,9.529519081E-2,3.638477325E-1,7.528464856E-1
7.571128850E-1,5.060787201E-1,3.050487041E-1,7.648983002E-1,9.665608064E-1
7.621384050E-1,2.666764259E-1,4.716148376E-1,9.698524475E-1,1.110923328E0
7.671639260E-1,1.971472502E-1,6.090290546E-1,1.084266663E0,1.259133680E0
7.721894470E-1,2.529939413E-1,5.834350586E-1,1.021916389E0,1.203625984E0
7.772149680E-1,3.217285872E-1,4.383568764E-1,7.968397141E-1,9.646862520E-1
7.822404890E-1,4.622384310E-1,2.074227333E-1,5.186214447E-1,7.250219033E-1
7.872660100E-1,7.244794369E-1,2.439880371E-2,2.921619415E-1,7.815525294E-1
7.922915300E-1,1.021164775E0,-6.807494164E-2,6.474590302E-2,1.025477317E0
7.973170510E-1,9.949393272E-1,1.115951538E-1,-2.254581451E-1,1.026250027E0
8.023425720E-1,2.335843325E0,1.626245975E-1,-1.257465363E0,2.657786661E0
8.073680930E-1,3.535849094E0,3.963255882E-2,-1.395220757E0,3.801373504E0
8.123936140E-1,3.519156694E0,-8.445978165E-3,-1.232731819E0,3.728828625E0
8.174191350E-1,3.090528011E0,5.622839928E-2,-1.219742775E0,3.322995254E0
8.224446550E-1,2.421935081E0,2.047746181E-1,-1.494710922E0,2.853394982E0
8.274701760E-1,1.685708046E0,3.802468777E-1,-1.918576241E0,2.582079413E0
8.324956970E-1,1.141277909E0,5.305230618E-1,-2.318780422E0,2.638316249E0
8.375212180E-1,7.660016418E-1,5.941910744E-1,-2.690381527E0,2.859715774E0
8.425467390E-1,2.643834352E-1,5.142755508E-1,-2.698423862E0,2.759686447E0
8.475722600E-1,-2.957022190E-1,3.625810146E-1,-2.596591473E0,2.638407109E0
8.525977800E-1,-1.047471762E0,1.532800198E-1,-2.356094360E0,2.582996804E0
8.576233010E-1,-1.832309008E0,5.805826187E-2,-2.062928200E0,2.759782567E0
8.626488220E-1,-2.377120018E0,4.266357422E-2,-2.027779579E0,3.124805559E0
8.676743430E-1,-2.840466022E0,-9.373950958E-2,-2.059022903E0,3.509502762E0
8.726998640E-1,-3.487556458E0,-2.128574848E-1,-1.386279106E0,3.759006267E0
8.777253850E-1,-3.305842400E0,4.808270931E-2,-1.229678154E0,3.527465702E0
8.827509050E-1,-2.885889769E0,1.767716408E-1,-1.679562569E0,3.343731208E0
8.877764260E-1,-2.699334621E0,2.642149925E-1,-1.711873055E0,3.207292677E0
8.928019470E-1,-2.401895761E0,4.916805029E-1,-1.575739861E0,2.914414019E0
8.978274680E-1,-2.134266138E0,5.721062422E-1,-9.987220764E-1,2.424838817E0
9.028529890E-1,-1.958198071E0,3.483986855E-1,3.199300766E-1,2.014516463E0
9.078785100E-1,-1.504908919E0,-3.504669666E-2,1.274400711E0,1.972327635E0
9.129040300E-1,-9.214813113E-1,1.962542534E-2,1.157224655E0,1.479419436E0
9.179295510E-1,-9.386276603E-1,4.208559990E-1,1.089207649E0,1.498170538E0
9.229550720E-1,-7.507913113E-1,4.797126055E-1,2.146680832E0,2.324231135E0
9.279805930E-1,1.180022359E-1,2.479752302E-1,2.874399185E0,2.887487994E0
9.330061140E-1,1.057822704E0,-6.778979301E-2,2.559943199E0,2.770720757E0
9.380316350E-1,1.569617867E0,-7.923161983E-2,2.232429504E0,2.730150068E0
9.430571550E-1,1.670823336E0,1.226043105E-1,2.307716370E0,2.851707783E0
9.480826760E-1,1.514529109E0,2.552524805E-1,2.354843140E0,2.811447752E0
9.531081970E-1,1.353534937E0,2.664432526E-1,2.201650620E0,2.598136694E0
9.581337180E-1,1.237178445E0,2.527480125E-1,1.948739052E0,2.322084399E0
9.631592390E-1,1.050877571E0,3.012077212E-1,1.663095474E0,1.990215143E0
9.681847600E-1,7.704107761E-1,3.791287541E-1,1.239460945E0,1.507824529E0
9.732102800E-1,5.721442699E-1,4.585871696E-1,6.396646500E-1,9.730478520E-1
9.782358010E-1,4.642446935E-1,5.836572647E-1,-7.401275635E-2,7.494376733E-1
9.832613220E-1,4.682741761E-1,7.746610045E-1,-8.489713669E-1,1.241020853E0
9.882868430E-1,6.295557618E-1,1.056491733E0,-1.493990898E0,1.935077270E0
9.933123640E-1,9.750348330E-1,1.386970758E0,-1.913698196E0,2.556681755E0
9.983378850E-1,1.685948372E0,1.699607253E0,-1.969714165E0,3.100138806E0
1.003363405E0,4.190063000E0,1.847091556E0,-1.576331139E0,4.842849886E0
1.008388926E0,3.198571920E0,1.824975014E0,2.795928001E0,4.623700847E0
1.013414447E0,4.602028370E0,1.823062897E0,-4.361238480E-1,4.969147558E0
1.018439968E0,4.183875084E0,1.797311425E0,-1.516894341E0,4.799594516E0
1.023465489E0,4.452676773E0,1.840405226E0,-2.285580635E0,5.332663563E0
1.028491010E0,4.015473366E0,1.909190416E0,-2.230710030E0,4.974444857E0
1.033516530E0,2.885635376E0,2.016834497E0,-1.869668961E0,3.986248228E0
1.038542051E0,1.649280071E0,2.266482830E0,-1.542251587E0,3.199313853E0
1.043567572E0,7.661898136E-1,2.598217249E0,-1.353509903E0,3.028162605E0
1.048593093E0,2.915724814E-1,2.861302853E0,-1.451477051E0,3.221622907E0
1.053618614E0,2.009880394E-1,2.934092522E0,-1.716321945E0,3.405151412E0
1.058644135E0,5.262244344E-1,2.772111416E0,-2.253238678E0,3.610899943E0
1.063669655E0,6.732614040E-1,2.402978420E0,-2.602959156E0,3.605964860E0
1.068695176E0,1.714589357E0,1.942151427E0,-3.794086933E0,4.594220770E0
1.073720697E0,1.993908286E0,1.452344179E0,-3.955565929E0,4.661703089E0
1.078746218E0,2.171357870E0,1.028919935E0,-4.312786102E0,4.936962143E0
1.083771739E0,1.999015927E0,7.523839474E-1,-4.458602905E0,4.943812916E0
1.088797260E0,1.697598934E0,5.027290583E-1,-4.698890209E0,5.021369121E0
1.093822780E0,1.200971127E0,2.893903852E-1,-5.013831139E0,5.163775860E0
1.098848301E0,7.397518158E-1,8.468186855E-2,-5.536681652E0,5.586523739E0
1.103873822E0,5.016022921E-1,-7.570463419E-2,-6.400620461E0,6.420691422E0
1.108899343E0,3.361045420E-1,-7.636642456E-2,-7.543016434E0,7.550887035E0
1.113924864E0,3.199605346E-1,-7.779359818E-3,-8.318122864E0,8.324277941E0
1.118950385E0,1.051430404E-1,-2.756484747E-1,-8.243114471E0,8.248392166E0
1.123975905E0,-2.043237090E-1,-7.179996967E-1,-8.011889458E0,8.046592100E0
1.129001426E0,-5.197881460E-1,-1.190691948E0,-8.083434105E0,8.187174968E0
1.134026947E0,-9.181832075E-1,-1.451953650E0,-8.333340645E0,8.508571919E0
1.139052468E0,-1.221729159E0,-1.469440103E0,-8.561540604E0,8.772220578E0
1.144077989E0,-8.374968767E-1,-1.571016312E0,-8.769226074E0,8.948118194E0
1.149103510E0,-4.548331499E-1,-2.049023628E0,-8.239367485E0,8.502502430E0
1.154129030E0,-4.154862165E-1,-2.756736755E0,-7.276978493E0,7.792730094E0
1.159154551E0,-3.384041786E-1,-3.094094038E0,-7.368914604E0,7.999302329E0
1.164180072E0,-1.776262522E-1,-3.043169022E0,-7.503965855E0,8.099501980E0
1.169205593E0,5.876755714E-2,-2.838222742E0,-7.935543060E0,8.428036878E0
1.174231114E0,2.190332413E-1,-2.799109936E0,-8.232959747E0,8.698541153E0
1.179256635E0,5.187983513E-1,-2.767695189E0,-8.453577995E0,8.910233965E0
1.184282155E0,8.527238369E-1,-2.863055229E0,-8.396451950E0,8.912049626E0
1.189307676E0,9.452021122E-1,-3.129179478E0,-8.237413406E0,8.862288128E0
1.194333197E0,9.640054703E-1,-3.308355331E0,-7.969522953E0,8.682615830E0
1.199358718E0,7.909231186E-1,-3.329746246E0,-7.939556599E0,8.645769395E0
1.204384239E0,5.454907417E-1,-3.273386478E0,-8.308617592E0,8.946828794E0
1.209409760E0,3.831882477E-1,-3.246398926E0,-8.813292503E0,9.400003403E0
1.214435280E0,4.036965370E-1,-3.326888800E0,-9.210703850E0,9.801439965E0
1.219460801E0,5.735106468E-1,-3.621749163E0,-9.407434464E0,1.009682151E1
1.224486322E0,1.313439846E0,-4.152185440E0,-9.865482330E0,1.078394685E1
1.229511843E0,1.254617691E0,-4.929988861E0,-9.745839119E0,1.099364525E1
1.234537364E0,7.925314903E-1,-5.728517532E0,-9.510601044E0,1.113083786E1
1.239562885E0,1.773066521E-1,-6.427310467E0,-9.199649811E0,1.122387251E1
1.244588405E0,-3.898096085E-1,-6.964245796E0,-8.919070244E0,1.132265362E1
1.249613926E0,-9.102811813E-1,-7.273633957E0,-8.553194046E0,1.126461234E1
1.254639447E0,-1.076602936E0,-7.395828724E0,-8.190073013E0,1.108759002E1
1.259664968E0,-5.404944420E-1,-7.395530701E0,-7.867407799E0,1.081120317E1
1.264690489E0,3.812355995E-1,-7.222479820E0,-7.234477520E0,1.022972240E1
1.269716010E0,1.226342678E0,-6.950038433E0,-6.358294487E0,9.499203091E0
1.274741530E0,1.804824352E0,-6.822742462E0,-5.418913841E0,8.897855521E0
1.279767051E0,2.523157120E0,-6.940828800E0,-4.546957970E0,8.672730427E0
1.284792572E0,3.693149090E0,-7.093937397E0,-3.626559734E0,8.781527971E0
1.289818093E0,5.066501617E0,-7.269013405E0,-2.691285849E0,9.260184341E0
1.294843614E0,6.265177727E0,-7.472501755E0,-1.842139959E0,9.923921304E0
1.299869135E0,7.154040337E0,-7.653437614E0,-9.980130196E-1,1.052385055E1
1.304894655E0,7.553573608E0,-7.813364983E0,-2.780547142E-1,1.087117570E1
1.309920176E0,7.574622154E0,-8.001450539E0,2.958555222E-1,1.102205253E1
1.314945697E0,7.283531189E0,-8.261665344E0,7.658500671E-1,1.104044687E1
1.319971218E0,6.793457031E0,-8.536989212E0,1.228468895E0,1.097908826E1
1.324996739E0,6.197911263E0,-8.765584946E0,1.733709335E0,1.087452673E1
1.330022260E0,5.618853569E0,-8.947702408E0,2.084083796E0,1.076922927E1
1.335047780E0,5.297954559E0,-9.002226830E0,2.360264063E0,1.070884013E1
1.340073301E0,5.094841957E0,-8.943832397E0,2.565466166E0,1.060807094E1
1.345098822E0,4.908473969E0,-8.877792358E0,2.620204210E0,1.047729850E1
1.350124343E0,4.715124130E0,-8.946868896E0,2.496525049E0,1.041688514E1
1.355149864E0,4.625670433E0,-9.140192032E0,2.212644577E0,1.048025445E1
1.360175385E0,4.698553085E0,-9.417806625E0,1.914732456E0,1.069755501E1
1.365200905E0,4.796154022E0,-9.778072357E0,1.728566170E0,1.102731760E1
1.370226426E0,4.766502380E0,-1.018126965E1,1.611762047E0,1.135674132E1
1.375251947E0,4.787338257E0,-1.046795845E1,1.470431089E0,1.160426341E1
1.380277468E0,4.858875275E0,-1.065172005E1,1.340534568E0,1.178409274E1
1.385302989E0,4.871142387E0,-1.081324387E1,1.229695320E0,1.192335614E1
1.390328510E0,5.034558296E0,-1.094722557E1,1.093850851E0,1.209896833E1
1.395354030E0,5.377440453E0,-1.103922462E1,1.124184132E0,1.233065838E1
1.400379551E0,5.612405777E0,-1.117097092E1,1.339102864E0,1.257310170E1
1.405405072E0,5.868490219E0,-1.120893288E1,1.652543902E0,1.275971218E1
1.410430593E0,6.293797493E0,-1.109620285E1,2.013005018E0,1.291471230E1
1.415456114E0,6.773216248E0,-1.085764790E1,2.430982113E0,1.302592224E1
1.420481635E0,7.440284729E0,-1.053308105E1,2.863871574E0,1.321004897E1
1.425507155E0,8.279755592E0,-1.009120083E1,3.344974995E0,1.347499701E1
1.430532676E0,8.974702835E0,-9.625381470E0,3.810803175E0,1.370092990E1
1.435558197E0,9.533644676E0,-9.137697220E0,4.265131950E0,1.387729231E1
1.440583718E0,9.945961952E0,-8.610754967E0,4.698518753E0,1.396937145E1
1.445609239E0,1.021061230E1,-7.969538689E0,5.144819736E0,1.393697673E1
1.450634760E0,1.030740356E1,-7.201009750E0,5.608920574E0,1.376797370E1
1.455660228E0,1.026875782E1,-6.316032887E0,5.933780670E0,1.343686763E1
1.460685697E0,1.014162731E1,-5.382486343E0,6.216549873E0,1.305638756E1
1.465711166E0,1.001597118E1,-4.472850323E0,6.539926529E0,1.277093214E1
1.470736635E0,9.938703537E0,-3.644936562E0,6.857172012E0,1.261285846E1
1.475762103E0,9.927948952E0,-2.927630424E0,7.254797935E0,1.263990836E1
1.480787572E0,1.003024292E1,-2.306770325E0,7.794226646E0,1.291034203E1
1.485813041E0,1.019159412E1,-1.815840244E0,8.373656273E0,1.331480326E1
1.490838510E0,1.035826588E1,-1.392275810E0,8.924596786E0,1.374338138E1
1.495863978E0,1.044806862E1,-1.040324211E0,9.383401871E0,1.408164206E1
1.500889447E0,1.047489738E1,-7.208671570E-1,9.595596313E0,1.422387406E1
1.505914916E0,1.045285892E1,-3.805308342E-1,9.551113129E0,1.416442111E1
1.510940385E0,1.033407021E1,-3.784561157E-2,9.235742569E0,1.385977562E1
1.515965853E0,1.004673386E1,3.075799942E-1,8.721549988E0,1.330777595E1
1.520991322E0,9.672706604E0,5.416808128E-1,7.989903450E0,1.255759644E1
1.526016791E0,9.284455299E0,6.843919754E-1,7.161669254E0,1.174559531E1
1.531042260E0,8.830379486E0,8.036060333E-1,6.281309128E0,1.086628864E1
1.536067728E0,8.268713951E0,9.241008759E-1,5.336181641E0,9.884352651E0
1.541093197E0,7.648716450E0,1.056145191E0,4.304891109E0,8.840271119E0
1.546118666E0,7.100810051E0,1.281601906E0,3.266731262E0,7.920576997E0
1.551144135E0,6.635057449E0,1.566916943E0,2.296232224E0,7.193879238E0
1.556169603E0,6.237337589E0,1.892810345E0,1.410228968E0,6.669022188E0
1.561195072E0,6.089119434E0,2.258853912E0,5.966374874E-1,6.521945475E0
1.566220541E0,7.240432739E0,2.859471321E0,-2.662606239E-1,7.789180779E0
1.571246010E0,7.028409004E0,3.037631035E0,-2.780858278E-1,7.661792686E0
1.576271478E0,6.650074005E0,3.100080013E0,-4.154371619E-1,7.348916138E0
1.581296947E0,6.005482197E0,3.066687584E0,-4.443286061E-1,6.757796761E0
1.586322416E0,5.373024464E0,2.924133778E0,-3.088450432E-1,6.124976367E0
1.591347937E0,4.940101147E0,2.860037804E0,-1.299617887E-1,5.709755305E0
1.596373458E0,4.654422760E0,2.874930382E0,6.741714478E-2,5.471144396E0
1.601398978E0,4.430077076E0,2.887838364E0,2.489718199E-1,5.294070294E0
1.606424499E0,4.229098797E0,2.875247955E0,4.666079581E-1,5.135177740E0
1.611450020E0,4.157070637E0,2.861493111E0,7.004402280E-1,5.095095251E0
1.616475541E0,4.166105747E0,2.808480263E0,9.737119675E-1,5.117823119E0
1.621501062E0,4.289843082E0,2.697406769E0,1.189962149E0,5.205263381E0
1.626526583E0,4.504271984E0,2.494978428E0,1.415595055E0,5.340158501E0
1.631552103E0,4.761633396E0,2.220653534E0,1.635420561E0,5.502640741E0
1.636577624E0,5.066840649E0,1.965595245E0,1.843840957E0,5.739005863E0
1.641603145E0,5.295548916E0,1.720350742E0,2.054271698E0,5.934852754E0
1.646628666E0,5.395400047E0,1.561606884E0,2.241886616E0,6.047727948E0
1.651654187E0,5.362072945E0,1.518183231E0,2.382066011E0,6.060605999E0
1.656679708E0,5.239033699E0,1.618798733E0,2.483873606E0,6.019768395E0
1.661705228E0,5.045848370E0,1.858640194E0,2.513666630E0,5.935793887E0
1.666730749E0,4.835506916E0,2.204137802E0,2.466823578E0,5.858802706E0
1.671756270E0,4.665607452E0,2.655143261E0,2.362882376E0,5.865227341E0
1.676781791E0,4.689116955E0,3.244861603E0,2.211814404E0,6.116295251E0
1.681807312E0,4.589627266E0,3.838777065E0,2.095582247E0,6.339743903E0
1.686832833E0,4.452973366E0,4.393505096E0,1.856926680E0,6.525337962E0
1.691858353E0,4.302694798E0,4.918321133E0,1.582943082E0,6.723747027E0
1.696883874E0,4.147891998E0,5.393802643E0,1.331839561E0,6.933391060E0
1.701909395E0,4.045541286E0,5.814960480E0,1.075740814E0,7.165011373E0
1.706934916E0,4.004974842E0,6.176987648E0,8.295460939E-1,7.408316044E0
1.711960437E0,4.049514771E0,6.503621101E0,5.842536688E-1,7.683554494E0
1.716985958E0,4.126052856E0,6.770833969E0,3.739720285E-1,7.937780539E0
1.722011478E0,4.234041214E0,7.002429485E0,1.847631335E-1,8.185063293E0
1.727036999E0,4.348864079E0,7.169530392E0,3.126573563E-2,8.385449443E0
1.732062520E0,4.469980717E0,7.276854038E0,-5.756101012E-2,8.540295403E0
1.737088041E0,4.644710541E0,7.376970291E0,-1.102776229E-1,8.718095425E0
1.742113562E0,4.805528641E0,7.465001106E0,-9.827457368E-2,8.878569982E0
1.747139083E0,4.990401745E0,7.545725822E0,-6.465695798E-2,9.046892742E0
1.752164603E0,5.131697655E0,7.628560066E0,2.379851043E-2,9.194009782E0
1.757190124E0,5.205204487E0,7.684770584E0,1.569231600E-1,9.283020928E0
1.762215645E0,5.234967232E0,7.690593719E0,2.912049592E-1,9.307787815E0
1.767241166E0,5.216363907E0,7.684474945E0,4.406614602E-1,9.298160577E0
1.772266687E0,5.135221481E0,7.642625809E0,5.473877192E-1,9.223874578E0
1.777292208E0,5.011163712E0,7.603562355E0,6.542820930E-1,9.129841581E0
1.782317728E0,4.925870895E0,7.567444801E0,7.134845257E-1,9.057565074E0
1.787343249E0,4.827167511E0,7.505788803E0,7.679113150E-1,8.957013985E0
1.792368770E0,4.744103432E0,7.418773651E0,8.317410350E-1,8.845140644E0
1.797394291E0,4.634106636E0,7.364023209E0,8.856292963E-1,8.745748761E0
1.802419812E0,4.564412117E0,7.293769360E0,9.056305289E-1,8.651768380E0
1.807445333E0,4.563963890E0,7.232059956E0,9.347348213E-1,8.602684859E0
1.812470853E0,4.632777691E0,7.183698177E0,9.584902525E-1,8.601561033E0
1.817496374E0,4.713430405E0,7.110419750E0,9.529086351E-1,8.583852869E0
1.822521895E0,4.829533100E0,7.012119770E0,9.322358966E-1,8.565236564E0
1.827547416E0,4.980802059E0,6.903057098E0,9.060851336E-1,8.560465918E0
1.832572937E0,5.128743172E0,6.773576736E0,8.840403557E-1,8.542065071E0
1.837598458E0,5.263414383E0,6.661769867E0,8.469138145E-1,8.532289947E0
1.842623978E0,5.394016743E0,6.543503761E0,7.612472177E-1,8.514244266E0
1.847649499E0,5.510799408E0,6.380401611E0,6.512169838E-1,8.455916177E0
1.852675020E0,5.575427055E0,6.196342468E0,5.313757062E-1,8.352389297E0
1.857700541E0,5.597540379E0,5.967385769E0,4.210049212E-1,8.192642818E0
1.862726062E0,5.572508335E0,5.813131332E0,3.680978119E-1,8.061069472E0
1.867751583E0,5.447987556E0,5.671330452E0,4.155428410E-1,7.875102118E0
1.872777103E0,5.434939861E0,5.456016541E0,2.480165064E-1,7.705076247E0
1.877802624E0,5.461459160E0,5.286791801E0,9.602767229E-2,7.601771177E0
1.882828145E0,5.446383476E0,5.087120056E0,3.644186258E-2,7.452731811E0
1.887853666E0,5.442427635E0,4.866577625E0,2.495110035E-3,7.300931624E0
1.892879187E0,5.507082939E0,4.658665180E0,-8.907318115E-4,7.213260328E0
1.897904708E0,5.592462063E0,4.434614182E0,-2.322316170E-3,7.137327249E0
1.902930228E0,5.693841457E0,4.199196815E0,3.085911274E-3,7.074821126E0
1.907955749E0,5.768100262E0,3.947535038E0,2.980405092E-2,6.989628158E0
1.912981270E0,5.844064713E0,3.689173222E0,6.344980001E-2,6.911375934E0
1.918006791E0,5.883534431E0,3.443180561E0,1.231098771E-1,6.818110136E0
1.923032312E0,5.939173698E0,3.214230537E0,1.370992661E-1,6.754543536E0
1.928057833E0,5.967806339E0,3.021258354E0,1.868615150E-1,6.691609057E0
1.933083353E0,5.955298424E0,2.802021027E0,2.292644382E-1,6.585549585E0
1.938108874E0,5.978355408E0,2.633022785E0,2.595512867E-1,6.537653190E0
1.943134395E0,6.003472805E0,2.471041203E0,3.352130651E-1,6.500776734E0
1.948159916E0,6.040194035E0,2.325473309E0,3.700948358E-1,6.482957679E0
1.953185437E0,6.102933884E0,2.186636448E0,4.312917590E-1,6.497168116E0
1.958210958E0,6.115155220E0,2.001750469E0,4.708418250E-1,6.451652527E0
1.963236478E0,6.081862450E0,1.789913654E0,4.598581791E-1,6.356438570E0
1.968261999E0,6.041655064E0,1.555958748E0,4.413907528E-1,6.254392803E0
1.973287520E0,6.004391193E0,1.295151234E0,3.675407171E-1,6.153471906E0
1.978313041E0,5.965651989E0,9.980492592E-1,2.956174612E-1,6.055782002E0
1.983338562E0,5.935436726E0,6.457219124E-1,2.157918811E-1,5.974356204E0
1.988364083E0,5.832973957E0,2.958965302E-1,1.422032118E-1,5.842205208E0
1.993389603E0,5.697041512E0,-6.078386307E-2,9.838163853E-2,5.698215125E0
1.998415124E0,5.528153419E0,-3.809785843E-1,8.400416374E-2,5.541902346E0
2.003440645E0,5.364976406E0,-6.405892372E-1,8.909958601E-2,5.403819496E0
2.008466166E0,5.212698460E0,-8.632950783E-1,1.036381125E-1,5.284718013E0
2.013491687E0,5.124141216E0,-1.082435131E0,1.129194796E-1,5.238438682E0
2.018517208E0,5.094677448E0,-1.326478481E0,8.817499876E-2,5.265269062E0
2.023542728E0,5.172169209E0,-1.638298988E0,8.675056696E-2,5.426129703E0
2.028568249E0,5.275218964E0,-1.993836880E0,1.323308349E-1,5.640995663E0
2.033593770E0,5.427818298E0,-2.388106823E0,1.528837979E-1,5.931916986E0
2.038619291E0,5.572480202E0,-2.797144890E0,1.960611939E-1,6.238188449E0
2.043644812E0,5.690139294E0,-3.091727257E0,3.425126672E-1,6.484888398E0
2.048670333E0,5.723676682E0,-3.424762726E0,4.763613641E-1,6.687031825E0
2.053695853E0,5.859930992E0,-3.776765347E0,4.248661101E-1,6.984501337E0
2.058721374E0,5.902763367E0,-4.137985229E0,3.121701181E-1,7.215468613E0
2.063746895E0,5.842882633E0,-4.417246342E0,1.622208953E-1,7.326503827E0
2.068772416E0,5.718779564E0,-4.647864819E0,-7.614791393E-4,7.369334275E0
2.073797937E0,5.654961586E0,-4.757880211E0,-1.520951688E-1,7.391829786E0
2.078823458E0,5.622563362E0,-4.776063919E0,-2.956177890E-1,7.383183270E0
2.083848978E0,5.525861740E0,-4.740635395E0,-4.063985050E-1,7.292045780E0
2.088874499E0,5.412619591E0,-4.651634693E0,-5.215968490E-1,7.155852110E0
2.093900020E0,5.311388969E0,-4.547411442E0,-6.307512522E-1,7.020516416E0
2.098925541E0,5.231534004E0,-4.442393780E0,-7.664117813E-1,6.905881374E0
2.103951062E0,5.225411415E0,-4.351078033E0,-9.086438417E-1,6.860206858E0
2.108976583E0,5.263722420E0,-4.259693146E0,-9.943040609E-1,6.844004674E0
2.114002103E0,5.331549644E0,-4.183288097E0,-1.061128736E0,6.859396119E0
2.119027624E0,5.418848038E0,-4.127314568E0,-1.075282335E0,6.896004038E0
2.124053145E0,5.491641998E0,-4.092581272E0,-1.022209167E0,6.924757388E0
2.129078666E0,5.511324883E0,-4.070278645E0,-9.117400646E-1,6.911811640E0
2.134104187E0,5.468140602E0,-4.046764851E0,-7.397390008E-1,6.842812374E0
2.139129708E0,5.371588707E0,-4.046560287E0,-5.453573465E-1,6.747297980E0
2.144155228E0,5.245623589E0,-4.084421158E0,-3.531857133E-1,6.657612423E0
2.149180749E0,5.080771446E0,-4.155869484E0,-1.451129913E-1,6.565557664E0
2.154206270E0,4.877208710E0,-4.270652294E0,6.822054088E-2,6.483077190E0
2.159231791E0,4.635140419E0,-4.419324398E0,2.380497158E-1,6.408714575E0
2.164257312E0,4.340460777E0,-4.578011513E0,3.636614680E-1,6.319021984E0
2.169282833E0,3.988622665E0,-4.775519371E0,4.828017950E-1,6.240816742E0
2.174308353E0,3.579962730E0,-4.963899136E0,5.661494136E-1,6.146295871E0
2.179333874E0,3.119611740E0,-5.147808075E0,6.084551215E-1,6.049968845E0
2.184359395E0,2.622373581E0,-5.341152668E0,6.137928963E-1,5.981763681E0
2.189384916E0,2.093543053E0,-5.533638954E0,5.625044107E-1,5.943104727E0
2.194410437E0,1.562253952E0,-5.748488426E0,4.827451110E-1,5.976520680E0
2.199435958E0,1.028964043E0,-5.946439743E0,3.788502514E-1,6.046688361E0
2.204461478E0,5.227956772E-1,-6.145539761E0,2.507467866E-1,6.172831459E0
2.209486999E0,2.972221375E-2,-6.311226845E0,1.129846498E-1,6.312308075E0
2.214512520E0,-4.070491791E-1,-6.428450584E0,-3.402305022E-2,6.441414714E0
2.219538041E0,-7.921972275E-1,-6.529884338E0,-1.658276469E-1,6.579852941E0
2.224563562E0,-1.120934486E0,-6.590973854E0,-2.675298452E-1,6.690964257E0
2.229589083E0,-1.388577461E0,-6.611361027E0,-3.433660269E-1,6.764328660E0
2.234614603E0,-1.576169014E0,-6.610032082E0,-4.262481928E-1,6.808709158E0
2.239640124E0,-1.674386978E0,-6.625247478E0,-4.771736264E-1,6.850194930E0
2.244665645E0,-1.716979980E0,-6.661859512E0,-5.195793509E-1,6.899156116E0
2.249691166E0,-1.742454529E0,-6.739179611E0,-5.336990356E-1,6.981226560E0
2.254716687E0,-1.765336037E0,-6.857324600E0,-5.525313020E-1,7.102436401E0
2.259742208E0,-1.847967148E0,-6.978317738E0,-5.853918791E-1,7.242553740E0
2.264767728E0,-1.947372437E0,-7.112008095E0,-6.224424243E-1,7.400023859E0
2.269793249E0,-2.068422794E0,-7.268082142E0,-6.249967813E-1,7.582480587E0
2.274818770E0,-2.249443531E0,-7.413067341E0,-5.974313021E-1,7.769844771E0
2.279844291E0,-2.485648155E0,-7.541970253E0,-5.534798503E-1,7.960282783E0
2.284869812E0,-2.757923126E0,-7.630676746E0,-4.781464338E-1,8.127852828E0
2.289895333E0,-3.028040409E0,-7.697829723E0,-3.945440948E-1,8.281381299E0
2.294920853E0,-3.324802876E0,-7.728571415E0,-3.066079319E-1,8.418974920E0
2.299946374E0,-3.624382973E0,-7.765237808E0,-2.420023680E-1,8.572842895E0
2.304971895E0,-3.893431664E0,-7.783039093E0,-1.998001933E-1,8.704850818E0
2.309997416E0,-4.098665714E0,-7.819378853E0,-1.983035505E-1,8.830689134E0
2.315022937E0,-4.235541821E0,-7.859208107E0,-2.320416868E-1,8.930890769E0
2.320048458E0,-4.285165310E0,-7.916235447E0,-3.055543602E-1,9.006819020E0
2.325073978E0,-4.243005276E0,-7.994786739E0,-4.279039204E-1,9.061060122E0
2.330099499E0,-4.051893711E0,-8.108951569E0,-6.133747101E-1,9.085657198E0
2.335125020E0,-3.654702187E0,-8.320885658E0,-8.713182211E-1,9.129796364E0
2.340150541E0,-3.066057682E0,-8.621470451E0,-1.230130792E0,9.232750631E0
2.345176062E0,-2.348329067E0,-9.025575638E0,-1.656035662E0,9.471964903E0
2.350201583E0,-1.597228050E0,-9.509878159E0,-2.053429365E0,9.859284568E0
2.355227103E0,-8.939495087E-1,-9.994005203E0,-2.327549934E0,1.030032885E1
2.360252624E0,-2.574100494E-1,-1.044067287E1,-2.489522219E0,1.073646268E1
2.365278145E0,2.121562958E-1,-1.075537491E1,-2.584696293E0,1.106362303E1
2.370303666E0,3.763303757E-1,-1.089159012E1,-2.534023285E0,1.118881736E1
2.375329187E0,1.158580780E-1,-1.072584152E1,-2.125384569E0,1.093500613E1
2.380354708E0,-3.632373810E-1,-1.055519390E1,-1.935224891E0,1.073727875E1
2.385380228E0,-9.317607880E-1,-1.022165203E1,-1.692089319E0,1.040257250E1
2.390405749E0,-1.723766327E0,-9.839931488E0,-1.411778450E0,1.008904061E1
2.395431270E0,-2.634066582E0,-9.366445541E0,-9.807211757E-1,9.779080880E0
2.400456791E0,-3.490632057E0,-8.853532791E0,-3.854827881E-1,9.524607710E0
2.405482312E0,-4.265107632E0,-8.329194069E0,2.778459787E-1,9.361827564E0
2.410507833E0,-4.953004360E0,-7.835934162E0,9.377843142E-1,9.317379235E0
2.415533353E0,-5.559333801E0,-7.406777859E0,1.547167778E0,9.389370516E0
2.420558874E0,-6.098639965E0,-7.132132530E0,2.140187025E0,9.625025940E0
2.425584395E0,-6.590219498E0,-6.977705956E0,2.660205841E0,9.959722313E0
2.430609916E0,-7.000665188E0,-6.899852276E0,3.108347654E0,1.030917551E1
2.435635437E0,-7.349147797E0,-6.864758015E0,3.466764927E0,1.063735564E1
2.440660958E0,-7.659570694E0,-6.857825279E0,3.837197065E0,1.097373556E1
2.445686478E0,-7.951048374E0,-6.859623909E0,4.163142204E0,1.129625440E1
2.450711999E0,-8.209211349E0,-6.860143185E0,4.454961777E0,1.158876179E1
2.455737520E0,-8.414955139E0,-6.882705212E0,4.703646660E0,1.184514217E1
2.460763041E0,-8.592283249E0,-6.916821003E0,4.938220501E0,1.208535336E1
2.465788562E0,-8.765190125E0,-6.980639935E0,5.063059807E0,1.229603458E1
2.470814083E0,-8.928915977E0,-7.001229763E0,5.126236916E0,1.245074551E1
2.475839603E0,-9.016488075E0,-7.006093025E0,5.065807819E0,1.249178953E1
2.480865124E0,-8.936983109E0,-7.018134594E0,4.877608299E0,1.236587817E1
2.485890645E0,-8.723838806E0,-7.026825905E0,4.533668995E0,1.208452731E1
2.490916166E0,-8.386415482E0,-7.012565613E0,4.039570332E0,1.165444849E1
2.495941687E0,-7.890948772E0,-6.980032921E0,3.400721550E0,1.107035858E1
2.500967208E0,-7.237174034E0,-6.920354843E0,2.655525684E0,1.035952778E1
2.505992728E0,-6.429625511E0,-6.825011730E0,1.894645929E0,9.566114808E0
2.511018249E0,-5.535045147E0,-6.729289055E0,1.074504733E0,8.779215021E0
2.516043770E0,-4.581882000E0,-6.625605583E0,2.138327360E-1,8.058412775E0
2.521069291E0,-3.641651630E0,-6.516109943E0,-6.636645794E-1,7.494115429E0
2.526094812E0,-2.790683270E0,-6.431832314E0,-1.505587578E0,7.170995327E0
2.531120333E0,-2.014472008E0,-6.331781864E0,-2.269175529E0,7.021304482E0
2.536145853E0,-1.279431343E0,-6.189071655E0,-2.916093349E0,6.960255235E0
2.541171374E0,-4.899530411E-1,-5.900080204E0,-3.288603544E0,6.772437794E0
2.546196895E0,1.145782471E-1,-5.791213989E0,-3.530711889E0,6.783598904E0
2.551222416E0,7.495002747E-1,-5.690639973E0,-3.824048519E0,6.896990723E0
2.556247937E0,1.208861351E0,-5.651301384E0,-3.982517242E0,7.018475382E0
2.561273458E0,1.592926025E0,-5.668297768E0,-3.954713106E0,7.092726461E0
2.566298978E0,1.896595955E0,-5.731606960E0,-3.766052723E0,7.115584844E0
2.571324499E0,2.172182083E0,-5.768974781E0,-3.465770245E0,7.071846182E0
2.576350020E0,2.452682495E0,-5.612861633E0,-2.988501549E0,6.815497681E0
2.581375541E0,2.670614243E0,-5.354416370E0,-2.369169712E0,6.435442504E0
2.586401062E0,2.729872704E0,-5.055978298E0,-1.738259554E0,6.003054873E0
2.591426583E0,2.658966064E0,-4.698366165E0,-1.153905153E0,5.520529165E0
2.596452103E0,2.543848038E0,-4.310203552E0,-7.600159645E-1,5.062276342E0
2.601477624E0,2.456177711E0,-3.986984253E0,-3.938112259E-1,4.699355239E0
2.606503145E0,2.256985664E0,-3.738113642E0,-3.658127785E-2,4.366785554E0
2.611528666E0,1.927341461E0,-3.515383005E0,2.593634129E-1,4.017440997E0
2.616554187E0,1.568021774E0,-3.260975599E0,5.615072250E-1,3.661686020E0
2.621579708E0,1.227102280E0,-2.974490881E0,8.510992527E-1,3.328324795E0
2.626605228E0,9.335174561E-1,-2.669682264E0,1.118796110E0,3.041440936E0
2.631630749E0,5.965986252E-1,-2.384136677E0,1.378887296E0,2.818043255E0
2.636656270E0,2.550144196E-1,-2.145627737E0,1.602543712E0,2.690148154E0
2.641681791E0,-4.284763336E-2,-1.934107780E0,1.751922011E0,2.609950107E0
2.646707312E0,-1.958227158E-1,-1.720062971E0,1.828271151E0,2.517844030E0
2.651732833E0,-1.697330475E-1,-1.507800817E0,1.809596062E0,2.361548331E0
2.656758353E0,-1.123065948E-1,-1.287628651E0,1.707478285E0,2.141514045E0
2.661783874E0,8.686542511E-2,-9.496231079E-1,1.580535889E0,1.845920731E0
2.666809395E0,4.370203018E-1,-6.329205036E-1,1.260569334E0,1.476688916E0
2.671834916E0,9.857540131E-1,-2.854092121E-1,6.473839283E-1,1.213373538E0
2.676860437E0,1.474355698E0,-1.662878990E-1,-9.799361229E-3,1.483735966E0
2.681885958E0,1.879165649E0,-3.813676834E-1,-4.314507246E-1,1.965414607E0
2.686911478E0,2.454102516E0,-7.209491730E-1,-5.086660385E-1,2.607897239E0
2.691936999E0,3.031624794E0,-1.018346310E0,-1.961802244E-1,3.204101243E0
2.696962520E0,3.510871887E0,-1.135246277E0,2.610343695E-1,3.699073460E0
2.701988041E0,3.838897705E0,-1.038239002E0,6.933059692E-1,4.036799349E0
2.707013562E0,3.967907906E0,-7.846174240E-1,9.701532125E-1,4.159460891E0
2.712039083E0,3.802797318E0,-4.504389763E-1,1.062897682E0,3.974155784E0
2.717064603E0,3.411194801E0,-9.265804291E-2,1.009994626E0,3.558781341E0
2.722090124E0,3.052019119E0,2.940812111E-1,9.359037280E-1,3.205810389E0
2.727115645E0,2.907057762E0,6.715974808E-1,9.312838316E-1,3.125590758E0
2.732141166E0,3.047723770E0,1.077968597E0,9.768335223E-1,3.377105300E0
2.737166687E0,3.239020348E0,1.474432945E0,1.115185738E0,3.729456335E0
2.742192208E0,3.422923565E0,1.841162682E0,1.211579919E0,4.071143777E0
2.747217728E0,3.613155365E0,2.139156103E0,1.275097847E0,4.388251935E0
2.752243249E0,3.842599869E0,2.410883904E0,1.338832259E0,4.729736437E0
2.757268770E0,4.149075508E0,2.603343964E0,1.378863454E0,5.088564806E0
2.762294291E0,4.551152706E0,2.768795967E0,1.423800349E0,5.514202526E0
2.767319812E0,4.971758842E0,2.949915648E0,1.435440302E0,5.956582676E0
2.772345333E0,5.357805729E0,3.189406633E0,1.427923322E0,6.396668032E0
2.777370853E0,5.632270813E0,3.505950928E0,1.357903242E0,6.771858507E0
2.782396374E0,5.799752235E0,3.846689463E0,1.196811914E0,7.061621951E0
2.787421895E0,5.903403282E0,4.178300858E0,1.011842012E0,7.302889334E0
2.792447416E0,5.910007954E0,4.529886246E0,8.605035543E-1,7.495900865E0
2.797472937E0,5.925168514E0,4.930587292E0,7.379397154E-1,7.743569460E0
2.802498458E0,6.006583691E0,5.356833458E0,6.015917659E-1,8.070726422E0
2.807523978E0,6.183134556E0,5.804049492E0,4.716299176E-1,8.493560986E0
2.812549499E0,6.416381359E0,6.329495907E0,3.538876772E-1,9.019850590E0
2.817575020E0,6.724873066E0,6.937389851E0,2.441729307E-1,9.664932287E0
2.822600541E0,7.102817059E0,7.574213028E0,2.099257708E-1,1.038570084E1
2.827626062E0,7.539210796E0,8.191020012E0,3.992112279E-1,1.113965340E1
2.832651583E0,8.089799881E0,8.758036613E0,8.442464471E-1,1.195243990E1
2.837677103E0,8.652473450E0,9.140460968E0,1.476256132E0,1.267251576E1
2.842702624E0,9.058510780E0,9.256479263E0,2.102249146E0,1.312091755E1
2.847728145E0,9.302259445E0,9.139357567E0,2.720944881E0,1.332154002E1
2.852753666E0,9.373758316E0,8.803600311E0,3.273406982E0,1.326973687E1
2.857779187E0,9.263901711E0,8.297887802E0,3.691019535E0,1.297298894E1
2.862804708E0,9.031116486E0,7.714292526E0,4.067898750E0,1.255464752E1
2.867830228E0,8.662464142E0,7.121055603E0,4.317195892E0,1.201606834E1
2.872855749E0,8.197799683E0,6.581548691E0,4.520339012E0,1.144352077E1
2.877881270E0,7.782225609E0,6.072986603E0,4.706305504E0,1.093588191E1
2.882906791E0,7.661031246E0,5.347699165E0,4.330846310E0,1.029784035E1
2.887932312E0,7.830297470E0,4.583637238E0,3.861186266E0,9.860631226E0
2.892957833E0,7.917334557E0,3.939158440E0,3.886365891E0,9.659451099E0
2.897983353E0,8.157467842E0,3.256971836E0,3.784735680E0,9.564328063E0
2.903008874E0,8.531817436E0,2.556551933E0,3.528543234E0,9.580108763E0
2.908034395E0,8.944632530E0,1.818778038E0,3.161723614E0,9.659756770E0
2.913059916E0,9.414918900E0,1.110548973E0,2.785095692E0,9.880828655E0
2.918085437E0,9.980335236E0,6.034998894E-1,2.527392626E0,1.031305081E1
2.923110958E0,1.055330467E1,3.295574188E-1,2.339678526E0,1.081457087E1
2.928136478E0,1.089768600E1,2.388486862E-1,2.144043207E0,1.110916425E1
2.933161999E0,1.103069496E1,3.049983978E-1,1.877500415E0,1.119349200E1
2.938187520E0,1.099804497E1,5.013947487E-1,1.597411752E0,1.112475232E1
2.943213041E0,1.071174622E1,7.920160294E-1,1.375869513E0,1.082874939E1
2.948238562E0,1.010832024E1,1.117310047E0,1.227847099E0,1.024373605E1
2.953264083E0,9.187333107E0,1.456659794E0,1.192081571E0,9.378166444E0
2.958289603E0,7.987264633E0,1.766008854E0,1.287802696E0,8.280918994E0
2.963315124E0,6.275375843E0,1.773082733E0,1.285230875E0,6.646501542E0
2.968340645E0,4.714688301E0,1.503737926E0,7.118868828E-1,4.999629632E0
2.973366166E0,3.388687134E0,9.839816093E-1,-2.102912664E-1,3.534917639E0
2.978391687E0,2.194020271E0,2.971897125E-1,-1.140162230E0,2.490384827E0
2.983417208E0,1.103927135E0,-3.104643822E-1,-1.822590351E0,2.153341320E0
2.988442728E0,-1.570053101E-1,-8.033351898E-1,-2.195039749E0,2.342690247E0
2.993468249E0,-1.739178181E0,-1.260164261E0,-2.407339573E0,3.226149179E0
2.998493770E0,-3.438685417E0,-1.725667000E0,-2.595664024E0,4.641115784E0
3.003519291E0,-4.951824188E0,-2.048421860E0,-2.742123365E0,6.019620873E0
3.008544760E0,-6.157743931E0,-2.254543304E0,-2.803585291E0,7.131680469E0
3.013570228E0,-7.189792156E0,-2.370471001E0,-2.831779957E0,8.082773147E0
3.018595697E0,-8.066707611E0,-2.432487488E0,-2.888073444E0,8.906724161E0
3.023621166E0,-8.367754936E0,-2.439192295E0,-3.215249538E0,9.290145926E0
3.028646635E0,-8.190443993E0,-2.481737137E0,-3.572206974E0,9.273783191E0
3.033672103E0,-8.645166397E0,-2.315834522E0,-3.323325634E0,9.547066819E0
3.038697572E0,-8.287730217E0,-2.090381622E0,-3.429904461E0,9.209799785E0
3.043723041E0,-8.004528046E0,-1.686282635E0,-3.198140621E0,8.783172649E0
3.048748510E0,-6.821282387E0,-1.315705776E0,-3.359429359E0,7.716653466E0
3.053773978E0,-5.291488171E0,-1.081875324E0,-3.524275064E0,6.449094201E0
3.058799447E0,-3.834114075E0,-9.209027290E-1,-3.476341724E0,5.256752263E0
3.063824916E0,-2.546644688E0,-7.734212875E-1,-3.268476725E0,4.215034965E0
3.068850385E0,-1.530953884E0,-6.613187790E-1,-2.982660294E0,3.417224715E0
3.073875853E0,-7.209124565E-1,-5.292592049E-1,-2.686473370E0,2.831425302E0
3.078901322E0,-6.467533112E-2,-4.507937431E-1,-2.313146353E0,2.357550412E0
3.083926791E0,4.613351822E-1,-4.366569519E-1,-1.825017810E0,1.932405095E0
3.088952260E0,7.185449600E-1,-5.354886055E-1,-1.261746645E0,1.547597978E0
3.093977728E0,7.794628143E-1,-7.665591240E-1,-7.636034489E-1,1.333516178E0
3.099003197E0,7.693758011E-1,-1.076987743E0,-3.989295959E-1,1.382384370E0
3.104028666E0,7.274074554E-1,-1.442450047E0,-1.640512943E-1,1.623790802E0
3.109054135E0,6.017770767E-1,-1.857440948E0,-1.025011539E-1,1.955180046E0
3.114079603E0,2.978706360E-1,-2.268104553E0,-1.521720886E-1,2.292636370E0
3.119105072E0,-1.401462555E-1,-2.601334572E0,-2.555775642E-1,2.617613879E0
3.124130541E0,-5.724735260E-1,-2.860392094E0,-4.078893661E-1,2.945495307E0
3.129156010E0,-9.984192848E-1,-3.048608780E0,-5.990750790E-1,3.263395090E0
3.134181478E0,-1.350426674E0,-3.183590651E0,-7.903394699E-1,3.547328306E0
3.139206947E0,-1.580516815E0,-3.221093416E0,-9.377200603E-1,3.708476117E0
3.144232468E0,-1.698268890E0,-3.231811285E0,-1.006883621E0,3.787154081E0
3.149257989E0,-1.708770752E0,-3.253626823E0,-1.006815910E0,3.810467592E0
3.154283510E0,-1.626450539E0,-3.219279289E0,-9.808814526E-1,3.737810712E0
3.159309030E0,-1.484980583E0,-3.176839352E0,-9.438619614E-1,3.631576930E0
3.164334551E0,-1.356217384E0,-3.159929752E0,-9.487895966E-1,3.567167410E0
3.169360072E0,-1.292887211E0,-3.125604391E0,-9.574148655E-1,3.515338302E0
3.174385593E0,-1.242239475E0,-3.049642801E0,-9.603066444E-1,3.430112094E0
3.179411114E0,-1.137066364E0,-2.960269928E0,-9.292545319E-1,3.304486639E0
3.184436635E0,-1.063307285E0,-2.861953020E0,-8.840649128E-1,3.178516673E0
3.189462155E0,-1.001476765E0,-2.754671574E0,-8.069117069E-1,3.040111460E0
3.194487676E0,-9.037313461E-1,-2.672420263E0,-6.843209267E-1,2.902904673E0
3.199513197E0,-7.560176849E-1,-2.563216209E0,-4.542863369E-1,2.710722441E0
3.204538718E0,-5.683765411E-1,-2.447024584E0,-1.357376575E-1,2.515831059E0
3.209564239E0,-4.272174835E-1,-2.334273577E0,2.472224236E-1,2.385889108E0
3.214589760E0,-2.991218567E-1,-2.197036028E0,5.219492912E-1,2.277909624E0
3.219615280E0,-1.747093201E-1,-2.093451262E0,6.598551273E-1,2.201924231E0
3.224640801E0,-1.355381012E-1,-2.028635740E0,7.764165401E-1,2.176363064E0
3.229666322E0,-2.296943665E-1,-1.993058205E0,9.492678642E-1,2.219493182E0
3.234691843E0,-3.137874603E-1,-1.934038401E0,1.250876188E0,2.324577025E0
3.239717364E0,-2.730903625E-1,-1.923563719E0,1.609303236E0,2.522802535E0
3.244742885E0,-2.556152344E-1,-1.918910503E0,2.003972292E0,2.786298910E0
3.249768405E0,-2.369947433E-1,-1.925441742E0,2.222903013E0,2.950388147E0
3.254793926E0,-5.937767029E-2,-2.034458160E0,2.208713055E0,3.003491147E0
3.259819447E0,-2.060279846E-1,-2.183937311E0,2.330092430E0,3.200212562E0
3.264844968E0,-5.328197479E-1,-2.354056120E0,2.309532642E0,3.340571527E0
3.269870489E0,-5.704259872E-1,-2.591616392E0,1.812211990E0,3.213405301E0
3.274896010E0,-4.714679718E-1,-2.876611948E0,9.330682755E-1,3.060685341E0
3.279921530E0,-4.269428253E-1,-3.184338808E0,-1.414327621E-1,3.215944192E0
3.284947051E0,-4.702119827E-1,-3.465546846E0,-1.285801411E0,3.726177602E0
3.289972572E0,-5.058183670E-1,-3.628007889E0,-2.450518370E0,4.407191140E0
3.294998093E0,-3.670616150E-1,-3.618324280E0,-3.695659399E0,5.185065401E0
3.300023614E0,-6.381368637E-1,-3.627311230E0,-4.087144852E0,5.501759578E0
3.305049135E0,-7.975988388E-1,-3.482165337E0,-4.347301960E0,5.626781822E0
3.310074655E0,-1.099236965E0,-3.392850399E0,-4.552334309E0,5.783035828E0
3.315100176E0,-1.461605072E0,-3.305931091E0,-4.764313698E0,5.980313936E0
3.320125697E0,-1.650534630E0,-3.120790482E0,-4.810668945E0,5.967087522E0
3.325151218E0,-1.590182304E0,-2.837801933E0,-4.815279007E0,5.811085225E0
3.330176739E0,-1.420715332E0,-2.544149876E0,-4.675938129E0,5.509585105E0
3.335202260E0,-1.392550468E0,-2.202806950E0,-4.227667332E0,4.966359465E0
3.340227780E0,-1.396867752E0,-1.829174995E0,-3.540518045E0,4.222841308E0
3.345253301E0,-1.372241974E0,-1.400001049E0,-2.618487597E0,3.271013339E0
3.350278822E0,-1.113099575E0,-9.973394871E-1,-1.519671917E0,2.131450082E0
3.355304343E0,-6.384325027E-1,-7.420597076E-1,-1.549706459E-1,9.910926149E-1
3.360329864E0,1.336822510E-1,-6.506633759E-1,1.314633369E0,1.472920456E0
3.365355385E0,9.029264450E-1,-7.450824976E-1,2.564561844E0,2.819113610E0
3.370380905E0,1.791110992E0,-8.801445961E-1,3.283038139E0,3.842014123E0
3.375406426E0,2.579990387E0,-9.299274683E-1,3.484673500E0,4.434418214E0
3.380431947E0,2.776706696E0,-9.112927914E-1,3.327872276E0,4.428915049E0
3.385457468E0,2.193573952E0,-8.248478174E-1,2.898323059E0,3.727253299E0
3.390482989E0,1.064859390E0,-6.884593964E-1,2.338091373E0,2.659806973E0
3.395508510E0,-2.163085938E-1,-6.235654354E-1,1.868338108E0,1.981492000E0
3.400534030E0,-1.391296387E0,-6.885417700E-1,1.298993111E0,2.024148835E0
3.405559551E0,-2.364987373E0,-8.793466091E-1,6.229467392E-1,2.598937932E0
3.410585072E0,-3.199863434E0,-1.177790046E0,8.556985855E-2,3.410811866E0
3.415610593E0,-3.795276165E0,-1.537643313E0,-3.754329681E-1,4.112106278E0
3.420636114E0,-4.126800537E0,-1.827369690E0,-8.329946995E-1,4.589514443E0
3.425661635E0,-4.222394943E0,-1.978497148E0,-1.384619951E0,4.864179523E0
3.430687155E0,-4.138914108E0,-1.980547905E0,-1.964761019E0,4.991339085E0
3.435712676E0,-3.919499874E0,-1.742387176E0,-2.774556160E0,5.108478660E0
3.440738197E0,-3.488510132E0,-1.192572355E0,-3.635568142E0,5.177768581E0
3.445763718E0,-2.967051983E0,-4.808864594E-1,-4.378316879E0,5.310772821E0
3.450789239E0,-2.409918785E0,2.381898165E-1,-5.171586037E0,5.710494293E0
3.455814760E0,-1.489112854E0,9.673357010E-1,-5.672662258E0,5.944097286E0
3.460840280E0,-4.215764999E-1,1.584028959E0,-5.813283920E0,6.039962287E0
3.465865801E0,2.655696869E-2,2.023792744E0,-5.750777245E0,6.096546667E0
3.470891322E0,-2.210321426E-1,2.165977478E0,-5.594371319E0,6.003107870E0
3.475916843E0,-1.070194244E-1,2.221437454E0,-5.065437794E0,5.532169336E0
3.480942364E0,1.348794937E0,2.550776958E0,-3.835216522E0,4.799437118E0
3.485967885E0,2.184327126E0,2.633340359E0,-2.522740364E0,4.250880542E0
3.490993405E0,1.989894867E0,2.471984863E0,-1.081906080E0,3.352746861E0
3.496018926E0,1.604409218E0,2.153114319E0,-6.348991394E-2,2.685900441E0
3.501044447E0,1.162612915E0,1.668156385E0,6.620769501E-1,2.138401367E0
3.506069968E0,5.652627945E-1,1.363245726E0,1.055948496E0,1.814659241E0
3.511095489E0,-8.543205261E-2,1.244861245E0,1.288603783E0,1.793732941E0
3.516121010E0,-6.350507736E-1,1.272015452E0,1.329864740E0,1.946754485E0
3.521146530E0,-1.235794544E0,1.518720627E0,1.049757481E0,2.221641570E0
3.526172051E0,-1.705459595E0,1.843664765E0,7.501013279E-1,2.621134144E0
3.531197572E0,-1.841789246E0,2.272691011E0,2.983386517E-1,2.940462210E0
3.536223093E0,-1.079833984E0,2.872950077E0,2.557578087E-1,3.079820715E0
3.541248614E0,-6.307010651E-1,3.704822540E0,-2.400913239E-1,3.765785142E0
3.546274135E0,-5.077180862E-1,4.288167000E0,-1.316409826E0,4.514320403E0
3.551299655E0,2.929267883E-1,4.535399437E0,-1.062920570E0,4.667489078E0
3.556325176E0,3.970308304E-1,4.416050434E0,-1.110874414E0,4.570905477E0
3.561350697E0,1.355648041E-1,4.135654449E0,-1.207706928E0,4.310518712E0
3.566376218E0,-1.464490891E-1,4.005583286E0,-1.201931238E0,4.184588809E0
3.571401739E0,-4.345817566E-1,4.021524429E0,-1.228564024E0,4.227397497E0
3.576427260E0,-7.863082886E-1,4.055064678E0,-1.067902088E0,4.266408928E0
3.581452780E0,-1.034307480E0,3.930791855E0,-7.918143272E-1,4.141000664E0
3.586478301E0,-6.289062500E-1,3.946217537E0,-5.486729145E-1,4.033509376E0
3.591503822E0,-6.354045868E-2,4.110432148E0,-4.158830643E-1,4.131906165E0
3.596529343E0,1.498966217E-1,4.236184120E0,-3.945356607E-1,4.257156714E0
3.601554864E0,3.370466232E-1,4.323431969E0,-5.857408047E-1,4.375929239E0
3.606580385E0,4.882059097E-1,4.472638607E0,-8.072890043E-1,4.571056405E0
3.611605905E0,2.637748718E-1,4.482865334E0,-8.247426748E-1,4.565726586E0
3.616631426E0,-1.542234421E-1,4.307153702E0,-9.148642421E-1,4.405943084E0
3.621656947E0,-4.983129501E-1,4.127863884E0,-7.110877037E-1,4.218201247E0
3.626682468E0,-7.836513519E-1,4.255629063E0,-1.909937859E-1,4.331393169E0
3.631707989E0,-1.087518692E0,4.488919258E0,6.504440308E-2,4.619234112E0
3.636733510E0,-1.257121086E0,4.771038055E0,-1.229189634E-1,4.935409469E0
3.641759030E0,-1.402383804E0,4.869416714E0,-6.788933277E-1,5.112611428E0
3.646784551E0,-1.665805340E0,4.638430595E0,-1.889491916E0,5.278269178E0
3.651810072E0,-1.711096287E0,4.080305099E0,-2.899804354E0,5.290142295E0
3.656835593E0,-1.858869076E0,3.319948912E0,-2.495500565E0,4.550272309E0
3.661861114E0,-2.282236099E0,2.834993362E0,-9.980189800E-1,3.773835034E0
3.666886635E0,-3.010612011E0,2.609889507E0,-3.905582428E-2,3.984574416E0
3.671912155E0,-3.681150913E0,2.410524607E0,2.097682953E-1,4.405167836E0
3.676937676E0,-4.050787926E0,2.119272232E0,5.083570480E-1,4.599850487E0
3.681963197E0,-4.167709351E0,1.293058991E0,1.526097536E0,4.622853716E0
3.686988718E0,-4.122569084E0,9.505555034E-2,2.547306061E0,4.846996965E0
3.692014239E0,-4.623307705E0,-1.082539916E0,3.605500698E0,5.962088735E0
3.697039760E0,-6.004526138E0,-1.875108719E0,4.684333801E0,7.843044690E0
3.702065280E0,-6.945911407E0,-2.669066429E0,4.721335411E0,8.812525685E0
3.707090801E0,-7.535562038E0,-3.320270538E0,4.203458309E0,9.245428786E0
3.712116322E0,-7.822747231E0,-3.772235155E0,3.118238211E0,9.227596753E0
3.717141843E0,-8.146588326E0,-4.182812214E0,1.499455929E0,9.279611384E0
3.722167364E0,-8.371148109E0,-4.669978619E0,-3.935527802E-2,9.585737833E0
3.727192885E0,-8.700054169E0,-5.494949818E0,-6.079853773E-1,1.030800962E1
3.732218405E0,-9.604841232E0,-5.579380512E0,-2.074377775E0,1.129980111E1
3.737243926E0,-9.686642647E0,-5.490611553E0,-3.432197571E0,1.165151669E1
3.742269447E0,-6.046104431E0,-5.419017792E0,-4.568015575E0,9.316002303E0
3.747294968E0,-8.810749054E-1,-5.216629028E0,-3.569688797E0,6.382177490E0
3.752320489E0,2.341115952E0,-5.511930943E0,-1.509451985E0,6.175811842E0
3.757346010E0,2.824581146E0,-6.227996826E0,5.026781559E-1,6.857032044E0
3.762371530E0,2.504717827E0,-7.261691093E0,3.234418392E0,8.334700430E0
3.767397051E0,2.046651840E0,-7.677001953E0,4.748625755E0,9.256056898E0
3.772422572E0,1.774529457E0,-7.333216667E0,5.319644451E0,9.231664994E0
3.777448093E0,2.599164009E0,-6.981765747E0,5.383369446E0,9.191374929E0
3.782473614E0,5.069930077E0,-7.327498436E0,4.856974125E0,1.014823246E1
3.787499135E0,7.849950790E0,-7.876353741E0,4.901308060E0,1.215242759E1
3.792524655E0,9.590515137E0,-8.610901833E0,5.287036419E0,1.393120113E1
3.797550176E0,1.052882576E1,-8.889353752E0,5.479240894E0,1.482898725E1
3.802575697E0,1.010055542E1,-7.913276672E0,4.921732426E0,1.374280239E1
3.807601218E0,8.964380264E0,-6.429844856E0,3.673943758E0,1.162759137E1
3.812626739E0,6.512178421E0,-3.700458527E0,2.051665545E0,7.766028110E0
3.817652260E0,3.916541100E0,-1.625030518E0,1.992689967E-1,4.244964841E0
3.822677780E0,2.830460548E0,3.784477711E-1,-1.419663906E0,3.189071219E0
3.827703301E0,1.953042984E0,1.711888313E0,-2.450391054E0,3.570623869E0
3.832728822E0,1.630022049E0,2.857245922E0,-2.513274431E0,4.139731212E0
3.837754343E0,1.374244690E0,2.964709759E0,-3.278511524E0,4.628897302E0
3.842779864E0,1.067671776E0,3.022987366E0,-4.048712254E0,5.164343767E0
3.847805385E0,1.078595161E0,3.791918278E0,-4.611546516E0,6.066990442E0
3.852830905E0,8.750362396E-1,4.379391670E0,-5.224040508E0,6.872798488E0
3.857856426E0,7.008590698E-1,4.684631348E0,-5.318310738E0,7.121896054E0
3.862881947E0,7.425680161E-1,4.717979431E0,-4.972823143E0,6.894904436E0
3.867907468E0,7.797317505E-1,4.346175194E0,-4.065173626E0,6.001904450E0
3.872932989E0,9.261608124E-1,3.703404427E0,-4.062683105E0,5.574797953E0
3.877958510E0,6.737346649E-1,3.067051172E0,-2.994125605E0,4.338837336E0
3.882984030E0,3.526239395E-1,2.742354155E0,-1.729342937E0,3.261207897E0
3.888009551E0,-1.284866333E-1,2.368820429E0,-1.170480251E0,2.645343656E0
3.893035072E0,-5.126376152E-1,2.073743820E0,-1.267200112E0,2.483748554E0
3.898060593E0,-9.405555725E-1,2.165868998E0,-1.049589992E0,2.584041882E0
3.903086114E0,-1.303927898E0,2.475374699E0,-1.768444777E-1,2.803387564E0
3.908111635E0,-1.522918701E0,2.531473160E0,4.892044067E-1,2.994488050E0
3.913137155E0,-1.689225197E0,2.462664127E0,8.570808172E-1,3.106892965E0
3.918162676E0,-2.184586048E0,2.088512897E0,7.921147346E-1,3.124379631E0
3.923188197E0,-2.476047993E0,1.425988197E0,6.201915741E-1,2.923849105E0
3.928213718E0,-2.491191864E0,7.293095589E-1,8.845334053E-1,2.742321768E0
3.933239239E0,-3.186053276E0,3.199577332E-3,9.498400688E-1,3.324626576E0
3.938264760E0,-4.286159992E0,-6.804165840E-1,1.237538457E0,4.512830114E0
3.943290280E0,-5.340394020E0,-1.168554306E0,1.873752117E0,5.778950982E0
3.948315801E0,-5.860914230E0,-1.309232712E0,2.615768433E0,6.550316817E0
3.953341322E0,-6.083967209E0,-1.224148273E0,3.027538300E0,6.905011524E0
3.958366843E0,-6.030369282E0,-1.034395218E0,3.110981941E0,6.863930054E0
3.963392364E0,-5.983467102E0,-7.309761047E-1,2.864954948E0,6.674142004E0
3.968417885E0,-5.895933151E0,-4.001374245E-1,2.538319349E0,6.431578562E0
3.973443405E0,-5.672527313E0,-1.900110245E-1,1.908128738E0,5.987873211E0
3.978468926E0,-5.638453484E0,-1.187367439E-1,8.311836720E-1,5.700624737E0
3.983494447E0,-5.807028294E0,-1.511416435E-1,-5.481535196E-2,5.809253491E0
3.988519968E0,-5.885149956E0,-1.658711433E-1,-5.833996534E-1,5.916321357E0
3.993545489E0,-5.862306118E0,-1.566286087E-1,-1.152788401E0,5.976628367E0
3.998571010E0,-5.818642139E0,-2.653021812E-1,-1.468533993E0,6.006960436E0
4.003596530E0,-5.671336174E0,-4.374651909E-1,-1.654324770E0,5.923868688E0
4.008622051E0,-5.294468880E0,-4.610204697E-1,-1.706163764E0,5.581660629E0
4.013647572E0,-4.118761063E0,4.052515030E-1,-1.749791145E0,4.493349588E0
4.018673093E0,-3.197789431E0,9.781799316E-1,-1.896348357E0,3.844324429E0
4.023698614E0,-2.278543472E0,1.376626968E0,-2.050693274E0,3.360387636E0
4.028724135E0,-1.591703892E0,1.800300121E0,-2.051211834E0,3.159441690E0
4.033749655E0,-1.324355602E0,2.410741329E0,-2.109610558E0,3.466417203E0
4.038775176E0,-1.794601440E0,2.525039673E0,-2.790961027E0,4.169638250E0
4.043800697E0,-3.136833191E0,1.691128254E0,-4.154490471E0,5.473520651E0
4.048826218E0,-3.694046259E0,4.777159691E-1,-4.874914169E0,6.135061407E0
4.053851739E0,-2.137907505E0,4.859604836E-1,-3.981097937E0,4.544881393E0
4.058877260E0,-5.081982613E-1,7.164649963E-1,-3.776262045E0,3.877079132E0
4.063902780E0,6.036872864E-1,7.616920471E-1,-4.131957054E0,4.244724044E0
4.068928301E0,1.380340576E0,4.659276009E-1,-3.782090187E0,4.052978512E0
4.073953822E0,2.173666477E0,5.117068291E-1,-3.559730291E0,4.202183906E0
4.078979343E0,2.028874397E0,1.188059807E0,-3.880342960E0,4.537056195E0
4.084004864E0,1.319182873E0,1.216186047E0,-2.622440338E0,3.177506141E0
4.089030385E0,7.279496193E-1,3.208661079E-1,-5.596992970E-1,9.726916317E-1
4.094055905E0,7.278070450E-1,-2.417755127E-1,-8.797086477E-1,1.167067178E0
4.099081426E0,7.841343880E-1,-8.063583374E-1,-1.565685391E0,1.927809963E0
4.104106947E0,7.884640694E-1,-1.726531029E0,-1.761498570E0,2.589490721E0
4.109132468E0,2.099426746E0,-4.192734718E0,4.978661060E0,6.839128821E0
4.114157989E0,3.562728882E0,-6.410175323E0,7.561274529E0,1.053357761E1
4.119183510E0,4.391911507E0,-6.422756195E0,3.485742092E0,8.525906506E0
4.124209030E0,5.713062286E0,-5.605626106E0,-2.126624584E0,8.281585407E0
4.129234551E0,8.149901390E0,-3.712896347E0,-5.699923515E0,1.061581933E1
4.134260072E0,1.123904991E1,-1.122306824E0,-5.637488842E0,1.262367205E1
4.139285593E0,1.429507542E1,1.941687107E0,-2.328858137E0,1.461310748E1
4.144311114E0,1.394512367E1,3.243733883E0,-3.883954883E-1,1.432267904E1
4.149336635E0,1.197434235E1,4.021567822E0,-6.013321877E-1,1.264592752E1
4.154362155E0,9.235263824E0,4.019773006E0,-8.441237807E-1,1.010748326E1
4.159387676E0,5.791764259E0,3.457072258E0,-6.747185588E-1,6.778726058E0
4.164413197E0,2.941771746E0,3.034883022E0,1.215158626E-1,4.228392374E0
4.169438718E0,1.428863287E0,3.060382366E0,1.131523490E0,3.562012904E0
4.174464239E0,3.715777397E-2,3.270232677E0,1.036472559E0,3.430754703E0
4.179489760E0,-1.476766348E0,3.588013649E0,5.248920918E-1,3.915378973E0
4.184515280E0,-2.652420998E0,3.789376259E0,4.551049471E-1,4.647776898E0
4.189540801E0,-3.823093414E0,3.205709934E0,6.589008570E-1,5.032570891E0
4.194566322E0,-5.692033768E0,1.839778900E0,4.426587820E-1,5.998331569E0
4.199591843E0,-7.257876396E0,4.503717422E-1,3.959270120E-1,7.282606861E0
4.204617364E0,-8.201129913E0,-8.223123550E-1,4.033644795E-1,8.252116842E0
4.209642885E0,-8.658846855E0,-1.580846786E0,3.010919094E-1,8.807119947E0
4.214668405E0,-8.693325996E0,-1.634786606E0,-5.566928983E-1,8.863202080E0
4.219693926E0,-8.739056587E0,-1.951114655E0,-8.107007146E-1,8.990839453E0
4.224719447E0,-8.793670654E0,-2.448061943E0,-8.218978643E-1,9.164996833E0
4.229744968E0,-8.758791924E0,-2.986694336E0,-7.126542330E-1,9.281414497E0
4.234770489E0,-8.302225113E0,-3.285187721E0,-5.628861785E-1,8.946297616E0
4.239796010E0,-7.224131584E0,-3.029667854E0,-2.996452451E-1,7.839435676E0
4.244821530E0,-6.019904137E0,-2.724905968E0,-1.176881269E-1,6.608949148E0
4.249847051E0,-4.759317398E0,-2.310807228E0,4.313316569E-2,5.290821544E0
4.254872572E0,-3.608641148E0,-1.741744041E0,6.673631072E-2,4.007545006E0
4.259898093E0,-2.662136078E0,-9.909992218E-1,-5.622590706E-2,2.841163372E0
4.264923614E0,-1.468520999E0,-1.367750168E-1,-3.247967362E-1,1.510216623E0
4.269949135E0,2.024172544E-1,4.800577164E-1,-6.083125472E-1,8.009196658E-1
4.274974655E0,2.402621508E0,3.806991577E-1,-7.040003538E-1,2.532417512E0
4.280000176E0,3.916849375E0,-4.581556320E-1,-8.684383631E-1,4.038044180E0
4.285025697E0,4.503668308E0,-1.552335739E0,-1.200541139E0,4.912644248E0
4.290051218E0,5.055340290E0,-2.886681557E0,-1.699375033E0,6.064426713E0
4.295076739E0,5.869915009E0,-4.173115730E0,-2.520709038E0,7.630515786E0
4.300102260E0,6.565786839E0,-4.960953712E0,-3.374284267E0,8.894178594E0
4.305127780E0,6.700710297E0,-5.058009148E0,-3.734475851E0,9.188540956E0
4.310153301E0,6.160728455E0,-5.018364906E0,-4.343120098E0,9.055454357E0
4.315178822E0,5.536059380E0,-5.041743279E0,-5.081830502E0,9.049427053E0
4.320204343E0,5.186634541E0,-5.184381485E0,-5.345623016E0,9.074947640E0
4.325229864E0,4.526239395E0,-5.388078690E0,-5.382779121E0,8.859601915E0
4.330255385E0,3.735913992E0,-5.571284294E0,-4.997339249E0,8.364787003E0
4.335280905E0,2.700999975E0,-5.892131805E0,-4.233232498E0,7.741632610E0
4.340306426E0,1.418065786E0,-6.580845833E0,-3.231419086E0,7.467296148E0
4.345331947E0,3.426971436E-1,-7.217254639E0,-2.367436647E0,7.603352033E0
4.350357468E0,-3.443503380E-1,-7.663938522E0,-1.438876152E0,7.805440116E0
4.355382989E0,-6.134448051E-1,-7.893431664E0,-4.745510221E-1,7.931442279E0
4.360408510E0,-5.815075636E-1,-8.896529198E0,-5.055775642E-1,8.929837148E0
4.365434030E0,1.426521540E-1,-9.605354309E0,-1.260723829E0,9.688787624E0
4.370459551E0,9.778491259E-1,-9.492724419E0,-1.723303437E0,9.697307902E0
4.375485072E0,1.693618059E0,-9.064746857E0,-2.196560860E0,9.479602171E0
4.380510593E0,2.281178474E0,-8.563971519E0,-2.623955727E0,9.242863575E0
4.385536114E0,2.574488878E0,-7.644557953E0,-2.797123194E0,8.537631840E0
4.390561635E0,2.556444407E0,-6.544872284E0,-2.501228571E0,7.458344694E0
4.395587155E0,2.315266371E0,-5.254617691E0,-1.950906157E0,6.064445587E0
4.400612676E0,2.349766731E0,-4.002729416E0,-1.449331999E0,4.862490073E0
4.405638197E0,1.882539272E0,-3.181007385E0,-1.818494201E0,4.119427540E0
4.410663718E0,4.482007027E-1,-2.704003334E0,-2.397576094E0,3.641550360E0
4.415689239E0,-7.901482582E-1,-2.219041824E0,-2.550231457E0,3.471622297E0
4.420714760E0,-1.965363026E0,-1.704112053E0,-2.290846825E0,3.466212470E0
4.425740280E0,-2.989418745E0,-1.175409317E0,-1.809942126E0,3.687018036E0
4.430765801E0,-3.492632151E0,-5.817766190E-1,-1.249102712E0,3.754623944E0
4.435791322E0,-3.557278633E0,4.720687866E-2,-6.906904578E-1,3.624018912E0
4.440816843E0,-3.195884466E0,7.303609848E-1,-1.345769167E-1,3.281038804E0
4.445842364E0,-2.633226395E0,1.319477081E0,2.526147366E-1,2.956131800E0
4.450867885E0,-2.113756180E0,1.757552624E0,4.621632099E-1,2.787570850E0
4.455893405E0,-1.575955868E0,2.097712517E0,7.338890433E-1,2.724450005E0
4.460918926E0,-1.121675968E0,2.311829567E0,1.096820354E0,2.793873264E0
4.465944447E0,-1.029372215E0,2.285544395E0,1.365350127E0,2.854382825E0
4.470969968E0,-1.255645752E0,2.176952362E0,1.722315311E0,3.046660118E0
4.475995489E0,-1.445806026E0,2.100827217E0,2.235187531E0,3.391149268E0
4.481021010E0,-1.632480502E0,1.999601364E0,2.774765491E0,3.789818167E0
4.486046530E0,-2.024760723E0,1.920948505E0,3.369566917E0,4.375349170E0
4.491072051E0,-2.472395182E0,1.788081646E0,3.976298332E0,5.012077646E0
4.496097572E0,-2.868760109E0,1.620012760E0,4.489693165E0,5.568803338E0
4.501123093E0,-3.088757515E0,1.483659267E0,4.861922264E0,5.948105237E0
4.506148614E0,-3.146254063E0,1.379014969E0,5.154692650E0,6.194469568E0
4.511174135E0,-3.017489672E0,1.296589851E0,5.377216339E0,6.300860633E0
4.516199655E0,-2.712742329E0,1.174506187E0,5.461667061E0,6.210333551E0
4.521225176E0,-2.176021814E0,1.027630806E0,5.402497292E0,5.914226323E0
4.526250697E0,-1.509708881E0,8.375835419E-1,5.212783337E0,5.491254612E0
4.531276218E0,-7.158465385E-1,5.526647568E-1,4.809750557E0,4.894034636E0
4.536301739E0,1.029067039E-1,2.551927567E-1,4.115705490E0,4.124893309E0
4.541327260E0,9.917422533E-1,3.308296204E-3,3.140433550E0,3.293309357E0
4.546352780E0,1.866115093E0,-1.643362045E-1,2.115442276E0,2.825683626E0
4.551378301E0,2.584235668E0,-2.955322266E-1,1.187087536E0,2.859158985E0
4.556403822E0,3.057725906E0,-3.520517349E-1,5.492463112E-1,3.126547561E0
4.561429343E0,3.256858349E0,-3.484230042E-1,2.321557999E-1,3.283659728E0
4.566454864E0,3.201081753E0,-3.136711121E-1,1.504774094E-1,3.219931273E0
4.571480385E0,2.958559752E0,-2.624683380E-1,2.228465080E-1,2.978527488E0
4.576505905E0,2.521576166E0,-1.569356918E-1,3.435938358E-1,2.549712120E0
4.581531426E0,1.949930668E0,-5.493927002E-2,4.833593369E-1,2.009697535E0
4.586556947E0,1.356296301E0,7.656574249E-2,5.552961826E-1,1.467567995E0
4.591582468E0,8.148851395E-1,2.323379517E-1,5.923073292E-1,1.033850418E0
4.596607989E0,2.656313181E-1,4.024085999E-1,6.322312355E-1,7.951157234E-1
4.601633510E0,-2.083754539E-1,6.103591919E-1,7.465405464E-1,9.865502827E-1
4.606659030E0,-6.203839779E-1,8.655347824E-1,9.205563068E-1,1.407640101E0
4.611684551E0,-9.364838600E-1,1.129511833E0,1.168646812E0,1.875775673E0
4.616710072E0,-1.214103699E0,1.411849499E0,1.447680950E0,2.358632428E0
4.621735593E0,-1.439219236E0,1.655097485E0,1.671963692E0,2.757927171E0
4.626761114E0,-1.626771927E0,1.878441811E0,1.851561189E0,3.098904544E0
4.631786635E0,-1.734370947E0,2.096264839E0,2.030023575E0,3.394608162E0
4.636812155E0,-1.772329330E0,2.294271946E0,2.164665461E0,3.618095020E0
4.641837676E0,-1.755886316E0,2.496539593E0,2.313055515E0,3.829630858E0
4.646863197E0,-1.709478617E0,2.664885998E0,2.456104517E0,4.007041792E0
4.651888718E0,-1.681486607E0,2.833010674E0,2.564875603E0,4.175156709E0
4.656914239E0,-1.681517363E0,2.972358704E0,2.610234261E0,4.298341517E0
4.661939760E0,-1.742760420E0,3.059112549E0,2.534434795E0,4.338057538E0
4.666965280E0,-1.807245731E0,3.136400223E0,2.408838749E0,4.348062512E0
4.671990801E0,-1.845572472E0,3.228137493E0,2.318965197E0,4.382306357E0
4.677016322E0,-1.828634977E0,3.324800968E0,2.235389948E0,4.403995411E0
4.682041843E0,-1.765930414E0,3.402554035E0,2.167123795E0,4.403670030E0
4.687067364E0,-1.676555395E0,3.451940060E0,2.089667559E0,4.369603949E0
4.692092885E0,-1.598886013E0,3.434770107E0,1.997980237E0,4.283223926E0
4.697118405E0,-1.537732601E0,3.341491222E0,1.901712298E0,4.140856772E0
4.702143926E0,-1.431253195E0,3.234275341E0,1.820421696E0,3.977808170E0
4.707169447E0,-1.327813625E0,3.122610092E0,1.797710896E0,3.839993135E0
4.712194968E0,-1.223213673E0,3.006410599E0,1.748141289E0,3.686564029E0
4.717220489E0,-1.137122631E0,2.890377998E0,1.624635696E0,3.505249491E0
4.722246010E0,-1.036531925E0,2.793556213E0,1.447168708E0,3.312499361E0
4.727271530E0,-9.025666714E-1,2.682356834E0,1.235500574E0,3.088061925E0
4.732297051E0,-7.978472710E-1,2.542490482E0,1.013830423E0,2.851082294E0
4.737322572E0,-7.415790558E-1,2.359651089E0,7.679191828E-1,2.589902050E0
4.742348093E0,-6.476092339E-1,2.167318821E0,4.836654663E-1,2.313136588E0
4.747373614E0,-5.350160599E-1,1.946358681E0,2.041219473E-1,2.028846980E0
4.752399135E0,-3.895199299E-1,1.706421852E0,-9.004902840E-2,1.752629493E0
4.757424655E0,-1.680309772E-1,1.452335835E0,-4.469151497E-1,1.528805722E0
4.762450176E0,1.580793858E-1,1.222387791E0,-8.282798529E-1,1.485014652E0
4.767475697E0,5.358281136E-1,9.783525467E-1,-1.272394300E0,1.692120778E0
4.772501218E0,9.698054790E-1,7.250175476E-1,-1.759804130E0,2.136137563E0
4.777526739E0,1.402274847E0,4.480009079E-1,-2.323187351E0,2.750323441E0
4.782552260E0,1.837576270E0,1.664257050E-1,-3.004383326E0,3.525720243E0
4.787577780E0,2.223004818E0,-1.246232986E-1,-3.711120605E0,4.327782057E0
4.792603301E0,2.525012016E0,-4.156885147E-1,-4.384583950E0,5.076717349E0
4.797628822E0,2.710426331E0,-7.164821625E-1,-4.980756283E0,5.715565653E0
4.802654343E0,2.751236677E0,-1.036718369E0,-5.465788841E0,6.206362533E0
4.807679864E0,2.686836958E0,-1.362204552E0,-5.778017044E0,6.516147254E0
4.812705385E0,2.542355776E0,-1.664438248E0,-5.961380005E0,6.691186676E0
4.817730905E0,2.404753923E0,-1.953137398E0,-6.011944771E0,6.763214255E0
4.822756426E0,2.412875414E0,-2.156544685E0,-6.006975651E0,6.823225719E0
4.827781947E0,2.575490952E0,-2.221934319E0,-6.066322803E0,6.954884479E0
4.832807468E0,2.867138624E0,-2.211278915E0,-6.165539742E0,7.150113190E0
4.837832989E0,3.156827688E0,-2.186393738E0,-6.284613132E0,7.364933187E0
4.842858510E0,3.418790817E0,-2.165889740E0,-6.279374599E0,7.470592639E0
4.847884030E0,3.627916098E0,-2.130267143E0,-5.982100487E0,7.313367183E0
4.852909551E0,3.797597408E0,-2.088758469E0,-5.388373852E0,6.915145030E0
4.857935072E0,3.856020689E0,-2.069894791E0,-4.580747604E0,6.335345974E0
4.862960593E0,3.851675749E0,-2.006700516E0,-3.704188824E0,5.708175530E0
4.867986114E0,3.713809252E0,-1.899265289E0,-2.904208660E0,5.082717358E0
4.873011635E0,3.530016422E0,-1.704728127E0,-2.211678982E0,4.500959658E0
4.878037155E0,3.239908695E0,-1.452150345E0,-1.738543153E0,3.953262105E0
4.883062676E0,2.702558041E0,-1.304670334E0,-1.472318769E0,3.342709559E0
4.888088197E0,1.873245239E0,-1.544930458E0,-1.414690375E0,2.810196916E0
4.893113718E0,1.008009076E0,-2.392850876E0,-1.620104074E0,3.060482776E0
4.898139239E0,4.137444496E-1,-3.670763969E0,-1.879618406E0,4.144714458E0
4.903164760E0,2.804310322E-1,-4.952310562E0,-1.939586639E0,5.325975760E0
4.908190280E0,5.429744720E-1,-5.907186508E0,-1.864987731E0,6.218348089E0
4.913215801E0,1.054853916E0,-6.425517082E0,-1.963744521E0,6.801196888E0
4.918241322E0,1.593318582E0,-6.579260826E0,-2.194189548E0,7.116165041E0
4.923266843E0,1.955167770E0,-6.617165565E0,-2.352405310E0,7.289950060E0
4.928292364E0,2.047532797E0,-6.768504143E0,-2.239377975E0,7.417536828E0
4.933317885E0,1.744613409E0,-7.009022713E0,-1.875020385E0,7.462290317E0
4.938343405E0,9.841825962E-1,-7.209721565E0,-1.287971020E0,7.389693483E0
4.943368926E0,-2.556304932E-1,-7.094086647E0,-4.406937957E-1,7.112357087E0
4.948394447E0,-1.688399076E0,-6.764345169E0,5.352253914E-1,6.992390380E0
4.953419968E0,-2.969991207E0,-6.437449455E0,1.601775408E0,7.268238281E0
4.958445489E0,-3.642832279E0,-5.894417763E0,2.574991941E0,7.392223703E0
4.963471010E0,-3.476316452E0,-4.628837585E0,3.287590742E0,6.657264179E0
4.968496530E0,-2.485899210E0,-2.760690689E0,3.557218313E0,5.143433687E0
4.973522051E0,-1.229287624E0,-7.631320953E-1,3.604464293E0,3.884029029E0
4.978547572E0,-1.825542450E-1,1.111317635E0,3.593617916E0,3.765958399E0
4.983573093E0,6.002984047E-1,2.662716389E0,3.389241219E0,4.351709179E0
4.988598614E0,1.099171042E0,3.882371902E0,3.154113293E0,5.121466512E0
4.993624135E0,1.471403599E0,4.794736862E0,3.052147388E0,5.871127133E0
4.998649655E0,1.807456255E0,5.572394371E0,3.270799875E0,6.709441777E0
5.003675176E0,2.154741287E0,6.258716106E0,3.728307724E0,7.597020192E0
5.008700697E0,2.455335617E0,6.796739578E0,4.313580513E0,8.416134429E0
5.013726218E0,2.641951799E0,7.148712158E0,4.848492146E0,9.032821869E0
5.018751739E0,2.714537144E0,7.391647816E0,5.217411518E0,9.445980748E0
5.023777260E0,2.749435186E0,7.540311813E0,5.357609749E0,9.649853797E0
5.028802780E0,2.780173779E0,7.499403000E0,5.483573914E0,9.697422052E0
5.033828301E0,2.739696503E0,7.192942142E0,5.771103859E0,9.620290710E0
5.038853822E0,2.546392918E0,6.482956886E0,6.013247967E0,9.201738857E0
5.043879343E0,2.037418842E0,5.355927944E0,6.242716789E0,8.473992718E0
5.048904864E0,1.251399994E0,4.013285637E0,6.306304455E0,7.579046076E0
5.053930385E0,3.182606697E-1,2.641583443E0,6.156691551E0,6.707018995E0
5.058955905E0,-6.224322319E-1,1.321830273E0,5.904475212E0,6.082555769E0
5.063981426E0,-1.627101183E0,2.003097534E-2,5.598136425E0,5.829836270E0
5.069006947E0,-2.632251501E0,-1.216557503E0,5.267043591E0,6.012529277E0
5.074032468E0,-3.507464409E0,-2.292970657E0,4.897808075E0,6.445816081E0
5.079057989E0,-4.237462997E0,-3.195590973E0,4.448425293E0,6.925054650E0
5.084083510E0,-4.907141685E0,-3.915558815E0,4.043879509E0,7.467570009E0
5.089109030E0,-5.548078060E0,-4.544363976E0,3.745597363E0,8.090853707E0
5.094134551E0,-6.014540672E0,-4.934080124E0,3.522723675E0,8.539872848E0
5.099160072E0,-5.979627609E0,-4.783813477E0,3.305973530E0,8.340879972E0
5.104185593E0,-5.257109642E0,-3.855022430E0,3.027032375E0,7.187581285E0
5.109211114E0,-4.222213745E0,-2.564484596E0,2.666640997E0,5.613790552E0
5.114236635E0,-3.274091959E0,-1.338114738E0,2.230441332E0,4.181518593E0
5.119262155E0,-2.586271763E0,-3.431882858E-1,1.767400026E0,3.151235105E0
5.124287676E0,-2.154397964E0,4.252109528E-1,1.364725947E0,2.585480972E0
5.129313197E0,-1.906656265E0,1.034055710E0,1.028200865E0,2.400376292E0
5.134338718E0,-1.699474812E0,1.464194775E0,7.536997795E-1,2.366462408E0
5.139364239E0,-1.504066467E0,1.796929836E0,5.368033648E-1,2.404023841E0
5.144389760E0,-1.301244259E0,2.075243950E0,3.106117249E-1,2.469079528E0
5.149415280E0,-1.096049547E0,2.208210945E0,6.109392643E-2,2.466019598E0
5.154440801E0,-8.794662952E-1,2.195938110E0,-1.487244368E-1,2.370173856E0
5.159466322E0,-6.186313629E-1,2.052891731E0,-3.365728855E-1,2.170334198E0
5.164491843E0,-4.054195881E-1,1.831914425E0,-4.908013642E-1,1.939371414E0
5.169517364E0,-1.926519871E-1,1.576246738E0,-5.945915580E-1,1.695643739E0
5.174542885E0,2.378940582E-2,1.343544960E0,-7.079929113E-1,1.518859097E0
5.179568405E0,2.482516766E-1,1.114913940E0,-7.911888361E-1,1.389475356E0
5.184593926E0,4.470791817E-1,8.762569427E-1,-8.435537815E-1,1.295873839E0
5.189619447E0,5.962581635E-1,6.469640732E-1,-9.179393053E-1,1.271494742E0
5.194644968E0,7.103911638E-1,3.984479904E-1,-9.819896817E-1,1.275821360E0
5.199670437E0,7.992138863E-1,1.307983398E-1,-1.023133993E0,1.304857927E0
5.204695905E0,9.296668768E-1,-8.417892456E-2,-1.072029233E0,1.421482771E0
5.209721374E0,1.091760635E0,-1.843242645E-1,-1.216922045E0,1.645240403E0
5.214746843E0,1.284637213E0,-2.461528778E-1,-1.396877289E0,1.913674520E0
5.219772312E0,1.435463786E0,-2.264537811E-1,-1.559802532E0,2.131858704E0
5.224797780E0,1.505000591E0,-2.016124725E-1,-1.695981145E0,2.276406469E0
5.229823249E0,1.373096108E0,-1.953344345E-1,-1.852109194E0,2.313840299E0
5.234848718E0,1.121323228E0,-1.835880280E-1,-1.997829199E0,2.298345460E0
5.239874187E0,7.504677773E-1,-1.663818359E-1,-2.131293774E0,2.265678254E0
5.244899655E0,3.336122036E-1,-1.438350677E-1,-2.260469198E0,2.289477369E0
5.249925124E0,-1.181139946E-1,-9.696674347E-2,-2.369432449E0,2.374355407E0
5.254950593E0,-5.313560963E-1,-1.987457275E-3,-2.437398434E0,2.494645140E0
5.259976062E0,-8.665113449E-1,1.266441345E-1,-2.458365917E0,2.609682669E0
5.265001530E0,-1.069827318E0,2.792730331E-1,-2.417206049E0,2.658083708E0
5.270026999E0,-1.226660728E0,3.936948776E-1,-2.313500643E0,2.648013864E0
5.275052468E0,-1.283856869E0,4.651699066E-1,-2.132878542E0,2.532556490E0
5.280077937E0,-1.241322279E0,5.272045135E-1,-1.871156216E0,2.306523614E0
5.285103405E0,-1.089699030E0,5.367431641E-1,-1.567520738E0,1.983093155E0
5.290128874E0,-8.727409840E-1,5.081958771E-1,-1.204160452E0,1.571604998E0
5.295154343E0,-6.579391956E-1,4.463367462E-1,-8.398233652E-1,1.156461742E0
5.300179812E0,-4.219777584E-1,3.655357361E-1,-4.948136210E-1,7.460041036E-1
5.305205280E0,-2.370173931E-1,3.039903641E-1,-2.038389444E-1,4.360478200E-1
5.310230749E0,-6.520438194E-2,2.568340302E-1,8.052110672E-3,2.651040682E-1
5.315256218E0,4.973220825E-2,2.527494431E-1,1.684603691E-1,3.077896513E-1
5.320281687E0,1.266839504E-1,2.533416748E-1,3.145229816E-1,4.232676854E-1
5.325307155E0,1.653916836E-1,2.776708603E-1,4.164872169E-1,5.271784494E-1
5.330332676E0,1.751716137E-1,3.352079391E-1,5.497827530E-1,6.673159163E-1
5.335358197E0,1.559348106E-1,3.875246048E-1,6.365023851E-1,7.613319058E-1
5.340383718E0,8.387303352E-2,4.201564789E-1,6.948860884E-1,8.163533722E-1
5.345409239E0,-1.678967476E-2,4.520902634E-1,7.288428545E-1,8.578341366E-1
5.350434760E0,-1.216356754E-1,4.927196503E-1,7.236428261E-1,8.838703700E-1
5.355460280E0,-1.824016571E-1,5.419054031E-1,6.601356268E-1,8.733331989E-1
5.360485801E0,-2.036881447E-1,5.995721817E-1,5.289888382E-1,8.251089942E-1
5.365511322E0,-1.949276924E-1,6.704683304E-1,3.689692020E-1,7.897232803E-1
5.370536843E0,-1.468017101E-1,7.642259598E-1,1.854149103E-1,7.999817177E-1
5.375562364E0,-1.073601246E-1,8.378610611E-1,1.243722439E-2,8.448029584E-1
5.380587885E0,-1.056041718E-1,8.628425598E-1,-1.588518620E-1,8.836760935E-1
5.385613405E0,-1.702291965E-1,8.584280014E-1,-3.039050102E-1,9.264096654E-1
5.390638926E0,-2.866079807E-1,8.103284836E-1,-4.507196546E-1,9.705279970E-1
5.395664447E0,-4.113698006E-1,7.377490997E-1,-5.793882012E-1,1.024299534E0
5.400689968E0,-5.490646362E-1,6.072549820E-1,-7.036915421E-1,1.079542669E0
5.405715489E0,-6.419906616E-1,4.858655930E-1,-8.278698325E-1,1.154809873E0
5.410741010E0,-6.854209900E-1,3.592796326E-1,-9.467264414E-1,1.222773382E0
5.415766530E0,-7.129962444E-1,2.610483170E-1,-1.031312823E0,1.280670140E0
5.420792051E0,-7.345280647E-1,1.433315277E-1,-1.072337866E0,1.307663528E0
5.425817572E0,-7.501902580E-1,2.525806427E-2,-1.070229292E0,1.307216176E0
5.430843093E0,-7.695813179E-1,-1.076450348E-1,-1.059193850E0,1.313672132E0
5.435868614E0,-7.783529758E-1,-2.411861420E-1,-1.035317659E0,1.317530556E0
5.440894135E0,-6.664550304E-1,-3.660049438E-1,-1.023333549E0,1.274885673E0
5.445919655E0,-4.291861057E-1,-5.205183029E-1,-1.057116985E0,1.254047981E0
5.450945176E0,-9.086942673E-2,-6.377229691E-1,-1.151012182E0,1.319006020E0
5.455970697E0,3.143484592E-1,-8.035936356E-1,-1.295147657E0,1.556272836E0
5.460996218E0,7.282242775E-1,-9.938402176E-1,-1.464957714E0,1.914191756E0
5.466021739E0,1.111640811E0,-1.198481560E0,-1.640574217E0,2.315941947E0
5.471047260E0,1.430373311E0,-1.412439346E0,-1.788327932E0,2.690551897E0
5.476072780E0,1.683863044E0,-1.645005226E0,-1.965382814E0,3.066621358E0
5.481098301E0,1.866975784E0,-1.881659508E0,-2.119072914E0,3.393628014E0
5.486123822E0,2.017778635E0,-2.155765533E0,-2.306773186E0,3.746993219E0
5.491149343E0,2.160228729E0,-2.424091339E0,-2.532664537E0,4.117911685E0
5.496174864E0,2.294581890E0,-2.629051208E0,-2.762186289E0,4.450470694E0
5.501200385E0,2.473730087E0,-2.837252617E0,-3.026958942E0,4.830302619E0
5.506225905E0,2.607200384E0,-2.971631050E0,-3.291121006E0,5.143885926E0
5.511251426E0,2.666715145E0,-3.122430801E0,-3.508896351E0,5.401231098E0
5.516276947E0,2.629234076E0,-3.356048584E0,-3.673088789E0,5.627389730E0
5.521302468E0,2.414496183E0,-3.710252762E0,-3.743396044E0,5.797308110E0
5.526327989E0,2.186248302E0,-4.218228340E0,-3.713788033E0,6.030369269E0
5.531353510E0,1.935765386E0,-4.889514923E0,-3.569697857E0,6.355885981E0
5.536379030E0,1.711520076E0,-5.657343864E0,-3.383440495E0,6.810470626E0
5.541404551E0,1.571089268E0,-6.435931206E0,-3.160669565E0,7.340256404E0
5.546430072E0,1.599869967E0,-7.235128403E0,-2.897824526E0,7.956384474E0
5.551455593E0,1.710282922E0,-8.102865219E0,-2.562770605E0,8.668868762E0
5.556481114E0,1.789963365E0,-9.154256821E0,-1.791156530E0,9.498032875E0
5.561506635E0,1.921941280E0,-1.023736382E1,-5.639934540E-1,1.043146992E1
5.566532155E0,2.122011185E0,-1.056397629E1,3.489587307E-1,1.078064463E1
5.571557676E0,2.163188457E0,-1.005823040E1,7.973663807E-1,1.031906857E1
5.576583197E0,1.625241637E0,-9.055422783E0,1.042512655E0,9.258991565E0
5.581608718E0,5.886592865E-1,-7.685230255E0,1.228142977E0,7.804973991E0
5.586634239E0,-5.775954723E-1,-6.206738472E0,1.483798027E0,6.407719998E0
5.591659760E0,-1.504892826E0,-4.773761749E0,1.712847948E0,5.290307340E0
5.596685280E0,-2.013403893E0,-3.386614799E0,1.793462038E0,4.328909922E0
5.601710801E0,-2.193159819E0,-2.078815460E0,1.736683846E0,3.485325593E0
5.606736322E0,-2.197952271E0,-8.740243912E-1,1.480804086E0,2.790643933E0
5.611761843E0,-2.153582335E0,2.234764099E-1,1.064661384E0,2.412749974E0
5.616787364E0,-2.071251631E0,1.271571159E0,5.075674057E-1,2.482861495E0
5.621812885E0,-2.014781475E0,2.275356293E0,-2.673300505E-1,3.050910685E0
5.626838405E0,-2.052413940E0,3.306825161E0,-1.145272970E0,4.056987282E0
5.631863926E0,-2.123042583E0,4.227483749E0,-2.130774975E0,5.188364931E0
5.636889447E0,-2.227284431E0,5.037603378E0,-3.223136902E0,6.381759571E0
5.641914968E0,-2.341742039E0,5.679995537E0,-4.259087563E0,7.475689396E0
5.646940489E0,-2.538178205E0,6.178638458E0,-5.180901527E0,8.453381716E0
5.651966010E0,-2.620350361E0,6.523945332E0,-5.844802856E0,9.142746805E0
5.656991530E0,-2.559395552E0,6.706236839E0,-6.202795029E0,9.486768907E0
5.662017051E0,-2.340925217E0,6.734920502E0,-6.274203777E0,9.497616442E0
5.667042572E0,-1.926939726E0,6.605091572E0,-5.997146130E0,9.127217160E0
5.672068093E0,-1.313294888E0,6.316652298E0,-5.367863178E0,8.392782305E0
5.677093614E0,-6.824617386E-1,5.845616341E0,-4.545643806E0,7.436387701E0
5.682119135E0,-1.017837524E-1,5.177598000E0,-3.512825727E0,6.257621399E0
5.687144655E0,4.094667435E-1,4.393886089E0,-2.280982256E0,4.967572650E0
5.692170176E0,9.276990891E-1,3.489686489E0,-1.063015342E0,3.764111981E0
5.697195697E0,1.337944150E0,2.570350170E0,8.089636266E-2,2.898851284E0
5.702221218E0,1.086159468E0,1.798411846E0,9.679122567E-1,2.313197288E0
5.707246739E0,1.034929156E0,1.111338615E0,1.665959120E0,2.254234164E0
5.712272260E0,1.045698524E0,3.846063614E-1,2.147342443E0,2.419191399E0
5.717297780E0,9.847725630E-1,-4.678926468E-1,2.680534601E0,2.893780620E0
5.722323301E0,7.474848032E-1,-1.455663681E0,3.313120127E0,3.695193534E0
5.727348822E0,2.866556644E-1,-2.502123833E0,3.987742424E0,4.716448323E0
5.732374343E0,-2.392988205E-1,-3.516392708E0,4.862085342E0,6.005177389E0
5.737399864E0,-7.823090553E-1,-4.445831299E0,5.839563370E0,7.380916186E0
5.742425385E0,-1.251766920E0,-5.194617271E0,6.756438255E0,8.613966967E0
5.747450905E0,-1.710566759E0,-5.724256516E0,7.616424561E0,9.680034834E0
5.752476426E0,-2.145059109E0,-6.091878891E0,8.456705093E0,1.064087064E1
5.757501947E0,-2.589365005E0,-6.268375397E0,9.185065269E0,1.141765148E1
5.762527468E0,-2.708916903E0,-6.329727173E0,9.607917786E0,1.182014218E1
5.767552989E0,-2.398867607E0,-6.088356972E0,9.783473015E0,1.177025916E1
5.772578510E0,-1.860573769E0,-5.361522675E0,9.788845062E0,1.131499659E1
5.777604030E0,-1.209432840E0,-4.172557831E0,9.473260880E0,1.042188267E1
5.782629551E0,-3.173580170E-1,-2.760393143E0,8.769748688E0,9.199400984E0
5.787655072E0,6.610952616E-1,-1.421504021E0,7.790135384E0,7.946315493E0
5.792680593E0,1.528434992E0,-3.231706619E-1,6.622974396E0,6.804729432E0
5.797706114E0,2.097690105E0,4.914722443E-1,5.409680367E0,5.822927993E0
5.802731635E0,2.345226288E0,9.933862686E-1,4.086233616E0,4.814998212E0
5.807757155E0,2.463091373E0,1.268095970E0,2.622604609E0,3.814831770E0
5.812782676E0,2.385014296E0,1.324371815E0,1.180456758E0,2.972495929E0
5.817808197E0,2.116872787E0,1.147056580E0,-1.650166512E-1,2.413321299E0
5.822833718E0,1.903411150E0,8.885145187E-1,-1.333975792E0,2.488357585E0
5.827859239E0,1.616154432E0,6.341466904E-1,-2.132679701E0,2.749985433E0
5.832884760E0,1.303996086E0,4.216327667E-1,-2.483553648E0,2.836585748E0
5.837910280E0,9.826215506E-1,2.458305359E-1,-2.540170193E0,2.734674089E0
5.842935801E0,5.102038383E-1,9.691715240E-2,-2.384861708E0,2.440751166E0
5.847961322E0,1.769912243E-2,8.215904236E-3,-2.143207312E0,2.143296139E0
5.852986843E0,-3.403326273E-1,-1.086616516E-2,-1.811411381E0,1.843137423E0
5.858012364E0,-6.011942625E-1,-1.779079437E-2,-1.347432852E0,1.475576614E0
5.863037885E0,-8.506171703E-1,-7.650375366E-3,-7.666122913E-1,1.145121174E0
5.868063405E0,-1.116658449E0,5.474090576E-4,-1.179141998E-1,1.122866933E0
5.873088926E0,-1.341673493E0,4.048061371E-2,6.072707176E-1,1.473263102E0
5.878114447E0,-1.382400990E0,1.506080627E-1,1.322015643E0,1.918708067E0
5.883139968E0,-1.340474725E0,3.216400146E-1,1.901348591E0,2.348499787E0
5.888165489E0,-1.317507029E0,5.442428589E-1,2.450295925E0,2.834779565E0
5.893191010E0,-1.333617210E0,7.421245575E-1,2.963762045E0,3.333642030E0
5.898216530E0,-1.399239421E0,9.347019196E-1,3.436703920E0,3.826548376E0
5.903242051E0,-1.471936464E0,1.146105766E0,3.859316587E0,4.286546384E0
5.908267572E0,-1.518682003E0,1.386098385E0,4.269405365E0,4.738721972E0
5.913293093E0,-1.497110963E0,1.654932499E0,4.623341560E0,5.133753987E0
5.918318614E0,-1.417337179E0,1.991114616E0,4.939614773E0,5.511186460E0
5.923344135E0,-1.313475251E0,2.318302631E0,5.141222954E0,5.790675072E0
5.928369655E0,-1.248212695E0,2.675006390E0,5.227783203E0,6.003616521E0
5.933395176E0,-1.226516485E0,3.023034096E0,5.189661980E0,6.129899615E0
5.938420697E0,-1.186326981E0,3.343301296E0,5.074815273E0,6.191832146E0
5.943446218E0,-1.166040659E0,3.621476650E0,4.921710491E0,6.220769897E0
5.948471739E0,-1.232618093E0,3.814450264E0,4.687788963E0,6.168042116E0
5.953497260E0,-1.361580133E0,3.931704521E0,4.382958412E0,6.043386910E0
5.958522780E0,-1.456785917E0,3.996980667E0,4.093983173E0,5.904132272E0
5.963548301E0,-1.498892546E0,4.019724846E0,3.802099228E0,5.732436239E0
5.968573822E0,-1.506923199E0,3.985459328E0,3.493435383E0,5.509881519E0
5.973599343E0,-1.533279181E0,3.855869293E0,3.158604145E0,5.214926001E0
5.978624864E0,-1.563398838E0,3.635711193E0,2.802731276E0,4.849527236E0
5.983650385E0,-1.558839321E0,3.363199711E0,2.407088041E0,4.419860310E0
5.988675905E0,-1.443242073E0,3.076573372E0,2.005575657E0,3.945958072E0
5.993701426E0,-1.250615597E0,2.785408974E0,1.593772888E0,3.444220455E0
5.998726947E0,-1.148944378E0,2.461008549E0,1.167434812E0,2.956271351E0
6.003752468E0,-1.081087112E0,2.093832016E0,6.887996197E-1,2.455061460E0
6.008777989E0,-1.037578106E0,1.679111004E0,1.439522505E-1,1.979066532E0
6.013803510E0,-9.755039215E-1,1.274219513E0,-5.189915895E-1,1.686592879E0
6.018829030E0,-8.711082935E-1,8.503513336E-1,-1.342148781E0,1.811985210E0
6.023854551E0,-6.624026299E-1,3.930749893E-1,-2.314836502E0,2.439621533E0
6.028880072E0,-3.357052803E-1,-1.023683548E-1,-3.402359962E0,3.420413810E0
6.033905593E0,8.148193359E-3,-5.882234573E-1,-4.498066902E0,4.536372900E0
6.038931114E0,2.351629734E-1,-1.035881996E0,-5.553339005E0,5.654018680E0
6.043956635E0,2.692441940E-1,-1.464586258E0,-6.161485195E0,6.338880434E0
6.048982155E0,2.067196369E-1,-1.826517105E0,-6.309291363E0,6.571609791E0
6.054007676E0,2.058637142E-1,-2.097714424E0,-5.965012074E0,6.326464630E0
6.059033197E0,2.950475216E-1,-2.244544029E0,-5.283448219E0,5.748030621E0
6.064058718E0,2.968556881E-1,-2.329046249E0,-4.562627316E0,5.131291041E0
6.069084239E0,2.587780952E-1,-2.327113152E0,-3.913504124E0,4.560475441E0
6.074109760E0,1.230826378E-1,-2.319984436E0,-3.575471878E0,4.263974234E0
6.079135280E0,-6.226110458E-2,-2.269453049E0,-3.825303793E0,4.448285366E0
6.084160801E0,-2.681026459E-1,-2.171031952E0,-4.360178947E0,4.878157359E0
6.089186322E0,-3.695287704E-1,-2.048964500E0,-4.686423779E0,5.128096613E0
6.094211843E0,-4.047362804E-1,-1.975118637E0,-4.703607559E0,5.117502238E0
6.099237364E0,-2.876002789E-1,-1.949473381E0,-4.474289417E0,4.889010756E0
6.104262885E0,-1.332633495E-1,-1.881071091E0,-3.907889366E0,4.339099776E0
6.109288405E0,1.971864700E-2,-1.784203529E0,-3.024286747E0,3.511421562E0
6.114313926E0,2.378716469E-1,-1.625266075E0,-2.025089025E0,2.607500392E0
6.119339447E0,9.223722219E-1,-1.208046913E0,2.444982529E-3,1.519919024E0
6.124364968E0,3.955242634E0,6.935291290E-1,6.689126492E0,7.801880553E0
6.129390489E0,3.258368731E0,2.679786682E-1,4.310826302E0,5.410360686E0
6.134416010E0,1.045555472E0,-6.529235840E-1,-1.080087423E-1,1.237401043E0
6.139441530E0,8.832967281E-1,-5.305156708E-1,-1.068333268E0,1.484249291E0
6.144467051E0,1.756208777E0,1.315059662E-1,1.008244753E-1,1.764009258E0
6.149492572E0,2.674796104E0,8.072729111E-1,1.153051734E0,3.022540662E0
6.154518093E0,2.257502556E0,1.123649597E0,2.469393015E-1,2.533749243E0
6.159543614E0,1.628922343E0,1.529818058E0,1.011497974E-1,2.236953860E0
6.164569135E0,1.323228121E0,2.053925514E0,8.668040633E-1,2.592468315E0
6.169594655E0,1.140443921E0,2.542823315E0,1.498911142E0,3.164379459E0
6.174620176E0,7.956289053E-1,2.948505402E0,1.743199706E0,3.516454845E0
6.179645697E0,7.359521389E-1,3.285120010E0,1.953301907E0,3.892175147E0
6.184671218E0,9.854829311E-1,3.552604198E0,2.119754791E0,4.252708969E0
6.189696739E0,1.466740608E0,3.717576504E0,2.261888504E0,4.592150115E0
6.194722260E0,2.053555727E0,3.770789146E0,2.408531666E0,4.923105392E0
6.199747780E0,2.600246906E0,3.693470478E0,2.464530706E0,5.145572830E0
6.204773301E0,3.042281151E0,3.486052036E0,2.421184301E0,5.222084528E0
6.209798822E0,3.420688629E0,3.211077690E0,2.317834616E0,5.233019008E0
6.214824343E0,3.718992949E0,2.825825691E0,2.017094374E0,5.087717475E0
6.219849864E0,3.854071617E0,2.344976902E0,1.367633224E0,4.714149482E0
6.224875385E0,3.791038990E0,1.768810272E0,5.819000602E-1,4.223656483E0
6.229900905E0,3.524342060E0,1.135846138E0,-2.797091007E-2,3.702960407E0
6.234926426E0,3.158458471E0,5.324802399E-1,-5.237287283E-1,3.245564188E0
6.239951947E0,2.673745871E0,1.635551453E-2,-9.248107672E-1,2.829215340E0
6.244977468E0,2.136732101E0,-4.123373032E-1,-1.260390520E0,2.514802256E0
6.250002989E0,1.528291225E0,-7.056407928E-1,-1.488403916E0,2.246986697E0
6.255028510E0,9.156644344E-1,-8.635435104E-1,-1.514455557E0,1.969193841E0
6.260054030E0,3.564474583E-1,-9.242401123E-1,-1.326039076E0,1.655190082E0
6.265079551E0,-1.965861320E-1,-9.643087387E-1,-9.297026396E-1,1.353840629E0
6.270105072E0,-7.956113815E-1,-1.084137917E0,-4.226239920E-1,1.409596939E0
6.275130593E0,-1.382668257E0,-1.231065750E0,8.427762985E-2,1.853212645E0
6.280156114E0,-1.952845812E0,-1.409913063E0,5.335950851E-1,2.467019523E0
6.285181635E0,-2.577540874E0,-1.788224220E0,9.258059263E-1,3.270868300E0
6.290207155E0,-3.332537174E0,-2.614817619E0,1.290727973E0,4.428211140E0
6.295232676E0,-4.183414459E0,-3.856127739E0,1.692159653E0,5.935830352E0
6.300258197E0,-5.062625885E0,-5.535961151E0,2.165604115E0,7.808129603E0
6.305283718E0,-5.836022377E0,-7.391014099E0,2.569433689E0,9.761569345E0
6.310309239E0,-6.446963787E0,-9.191388130E0,2.799381256E0,1.157071706E1
6.315334760E0,-6.782271862E0,-1.038666725E1,2.831353664E0,1.272393932E1
6.320360280E0,-6.686571121E0,-1.081413174E1,2.725919247E0,1.300331936E1
6.325385801E0,-6.659312248E0,-1.083745480E1,2.389639854E0,1.294245899E1
6.330411322E0,-6.786521912E0,-1.029906082E1,1.867693305E0,1.247460668E1
6.335436843E0,-6.655233383E0,-8.415720940E0,1.087077856E0,1.078416564E1
6.340462364E0,-5.794406891E0,-4.950932503E0,3.354570866E-1,7.628854129E0
6.345487885E0,-5.057624340E0,-1.787405014E0,-1.221430898E-1,5.365566101E0
6.350513405E0,-4.480017662E0,5.432825089E-1,-3.169792295E-1,4.523957335E0
6.355538926E0,-3.782327175E0,2.247150421E0,-4.666628242E-1,4.424190103E0
6.360564447E0,-2.997108221E0,3.463228703E0,-6.497708559E-1,4.625885094E0
6.365589968E0,-2.157619238E0,4.163234711E0,-7.869228125E-1,4.754691530E0
6.370615489E0,-1.268913269E0,4.333439350E0,-8.036544919E-1,4.586359998E0
6.375641010E0,-4.272842407E-1,4.256758690E0,-7.838277817E-1,4.349362293E0
6.380666530E0,3.563251495E-1,4.235145569E0,-7.593536973E-1,4.317411683E0
6.385692051E0,1.066002369E0,4.312001705E0,-7.441970706E-1,4.503726128E0
6.390717572E0,1.647372603E0,4.473361492E0,-7.103339434E-1,4.819686073E0
6.395743093E0,2.142143965E0,4.633435726E0,-6.446939111E-1,5.145205305E0
6.400768614E0,2.635164022E0,4.720861912E0,-4.821195602E-1,5.427989120E0
6.405794135E0,3.001202583E0,4.735990524E0,-1.864281893E-1,5.609953535E0
6.410819655E0,3.220832586E0,4.664727688E0,1.540321112E-1,5.670729481E0
6.415845176E0,3.298773766E0,4.492964268E0,5.373216867E-1,5.599763465E0
6.420870697E0,3.273787022E0,4.125138283E0,9.665443897E-1,5.354311849E0
6.425896218E0,3.189784765E0,3.537523746E0,1.448979378E0,4.978789245E0
6.430921739E0,3.019274473E0,2.677844048E0,2.153078556E0,4.574124436E0
6.435947260E0,2.821319103E0,1.608890057E0,2.967620850E0,4.399447943E0
6.440972780E0,2.712159634E0,5.943841934E-1,3.633578062E0,4.572963151E0
6.445998301E0,2.845065832E0,-1.690702438E-1,4.042330265E0,4.946050779E0
6.451023822E0,3.175419331E0,-7.001581192E-1,4.169126511E0,5.287260650E0
6.456049343E0,3.533568621E0,-1.113251686E0,4.220439911E0,5.615830264E0
6.461074864E0,3.678174019E0,-1.494054794E0,4.250461102E0,5.816148504E0
6.466100385E0,3.584044218E0,-1.885482788E0,4.289937019E0,5.899489633E0
6.471125905E0,3.284216642E0,-2.220699310E0,4.350290775E0,5.885797670E0
6.476151426E0,2.802872658E0,-2.476248741E0,4.414025784E0,5.785458200E0
6.481176947E0,2.179183960E0,-2.576278687E0,4.381794930E0,5.530477503E0
6.486202468E0,1.643778563E0,-2.445110321E0,4.250086784E0,5.171441783E0
6.491227989E0,1.297400713E0,-2.102644920E0,4.063308239E0,4.755506084E0
6.496253510E0,1.039419889E0,-1.664270401E0,3.875638723E0,4.344049400E0
6.501279030E0,8.407518864E-1,-1.202054977E0,3.645774364E0,3.929818141E0
6.506304551E0,6.866991520E-1,-7.926931381E-1,3.389782429E0,3.548315523E0
6.511330072E0,5.579302311E-1,-4.314632416E-1,3.161945581E0,3.239652224E0
6.516355593E0,4.446246624E-1,-1.422309875E-1,2.944216490E0,2.980995049E0
6.521381114E0,3.513796329E-1,7.511234283E-2,2.727624655E0,2.751189882E0
6.526406635E0,2.349660397E-1,2.159156799E-1,2.517293692E0,2.537438896E0
6.531432155E0,1.001088619E-1,3.185634613E-1,2.336748838E0,2.360487152E0
6.536457676E0,-1.535480022E-1,3.639354706E-1,2.132708788E0,2.168979666E0
6.541483197E0,-4.967379570E-1,3.949623108E-1,1.894712210E0,1.998168707E0
6.546508718E0,-9.144024849E-1,3.635759354E-1,1.560131669E0,1.844540645E0
6.551534239E0,-1.467430115E0,3.268213272E-1,1.090988755E0,1.857530561E0
6.556559760E0,-1.986703873E0,2.842340469E-1,4.786836207E-1,2.063230302E0
6.561585280E0,-2.322562218E0,2.880935669E-1,-1.985779107E-1,2.348771242E0
6.566610801E0,-2.531755686E0,3.287038803E-1,-9.725126028E-1,2.731961540E0
6.571636322E0,-2.571240425E0,4.492807388E-1,-1.764503241E0,3.150651074E0
6.576661843E0,-2.646980047E0,5.591945648E-1,-2.458042622E0,3.655294169E0
6.581687364E0,-2.796977282E0,6.395998001E-1,-3.066080809E0,4.199169125E0
6.586712885E0,-2.896607161E0,7.673616409E-1,-3.553630590E0,4.648383300E0
6.591738405E0,-2.931401730E0,9.235839844E-1,-3.929086685E0,4.988371042E0
6.596763926E0,-2.953674078E0,1.079703331E0,-4.134492874E0,5.194610781E0
6.601789447E0,-2.986783504E0,1.230977058E0,-4.074182034E0,5.199532620E0
6.606814968E0,-2.972841501E0,1.329506874E0,-3.787385941E0,4.994964202E0
6.611840489E0,-2.868381023E0,1.408660412E0,-3.342512608E0,4.624318802E0
6.616866010E0,-2.673460245E0,1.425262928E0,-2.803599119E0,4.127824138E0
6.621891530E0,-2.397929192E0,1.388836861E0,-2.224963188E0,3.553785787E0
6.626917051E0,-2.128232479E0,1.280212402E0,-1.713444114E0,3.017318016E0
6.631942572E0,-1.855163574E0,1.099411011E0,-1.289449453E0,2.512571661E0
6.636968093E0,-1.550435066E0,9.325809479E-1,-8.918095827E-1,2.017146611E0
6.641993614E0,-1.238424063E0,7.318630219E-1,-5.024521947E-1,1.523737461E0
6.647019135E0,-9.197194576E-1,5.595045090E-1,-1.415434480E-1,1.085800960E0
6.652044655E0,-5.806221962E-1,3.725194931E-1,1.184754968E-1,6.999495345E-1
6.657070176E0,-2.169644833E-1,1.853532791E-1,3.247703314E-1,4.323253326E-1
6.662095697E0,1.274149418E-1,2.945899963E-3,4.960491061E-1,5.121600935E-1
6.667121218E0,3.705430031E-1,-1.362972260E-1,6.557758451E-1,7.654547732E-1
6.672146739E0,5.266100168E-1,-2.515211105E-1,8.655171990E-1,1.043887446E0
6.677172260E0,6.432685852E-1,-3.331642151E-1,1.095709562E0,1.313534283E0
6.682197780E0,6.919269562E-1,-3.812961578E-1,1.326760888E0,1.544164540E0
6.687223301E0,7.204430103E-1,-4.055471420E-1,1.538817406E0,1.746844476E0
6.692248822E0,7.146115303E-1,-4.394798279E-1,1.736193657E0,1.928258430E0
6.697274343E0,7.032933235E-1,-4.305324554E-1,1.875480413E0,2.048757300E0
6.702299864E0,6.817741394E-1,-3.787956238E-1,1.966105938E0,2.115153579E0
6.707325385E0,6.120119095E-1,-2.796182632E-1,1.993664742E0,2.104149247E0
6.712350905E0,5.087188482E-1,-1.092395782E-1,1.915377855E0,1.984792302E0
6.717376426E0,4.057781696E-1,1.082286835E-1,1.760285616E0,1.809689150E0
6.722401947E0,3.275578022E-1,3.343572617E-1,1.524279356E0,1.594527029E0
6.727427468E0,2.981772423E-1,5.499696732E-1,1.270447493E0,1.416126103E0
6.732452989E0,3.079338074E-1,7.598896027E-1,1.013672829E0,1.303759196E0
6.737478510E0,3.136823177E-1,9.211149216E-1,7.449787855E-1,1.225496914E0
6.742504030E0,2.817716599E-1,1.019392967E0,5.267686248E-1,1.181542413E0
6.747529551E0,2.122495174E-1,1.102628708E0,3.210464120E-1,1.167865884E0
6.752555072E0,1.291182041E-1,1.118182182E0,1.325024366E-1,1.133384224E0
6.757580593E0,3.747224808E-3,1.085233688E0,-3.878486156E-2,1.085932993E0
6.762606114E0,-9.196591377E-2,1.008589745E0,-1.878159642E-1,1.030041668E0
6.767631635E0,-1.866261959E-1,9.312992096E-1,-3.240438104E-1,1.003569602E0
6.772657155E0,-2.610554695E-1,8.246459961E-1,-4.807752967E-1,9.896139969E-1
6.777682676E0,-3.248639107E-1,7.173519135E-1,-6.339663863E-1,1.010961773E0
6.782708197E0,-3.732023239E-1,5.759115219E-1,-7.930191755E-1,1.048729454E0
6.787733718E0,-4.252879620E-1,4.338626862E-1,-9.720957279E-1,1.146331883E0
6.792759239E0,-4.860146046E-1,2.529821396E-1,-1.185329437E0,1.305839207E0
6.797784760E0,-5.408627987E-1,7.633399963E-2,-1.375032425E0,1.479551829E0
6.802810280E0,-5.753455162E-1,-7.697200775E-2,-1.555307627E0,1.660099083E0
6.807835801E0,-5.514061451E-1,-2.116441727E-1,-1.721009016E0,1.819536761E0
6.812861322E0,-4.881770611E-1,-3.085498810E-1,-1.867063761E0,1.954340543E0
6.817886843E0,-3.855984211E-1,-3.581476212E-1,-1.988399386E0,2.056863627E0
6.822912364E0,-2.150688171E-1,-4.034786224E-1,-2.113516569E0,2.162406503E0
6.827937885E0,-1.033091545E-2,-4.301223755E-1,-2.204046726E0,2.245647781E0
6.832963405E0,2.282607555E-1,-4.858341217E-1,-2.312690258E0,2.374168064E0
6.837988926E0,4.765424728E-1,-5.609445572E-1,-2.429883957E0,2.538914644E0
6.843014447E0,7.580554485E-1,-6.361961365E-1,-2.507878304E0,2.696079964E0
6.848039968E0,1.029521465E0,-7.067689896E-1,-2.570798397E0,2.858048504E0
6.853065489E0,1.285965204E0,-7.725982666E-1,-2.637809515E0,3.034576350E0
6.858091010E0,1.541687727E0,-8.288755417E-1,-2.699357271E0,3.217198376E0
6.863116530E0,1.792006969E0,-8.612699509E-1,-2.736251116E0,3.382328351E0
6.868142051E0,2.017972469E0,-8.506860733E-1,-2.762718678E0,3.525406951E0
6.873167133E0,2.267699718E0,-8.545503616E-1,-2.764077425E0,3.675981821E0
6.878192654E0,2.507915974E0,-8.631601334E-1,-2.787489653E0,3.847698859E0
6.883218175E0,2.715159416E0,-8.907260895E-1,-2.827191591E0,4.019763167E0
6.888243696E0,2.875630856E0,-9.609508514E-1,-2.872395754E0,4.176522085E0
6.893269216E0,2.975365877E0,-1.044804573E0,-2.912240505E0,4.292500840E0
6.898294737E0,3.048406363E0,-1.108530045E0,-2.883167267E0,4.339847198E0
6.903320258E0,3.037477255E0,-1.194925308E0,-2.817814589E0,4.312098517E0
6.908345779E0,2.985754013E0,-1.265470505E0,-2.710677862E0,4.226572737E0
6.913371300E0,2.888461590E0,-1.329733849E0,-2.557053804E0,4.080432161E0
6.918396821E0,2.774177551E0,-1.402183533E0,-2.400604486E0,3.927477772E0
6.923422341E0,2.690551519E0,-1.540384293E0,-2.246918678E0,3.828902557E0
6.928447862E0,2.660940170E0,-1.777985573E0,-2.116541386E0,3.836871476E0
6.933473383E0,2.655764341E0,-2.138927460E0,-2.015730619E0,3.961220121E0
6.938498904E0,2.669099808E0,-2.651837349E0,-1.984445333E0,4.253746395E0
6.943524425E0,2.695046902E0,-3.259059906E0,-2.009496212E0,4.682181575E0
6.948549946E0,2.722897053E0,-3.831123352E0,-2.067717552E0,5.134893414E0
6.953575466E0,2.780353308E0,-4.248085022E0,-2.192509174E0,5.530252015E0
6.958600987E0,2.775856018E0,-4.691346169E0,-2.358960152E0,5.939595820E0
6.963626612E0,2.752309799E0,-5.126914024E0,-2.522501945E0,6.342197782E0
6.968652133E0,2.728755236E0,-5.492207527E0,-2.643367290E0,6.678161370E0
6.973677654E0,2.714656591E0,-5.930518150E0,-2.687057972E0,7.054125494E0
6.978703175E0,2.705022097E0,-6.455947876E0,-2.638723373E0,7.480592795E0
6.983728695E0,2.771196127E0,-7.106580734E0,-2.560589790E0,8.046094567E0
6.988754216E0,2.855164289E0,-7.800924301E0,-2.428988934E0,8.654846637E0
6.993779737E0,2.984729290E0,-8.500551224E0,-2.196537971E0,9.273228084E0
6.998805258E0,3.058495998E0,-9.167145729E0,-1.825701952E0,9.834843477E0
7.003830779E0,2.989799500E0,-9.714780807E0,-1.307928920E0,1.024824596E1
7.008856300E0,2.811953306E0,-1.000043488E1,-7.211162448E-1,1.041325058E1
7.013881820E0,2.338570118E0,-9.656836510E0,2.095583677E-1,9.938174696E0
7.018907341E0,1.532433033E0,-8.862984657E0,1.325536728E0,9.091638777E0
7.023932862E0,4.527876377E-1,-7.616175652E0,2.285808563E0,7.964676327E0
7.028958383E0,-6.729173660E-1,-6.248147964E0,2.867496014E0,6.907583091E0
7.033983904E0,-1.783828497E0,-5.022888184E0,3.091467142E0,6.161868134E0
7.039009425E0,-2.656391382E0,-3.907213211E0,3.138753891E0,5.672257596E0
7.044034945E0,-3.202085972E0,-2.872381210E0,3.023384571E0,5.257830603E0
7.049060466E0,-3.501054049E0,-1.855909348E0,2.730159998E0,4.812021672E0
7.054085987E0,-3.558129787E0,-7.855281830E-1,2.185921192E0,4.249187401E0
7.059111508E0,-3.508614779E0,3.872814178E-1,1.278536916E0,3.754333657E0
7.064137029E0,-3.545405865E0,1.529307842E0,-1.469291449E-1,3.863971195E0
7.069162550E0,-3.703113556E0,2.612680912E0,-2.005327463E0,4.955854093E0
7.074188070E0,-3.901111126E0,3.652557850E0,-4.148008823E0,6.765044276E0
7.079213591E0,-4.034914970E0,4.649565220E0,-6.105710506E0,8.670564938E0
7.084239112E0,-3.942912340E0,5.422205448E0,-7.076168537E0,9.747770556E0
7.089264633E0,-3.698242426E0,5.965553284E0,-6.615447998E0,9.645152940E0
7.094290154E0,-3.540941477E0,6.183159828E0,-4.743676662E0,8.559918240E0
7.099315675E0,-3.318177938E0,6.198549271E0,-2.621884584E0,7.503772162E0
7.104341195E0,-3.044469595E0,6.097131729E0,-5.061781406E-1,6.833741782E0
7.109366716E0,-2.666824579E0,5.954975128E0,1.672871113E0,6.735887460E0
7.114392237E0,-1.922028780E0,5.776839256E0,3.454157829E0,6.999805193E0
7.119417758E0,-1.212543011E0,5.481949329E0,4.585266113E0,7.248909872E0
7.124443279E0,-7.441139221E-1,5.013653755E0,5.165896893E0,7.237190077E0
7.129468800E0,-3.970317841E-1,4.444455624E0,5.293104172E0,6.922988647E0
7.134494320E0,-3.149287701E-1,3.884929657E0,5.313415051E0,6.589706979E0
7.139519841E0,-4.163305759E-1,3.383200645E0,5.209183216E0,6.225348788E0
7.144545362E0,-5.195088387E-1,2.920297623E0,4.900886059E0,5.728587243E0
7.149570883E0,-7.106242180E-1,2.348011971E0,4.529173374E0,5.150879386E0
7.154596404E0,-9.844479561E-1,1.589891911E0,4.148386955E0,4.550385522E0
7.159621925E0,-1.330757856E0,7.894659042E-1,3.841495037E0,4.141407612E0
7.164647445E0,-1.700917244E0,-2.477073669E-2,3.552614212E0,3.938883192E0
7.169672966E0,-2.098672628E0,-8.005151749E-1,3.292532444E0,3.985727191E0
7.174698487E0,-2.570446491E0,-1.471256256E0,3.119576216E0,4.301574816E0
7.179724008E0,-2.861202955E0,-2.042300224E0,3.235143185E0,4.777407663E0
7.184749529E0,-2.984716177E0,-2.451778412E0,3.624640465E0,5.296958234E0
7.189775050E0,-3.041150331E0,-2.671205521E0,4.258284569E0,5.875110360E0
7.194800570E0,-2.910873413E0,-2.648032188E0,4.971662521E0,6.340558865E0
7.199826091E0,-2.632436514E0,-2.391770363E0,5.666827202E0,6.690531967E0
7.204851612E0,-2.287721872E0,-1.930949211E0,6.336997032E0,7.008549608E0
7.209877133E0,-1.839479446E0,-1.317886353E0,6.894517899E0,7.256368660E0
7.214902654E0,-1.322615862E0,-6.526384354E-1,7.180606842E0,7.330509141E0
7.219928175E0,-8.100938797E-1,1.258087158E-2,7.175838947E0,7.221431643E0
7.224953695E0,-2.839410305E-1,6.972799301E-1,6.995179653E0,7.035578170E0
7.229979216E0,1.927491426E-1,1.325157166E0,6.691628456E0,6.824301073E0
7.235004737E0,5.615953207E-1,1.843921185E0,6.289455891E0,6.578198085E0
7.240030258E0,1.161790371E0,1.990887642E0,5.090025425E0,5.587642553E0
7.245055779E0,1.931113482E0,1.675820827E0,3.322510719E0,4.192451813E0
7.250081352E0,2.696765423E0,1.138437271E0,1.466133118E0,3.273855447E0
7.255106872E0,3.270340919E0,5.414247513E-1,-2.172894478E-1,3.321970077E0
7.260132393E0,3.281816483E0,-8.680438995E-2,-1.230794430E0,3.506096028E0
7.265157914E0,2.850718975E0,-6.413698196E-1,-1.639175057E0,3.350350547E0
7.270183435E0,2.207452536E0,-1.031821251E0,-1.800632358E0,3.029814958E0
7.275208956E0,1.482573748E0,-1.296909332E0,-1.839937806E0,2.695435005E0
7.280234477E0,7.636904120E-1,-1.417950630E0,-1.805424809E0,2.419373013E0
7.285259997E0,1.001538038E-1,-1.361925125E0,-1.668897867E0,2.156406947E0
7.290285518E0,-5.305593014E-1,-1.196246147E0,-1.440407515E0,1.946091423E0
7.295311039E0,-1.093583703E0,-9.212312698E-1,-1.168396950E0,1.846549160E0
7.300336560E0,-1.563858271E0,-6.184511185E-1,-8.437349796E-1,1.881494936E0
7.305362081E0,-1.911628485E0,-3.310918808E-1,-4.524505138E-1,1.992148781E0
7.310387602E0,-2.184257507E0,-3.523254395E-2,-6.663691998E-2,2.185557748E0
7.315413122E0,-2.381147861E0,2.308206558E-1,3.088476658E-1,2.412162970E0
7.320438643E0,-2.449316502E0,4.957609177E-1,7.220292687E-1,2.601202890E0
7.325464164E0,-2.393619537E0,7.596244812E-1,1.067694187E0,2.728811961E0
7.330489685E0,-2.252493382E0,1.003308296E0,1.355681300E0,2.813934214E0
7.335515206E0,-2.050400496E0,1.193415642E0,1.581610441E0,2.851293509E0
7.340540727E0,-1.859526873E0,1.344356537E0,1.655339956E0,2.829361246E0
7.345566247E0,-1.689953208E0,1.446610451E0,1.563444614E0,2.719003991E0
7.350591768E0,-1.498935580E0,1.509741783E0,1.297487736E0,2.491907412E0
7.355617289E0,-1.330000877E0,1.567234993E0,9.876590967E-1,2.280482043E0
7.360642810E0,-1.245468616E0,1.619050980E0,7.637108564E-1,2.180773354E0
7.365668331E0,-1.259496689E0,1.655637264E0,5.967456698E-1,2.164156199E0
7.370693852E0,-1.366703868E0,1.672205448E0,4.912078381E-1,2.214821813E0
7.375719372E0,-1.447051525E0,1.711881161E0,4.462577105E-1,2.285528641E0
7.380744893E0,-1.490719795E0,1.769905567E0,3.750573993E-1,2.344243860E0
7.385770414E0,-1.535940170E0,1.798535824E0,3.293867111E-1,2.387957060E0
7.390795935E0,-1.568355322E0,1.817044735E0,3.132069111E-1,2.420638047E0
7.395821456E0,-1.569054365E0,1.801659107E0,2.970588207E-1,2.407519695E0
7.400846977E0,-1.571890712E0,1.795608997E0,3.136675358E-1,2.406956461E0
7.405872497E0,-1.605965614E0,1.799004078E0,3.768481016E-1,2.440810463E0
7.410898018E0,-1.681142807E0,1.792803288E0,4.479148388E-1,2.498201847E0
7.415923539E0,-1.783356309E0,1.805786610E0,5.027506948E-1,2.587273326E0
7.420949060E0,-1.941347718E0,1.809255123E0,4.600313902E-1,2.693299824E0
7.425974581E0,-2.049755573E0,1.812772274E0,4.155644178E-1,2.767731023E0
7.431000102E0,-2.127805471E0,1.849789143E0,3.982292414E-1,2.847430864E0
7.436025622E0,-2.146836281E0,1.896353245E0,3.505781889E-1,2.885821670E0
7.441051143E0,-2.102224827E0,1.947650433E0,2.776043415E-1,2.879193568E0
7.446076664E0,-2.013455868E0,1.965428829E0,2.129212618E-1,2.821745998E0
7.451102185E0,-1.918979049E0,1.944971561E0,1.229702234E-1,2.735053316E0
7.456127706E0,-1.818938375E0,1.924602032E0,6.517148018E-2,2.648938865E0
7.461153227E0,-1.689423800E0,1.918692112E0,7.755267620E-2,2.557644739E0
7.466178747E0,-1.554668188E0,1.922470570E0,4.529714584E-2,2.472840087E0
7.471204268E0,-1.438753605E0,1.878549099E0,1.153993607E-2,2.366240018E0
7.476229789E0,-1.332524180E0,1.815740108E0,-2.370417118E-2,2.252353152E0
7.481255310E0,-1.255306125E0,1.710133076E0,-4.098272324E-2,2.121798338E0
7.486280831E0,-1.183439970E0,1.566632748E0,-5.958735943E-2,1.964285871E0
7.491306352E0,-1.131384850E0,1.366172791E0,-1.560262442E-1,1.780675142E0
7.496331872E0,-1.099069476E0,1.132699966E0,-2.343522310E-1,1.595582619E0
7.501357393E0,-1.076831222E0,8.758010864E-1,-2.945165634E-1,1.418919670E0
7.506382914E0,-1.002487063E0,6.385078430E-1,-3.123860359E-1,1.228925390E0
7.511408435E0,-8.761786222E-1,4.543008804E-1,-2.833195925E-1,1.026814618E0
7.516433956E0,-6.932073832E-1,2.704935074E-1,-2.790095806E-1,7.947009247E-1
7.521459477E0,-4.776879549E-1,1.253595352E-1,-2.850239277E-1,5.702099917E-1
7.526484997E0,-2.727535963E-1,3.800010681E-2,-3.826893568E-1,4.714760611E-1
7.531510518E0,-4.975914955E-2,-2.513980865E-2,-5.813426971E-1,5.840096870E-1
7.536536039E0,2.581150532E-1,-1.454496384E-1,-7.799111605E-1,8.342903549E-1
7.541561560E0,5.551363230E-1,-2.464160919E-1,-9.587723017E-1,1.134963239E0
7.546587081E0,8.838671446E-1,-3.567762375E-1,-1.126782179E0,1.475855173E0
7.551612602E0,1.281699538E0,-4.190740585E-1,-1.187620401E0,1.796891480E0
7.556638122E0,1.676102519E0,-4.619817734E-1,-1.193661809E0,2.108927530E0
7.561663643E0,2.004257917E0,-5.236530304E-1,-1.259770155E0,2.424517094E0
7.566689164E0,2.217988491E0,-5.704898834E-1,-1.357249022E0,2.662152618E0
7.571714685E0,2.288782358E0,-6.215734482E-1,-1.448295474E0,2.778927494E0
7.576740206E0,2.255568504E0,-6.099262238E-1,-1.562347293E0,2.810787850E0
7.581765727E0,2.123968840E0,-5.452232361E-1,-1.666561365E0,2.754258302E0
7.586791247E0,1.971290350E0,-4.706249237E-1,-1.708839417E0,2.650963148E0
7.591816768E0,1.850867867E0,-3.288688660E-1,-1.684573770E0,2.524213814E0
7.596842289E0,1.691308856E0,-1.392412186E-1,-1.541243792E0,2.292454185E0
7.601867810E0,1.540938258E0,7.900142670E-2,-1.346051574E0,2.047580714E0
7.606893331E0,1.400193453E0,2.874879837E-1,-1.137303472E0,1.826650003E0
7.611918852E0,1.245398641E0,5.052709579E-1,-9.529993534E-1,1.647581343E0
7.616944372E0,1.038805008E0,6.652717590E-1,-8.024376631E-1,1.471600680E0
7.621969893E0,8.002261519E-1,8.152408600E-1,-6.948212385E-1,1.337069971E0
7.626995414E0,6.161863804E-1,9.550685883E-1,-5.866208076E-1,1.279048723E0
7.632020935E0,4.632420540E-1,1.089440346E0,-4.872038364E-1,1.280172272E0
7.637046456E0,4.134256840E-1,1.242193222E0,-4.489238262E-1,1.384014956E0
7.642071977E0,3.614776134E-1,1.413260460E0,-4.188624620E-1,1.517701207E0
7.647097497E0,2.837905884E-1,1.530828953E0,-3.682531118E-1,1.599870224E0
7.652123018E0,1.996680498E-1,1.614060879E0,-3.400970697E-1,1.661543219E0
7.657148539E0,1.762086153E-1,1.706014156E0,-2.960926294E-1,1.740461037E0
7.662174060E0,1.751571894E-1,1.782770634E0,-2.364478111E-1,1.806892011E0
7.667199581E0,2.058767080E-1,1.839652538E0,-1.472777128E-1,1.856986108E0
7.672225102E0,2.538937330E-1,1.824142933E0,-7.209491730E-2,1.843137853E0
7.677250622E0,3.332681656E-1,1.836879253E0,-1.144254208E-2,1.866902245E0
7.682276143E0,4.102844000E-1,1.825304508E0,1.514136791E-2,1.870908629E0
7.687301664E0,5.085564852E-1,1.803906918E0,4.547905922E-2,1.874774176E0
7.692327185E0,6.134990454E-1,1.796700001E0,6.001198292E-2,1.899503464E0
7.697352706E0,8.061614633E-1,1.837211132E0,6.330049038E-2,2.007298682E0
7.702378227E0,8.994914293E-1,1.891994476E0,2.650535107E-2,2.095096767E0
7.707403747E0,1.018256545E0,1.965753555E0,7.027745247E-3,2.213838933E0
7.712429268E0,1.148101568E0,2.044093132E0,-2.859127522E-2,2.344626069E0
7.717454789E0,1.294153929E0,2.155578613E0,-2.746713161E-2,2.514380240E0
7.722480310E0,1.566327810E0,2.271392822E0,-2.747917175E-2,2.759232369E0
7.727505831E0,1.696547031E0,2.343657970E0,-7.613265514E-2,2.894270321E0
7.732531352E0,1.642833233E0,2.310008049E0,-1.300294399E-1,2.837595086E0
7.737556872E0,1.621573091E0,2.265955925E0,-1.362998486E-1,2.789737119E0
7.742582393E0,1.442281365E0,2.015189171E0,-1.570857763E-1,2.483110725E0
7.747607914E0,1.201451063E0,1.428602695E0,-1.300339699E-1,1.871175874E0
7.752633435E0,1.066614389E0,5.304040909E-1,1.074999571E-1,1.196056435E0
7.757658956E0,1.065488577E0,-6.835308075E-1,6.306313276E-1,1.414275837E0
7.762684477E0,1.019276500E0,-2.508329391E0,1.448862314E0,3.070804931E0
7.767709997E0,6.434201002E-1,-4.960844040E0,2.416501045E0,5.555487406E0
7.772735518E0,-1.981043816E-1,-7.652114868E0,3.120167732E0,8.266169245E0
7.777761039E0,-1.363398790E0,-1.041942883E1,3.559641123E0,1.109479149E1
7.782786560E0,-2.499499798E0,-1.308166122E1,3.828584671E0,1.385768452E1
7.787812081E0,-2.833570004E0,-1.463979721E1,3.948819637E0,1.542549701E1
7.792837602E0,-2.264874220E0,-1.422912121E1,4.131493568E0,1.498888871E1
7.797863122E0,-2.327610254E0,-1.378356171E1,4.609105110E0,1.471897390E1
7.802888643E0,-2.873289347E0,-1.370944500E1,5.344209194E0,1.499217282E1
7.807914164E0,-3.432541847E0,-1.332692337E1,6.320332050E0,1.514383793E1
7.812939685E0,-3.636114836E0,-1.218610001E1,7.289311886E0,1.465798186E1
7.817965206E0,-3.558656693E0,-9.727818489E0,7.494130611E0,1.278501011E1
7.822990727E0,-3.195899010E0,-6.375080109E0,6.751304626E0,9.820159420E0
7.828016247E0,-2.668009043E0,-3.254003525E0,5.433027744E0,6.872015837E0
7.833041768E0,-2.163611889E0,-6.905479431E-1,3.990431070E0,4.591471768E0
7.838067289E0,-1.652546644E0,1.472964287E0,2.569624662E0,3.391681752E0
7.843092810E0,-1.139556170E0,3.298679352E0,1.221623421E0,3.697598885E0
7.848118331E0,-7.401952744E-1,4.762810230E0,-4.040616751E-2,4.820153835E0
7.853143852E0,-4.073238373E-1,5.750830173E0,-1.107483864E0,5.870645697E0
7.858169372E0,-1.896221638E-1,6.349417686E0,-1.852627993E0,6.616894438E0
7.863194893E0,-4.437327385E-2,6.788623810E0,-2.431824207E0,7.211182371E0
7.868220414E0,-4.826283455E-2,7.183468819E0,-3.030098915E0,7.796541092E0
7.873245935E0,-2.341051102E-1,7.634384632E0,-3.732332945E0,8.501114228E0
7.878271456E0,-5.387270451E-1,8.031218529E0,-4.475212574E0,9.209681073E0
7.883296977E0,-8.609290123E-1,8.321413040E0,-5.114576340E0,9.805406921E0
7.888322497E0,-1.143093586E0,8.318677902E0,-5.401890278E0,9.984361951E0
7.893348018E0,-1.647753716E0,7.942082405E0,-5.366655827E0,9.725880937E0
7.898373539E0,-2.378411293E0,7.043740273E0,-5.038917542E0,8.981191864E0
7.903399060E0,-3.309322357E0,5.738850117E0,-4.558578491E0,8.041557871E0
7.908424581E0,-4.194381714E0,4.161494255E0,-4.017185688E0,7.144834025E0
7.913450102E0,-4.902968884E0,2.469570637E0,-3.496696234E0,6.508822286E0
7.918475622E0,-5.347761154E0,7.872934341E-1,-3.002509356E0,6.183319719E0
7.923501143E0,-5.456593990E0,-7.085628510E-1,-2.534863710E0,6.058218659E0
7.928526664E0,-5.206172943E0,-1.898676872E0,-2.103696823E0,5.927457372E0
7.933552185E0,-4.689016342E0,-2.749769211E0,-1.680235982E0,5.689578009E0
7.938577706E0,-4.031546593E0,-3.290661812E0,-1.316644669E0,5.367995554E0
7.943603227E0,-3.217038631E0,-3.540451050E0,-1.050064206E0,4.897628613E0
7.948628747E0,-2.248243093E0,-3.436793327E0,-9.841999412E-1,4.223126201E0
7.953654268E0,-1.228316069E0,-2.979552269E0,-9.882138968E-1,3.370913644E0
7.958679789E0,-2.311303616E-1,-2.307356834E0,-9.080911875E-1,2.490370737E0
7.963705310E0,6.508446932E-1,-1.472667694E0,-5.862349868E-1,1.713481955E0
7.968730831E0,1.240002990E0,-6.572036743E-1,-2.382794023E-2,1.403599606E0
7.973756352E0,1.536235332E0,-6.644630432E-2,4.616937041E-1,1.605489080E0
7.978781872E0,1.549543262E0,3.142404556E-1,8.641767502E-1,1.801841513E0
7.983807393E0,1.362254381E0,5.519227982E-1,1.397491455E0,2.028136618E0
7.988832914E0,1.089904666E0,6.801528931E-1,2.022125483E0,2.395723608E0
7.993858435E0,8.047803640E-1,7.563791275E-1,2.684212208E0,2.902546467E0
7.998883956E0,5.310442448E-1,7.615194321E-1,3.205895424E0,3.337616710E0
8.003909477E0,2.593657970E-1,6.956405640E-1,3.581782579E0,3.657916464E0
8.008934997E0,-6.712365150E-2,6.113634109E-1,3.834952831E0,3.883958551E0
8.013960518E0,-3.518536091E-1,4.989938736E-1,4.026502609E0,4.072532272E0
8.018986039E0,-5.607795715E-1,4.063072205E-1,4.145761967E0,4.203201348E0
8.024011560E0,-6.313738823E-1,2.710685730E-1,4.129524231E0,4.186296875E0
8.029037081E0,-6.115841866E-1,1.507558823E-1,3.991786957E0,4.041178747E0
8.034062602E0,-5.496430397E-1,3.589439392E-2,3.804183245E0,3.843853020E0
8.039088122E0,-4.842534065E-1,-6.466865540E-3,3.581128836E0,3.613727566E0
8.044113643E0,-4.443995953E-1,-5.288410187E-2,3.308547735E0,3.338678757E0
8.049139164E0,-4.638767242E-1,-4.113101959E-2,3.058631897E0,3.093881455E0
8.054164685E0,-4.899699688E-1,1.429462433E-2,2.779484034E0,2.822376020E0
8.059190206E0,-5.559825897E-1,1.275739670E-1,2.500631809E0,2.564868652E0
8.064215727E0,-6.329164505E-1,2.602310181E-1,2.237336397E0,2.339653301E0
8.069241247E0,-7.153663635E-1,3.881063461E-1,1.980954647E0,2.141624823E0
8.074266768E0,-7.933561802E-1,5.062665939E-1,1.741862178E0,1.979849423E0
8.079292289E0,-8.522391319E-1,6.241722107E-1,1.520845771E0,1.851721995E0
8.084317810E0,-8.583595753E-1,7.321825027E-1,1.323349357E0,1.739001408E0
8.089343331E0,-8.499391079E-1,8.111438751E-1,1.159504890E0,1.650697569E0
8.094368852E0,-8.698804379E-1,8.897466660E-1,9.770303965E-1,1.582064949E0
8.099394372E0,-9.227216244E-1,9.488153458E-1,7.858566642E-1,1.539232423E0
8.104419893E0,-9.697556496E-1,9.643688202E-1,6.052405834E-1,1.495576613E0
8.109445414E0,-1.020458221E0,9.507980347E-1,4.493176639E-1,1.465345777E0
8.114470935E0,-1.060188532E0,9.272003174E-1,2.937591672E-1,1.438747580E0
8.119496456E0,-1.093566656E0,8.983240128E-1,1.381309181E-1,1.421954364E0
8.124521977E0,-1.134733200E0,8.306379318E-1,-1.803706586E-2,1.406379801E0
8.129547497E0,-1.154620409E0,7.001752853E-1,-1.605631113E-1,1.359843459E0
8.134573018E0,-1.143428564E0,5.212850571E-1,-3.182504177E-1,1.296321843E0
8.139598539E0,-1.057840586E0,2.939462662E-1,-4.860130250E-1,1.200683044E0
8.144624060E0,-8.690412045E-1,8.989715576E-2,-6.445034146E-1,1.085678942E0
8.149649581E0,-6.108231544E-1,-1.004018784E-1,-8.315513134E-1,1.036659563E0
8.154675102E0,-2.885427475E-1,-2.433643341E-1,-9.846642017E-1,1.054536252E0
8.159700622E0,9.719371796E-2,-3.245515823E-1,-1.122630358E0,1.172637740E0
8.164726143E0,4.594631195E-1,-3.820829391E-1,-1.240289330E0,1.376739392E0
8.169751664E0,8.120883703E-1,-3.871326447E-1,-1.327931881E0,1.603983256E0
8.174777185E0,1.135423899E0,-3.922052383E-1,-1.390127659E0,1.837244482E0
8.179802706E0,1.429136276E0,-3.637046814E-1,-1.412421584E0,2.041971186E0
8.184828227E0,1.678672791E0,-3.350601196E-1,-1.399587870E0,2.211120491E0
8.189853747E0,1.879060030E0,-3.157358170E-1,-1.384886742E0,2.355518412E0
8.194879268E0,1.982304096E0,-3.008508682E-1,-1.363500237E0,2.424700739E0
8.199904789E0,2.012559652E0,-3.095340729E-1,-1.297063828E0,2.414245694E0
8.204930310E0,1.993932247E0,-3.513383865E-1,-1.233573675E0,2.370845520E0
8.209955831E0,1.940923214E0,-3.832044601E-1,-1.139755487E0,2.283215091E0
8.214981352E0,1.906429768E0,-3.956441879E-1,-1.044483662E0,2.209514630E0
8.220006872E0,1.880850077E0,-4.173765182E-1,-9.575070143E-1,2.151422750E0
8.225032393E0,1.830659270E0,-4.196958542E-1,-9.029268622E-1,2.083922957E0
8.230057914E0,1.770220280E0,-4.074144363E-1,-8.378939629E-1,2.000433117E0
8.235083435E0,1.680475235E0,-3.853569031E-1,-7.673175335E-1,1.887133582E0
8.240108956E0,1.604646325E0,-3.392333984E-1,-7.296181917E-1,1.795079896E0
