"Time (s)","Linear Acceleration x (m/s^2)","Linear Acceleration y (m/s^2)","Linear Acceleration z (m/s^2)","Absolute acceleration (m/s^2)"
7.616371200E-2,0.000000000E0,0.000000000E0,0.000000000E0,0.000000000E0
8.616657700E-2,8.562046885E-1,8.935613632E-1,1.999999955E-2,1.237714983E0
9.616397200E-2,4.641364813E-1,2.303027153E0,-9.333332628E-2,2.351184351E0
1.061639720E-1,3.781023622E-1,3.268473625E0,-3.999999911E-2,3.290513825E0
1.161661600E-1,1.784888387E0,4.344863892E0,1.303851582E-9,4.697197972E0
1.261708990E-1,2.448738575E0,5.143223763E0,3.333333135E-2,5.696506156E0
1.362231390E-1,2.778342247E0,6.133420944E0,6.285714358E-2,6.733646051E0
1.461611600E-1,2.526331902E0,7.122893333E0,-8.500000089E-2,7.558120621E0
1.561871490E-1,2.299798489E0,6.436720848E0,-3.999999911E-2,6.835352834E0
1.661681390E-1,1.950026393E0,5.599305153E0,1.394295454E0,6.090885070E0
1.761657950E-1,7.647404671E-1,3.015092850E0,1.385627389E0,3.405227766E0
1.861652740E-1,6.358591318E-1,1.032756805E0,2.189300537E0,2.502786506E0
1.961657950E-1,4.661395550E-1,-5.703907013E-1,2.173139572E0,2.294595223E0
2.061626700E-1,-4.611738920E-1,-1.496478081E0,2.765458107E0,3.178031867E0
2.161702220E-1,-4.524577856E-1,-2.193969727E0,2.562343121E0,3.403501649E0
2.261639720E-1,-3.883486986E-1,-2.825201035E0,2.298328876E0,3.662634465E0
2.361657950E-1,3.148341179E-1,-3.929923058E0,2.071892738E0,4.453779887E0
2.461668370E-1,4.289252758E-1,-3.787149429E0,1.339272499E0,4.039817882E0
2.561650140E-1,1.177842140E0,-3.568879128E0,1.256556511E0,3.962719344E0
2.661603270E-1,1.180002928E0,-3.371435165E0,1.192320824E0,3.765715195E0
2.761629310E-1,1.191384554E0,-3.191843033E0,1.134308696E0,3.590809842E0
2.861590240E-1,1.182441711E0,-3.027667999E0,1.062934399E0,3.419761900E0
2.961628270E-1,1.076820135E0,-2.972552299E0,9.899606705E-1,3.312948974E0
3.061814720E-1,1.920645237E-1,-1.090953827E0,9.205522537E-1,1.440307427E0
3.161946490E-1,-8.098955154E-1,-5.208778381E-2,7.554336786E-1,1.108748811E0
3.261713680E-1,-2.112780094E0,8.068380356E-1,-1.403167248E-1,2.265947070E0
3.361717850E-1,-1.996010423E0,9.267473221E-1,-2.289887667E-1,2.212544703E0
3.461648060E-1,-2.079010010E0,1.738252640E0,-1.786654711E0,3.245911261E0
3.561767330E-1,-1.968699336E0,1.661386490E0,-1.686425209E0,3.078962834E0
3.661741290E-1,-1.827773571E0,-1.746740341E-1,-1.554605126E0,2.405839634E0
3.761743890E-1,-1.731905580E0,-1.484680176E0,-1.467273593E0,2.712317083E0
3.861767330E-1,-1.834575176E0,-2.968113899E0,-1.577962399E0,3.829534114E0
3.961762120E-1,-1.741793513E0,-2.861405373E0,-1.492728114E0,3.667386341E0
4.061730870E-1,-1.653170824E0,-3.990077019E0,-2.653578281E0,5.069039957E0
4.161790770E-1,-1.568360567E0,-4.028054237E0,-2.734713078E0,5.115039728E0
4.261759520E-1,-1.487053394E0,-4.759291649E0,-3.683839560E0,6.199424062E0
4.361759520E-1,-1.603709936E0,-4.664141178E0,-3.709260702E0,6.171281345E0
4.461764720E-1,-1.523614764E0,-4.518316269E0,-4.417602062E0,6.500137832E0
4.561717850E-1,-1.446524382E0,-4.315424919E0,-4.356927395E0,6.300646105E0
4.661741290E-1,-1.372218966E0,-3.483798027E0,-4.284660339E0,5.690179945E0
4.761667330E-1,-1.300499439E0,-3.293185234E0,-4.188466072E0,5.484488656E0
4.861550140E-1,-1.426534414E0,-1.947364807E0,-4.043446541E0,4.709213316E0
4.961546490E-1,-1.355022192E0,-1.883561134E0,-3.847537756E0,4.493042897E0
5.061622020E-1,-1.285799503E0,-1.822148323E0,-3.104088306E0,3.822155032E0
5.161684520E-1,-1.218716979E0,-1.762971878E0,-2.974997520E0,3.666599401E0
5.261775140E-1,-1.153637767E0,-1.705886841E0,-2.833756924E0,3.503014175E0
5.361754310E-1,-1.286270380E0,-1.748681068E0,-2.706489801E0,3.469504866E0
5.461782950E-1,-1.220836163E0,-1.693402290E0,-2.572304487E0,3.312823966E0
5.561657950E-1,-1.157219529E0,-1.639933586E0,-2.446939468E0,3.164814681E0
5.661631910E-1,-1.056503773E0,-1.569165230E0,-2.265884638E0,2.951730498E0
5.761648060E-1,-1.193550944E0,-1.618048668E0,-2.165507793E0,2.955007505E0
5.861657950E-1,-1.132188797E0,-1.568455696E0,-2.084596872E0,2.843844029E0
5.961650140E-1,-1.072330832E0,-1.520301819E0,-2.039875269E0,2.760851707E0
6.061637640E-1,-1.013896346E0,-1.473510742E0,-2.021571398E0,2.699253716E0
6.161655350E-1,-9.568104148E-1,-1.428009987E0,-2.021246910E0,2.653325793E0
6.261634520E-1,-1.097555041E0,-1.482009888E0,-2.012334824E0,2.729555242E0
6.361707430E-1,-1.039630294E0,-1.437230110E0,-2.000929117E0,2.673981838E0
6.461637120E-1,-9.829698205E-1,-1.393609047E0,-1.982625842E0,2.615182799E0
6.563067330E-1,-9.275112748E-1,-1.351091385E0,-1.953641176E0,2.549988028E0
6.661528270E-1,-8.731966019E-1,-1.309621811E0,-1.920382500E0,2.483032529E0
6.761598060E-1,-1.016796708E0,-1.367564201E0,-1.873885989E0,2.532894805E0
6.861616810E-1,-9.615342617E-1,-1.326508522E0,-1.825761080E0,2.453074910E0
6.961642330E-1,-9.073567986E-1,-1.286407471E0,-1.800500751E0,2.391640335E0
7.061707430E-1,-8.542150259E-1,-1.247220039E0,-1.790190578E0,2.343079905E0
7.161663160E-1,-8.020626307E-1,-1.208903313E0,-1.807319999E0,2.317575729E0
7.261642330E-1,-9.479146004E-1,-1.269948959E0,-1.828785300E0,2.419869443E0
7.361639720E-1,-8.947564363E-1,-1.231834412E0,-1.849163175E0,2.395289032E0
7.461686600E-1,-8.032809496E-1,-1.175047874E0,-1.890392780E0,2.366343731E0
7.561702220E-1,-7.526798844E-1,-1.139004707E0,-1.877421975E0,2.321329792E0
7.661657950E-1,-9.001773596E-1,-1.202305794E0,-1.843975306E0,2.378256384E0
7.761652740E-1,-8.485533595E-1,-1.166329384E0,-1.797774076E0,2.304855454E0
7.861648060E-1,-7.977726460E-1,-1.131044388E0,-1.730975628E0,2.216298542E0
7.961603270E-1,-7.478019595E-1,-1.096426010E0,-1.641669750E0,2.111027554E0
8.061670970E-1,-6.986097693E-1,-1.062445641E0,-1.547599077E0,2.002975100E0
8.161634520E-1,-8.476018906E-1,-1.127799034E0,-1.439875484E0,2.015837552E0
8.261652740E-1,-7.973791361E-1,-1.093776703E0,-8.352062106E-1,1.590512614E0
8.362624100E-1,-7.479118705E-1,-1.060354233E0,-7.920933962E-1,1.520241827E0
8.461616810E-1,-6.991721988E-1,-1.027510643E0,-7.391853333E-1,1.446034177E0
8.561497020E-1,-6.511335373E-1,-9.952230453E-1,-7.021192908E-1,1.381092065E0
8.661824620E-1,-8.013607860E-1,-1.062268257E0,-6.739581227E-1,1.491580541E0
8.761644930E-1,-7.522969842E-1,-1.029860497E0,-6.874734163E-1,1.448855787E0
8.861660560E-1,-7.039170265E-1,-9.979791641E-1,-7.273237109E-1,1.421429341E0
8.961673580E-1,-6.561970115E-1,-9.666080475E-1,-7.947604656E-1,1.413000295E0
9.061702220E-1,-6.091143489E-1,-9.357271194E-1,-8.714396954E-1,1.416337769E0
9.161637120E-1,-7.603743672E-1,-1.004184723E0,-1.462071061E0,1.929820697E0
9.261626700E-1,-6.690348387E-1,-9.481153488E-1,-1.537862301E0,1.926538550E0
9.361642330E-1,-6.185508966E-1,-9.126472473E-1,-1.581753016E0,1.928074898E0
9.461660560E-1,-5.689083934E-1,-8.777694702E-1,-1.611397743E0,1.921129535E0
9.561723060E-1,-7.167598605E-1,-9.418067932E-1,-1.633547664E0,2.017231445E0
9.661637120E-1,-6.654805541E-1,-9.064435959E-1,-1.639554262E0,1.988125383E0
9.761637120E-1,-6.150558591E-1,-8.716688156E-1,-1.641306520E0,1.957546251E0
9.861624100E-1,-5.654715896E-1,-8.374748230E-1,-1.624922276E0,1.913503227E0
9.961634520E-1,-5.167137384E-1,-8.038501740E-1,-1.597791433E0,1.861748010E0
1.006180379E0,-6.654351354E-1,-8.691196442E-1,-1.556646466E0,1.902976904E0
1.016284181E0,-6.150112748E-1,-8.349685669E-1,-1.508353233E0,1.830448265E0
1.026153243E0,-5.654277205E-1,-8.013849258E-1,-1.449185967E0,1.749876074E0
1.036151472E0,-5.166705847E-1,-7.683620453E-1,-1.395258307E0,1.674537091E0
1.046181993E0,-4.687260985E-1,-7.358884811E-1,-1.350775480E0,1.608051744E0
1.056176472E0,-6.182472706E-1,-8.022899628E-1,-1.333808303E0,1.674796543E0
1.066166837E0,-5.686098337E-1,-7.692518234E-1,-1.345375776E0,1.650788142E0
1.076163452E0,-5.197996497E-1,-7.367639542E-1,-1.391119361E0,1.657777390E0
1.086168920E0,-4.718029797E-1,-7.048187256E-1,-1.470997214E0,1.697998908E0
1.096164493E0,-4.246062636E-1,-6.734046936E-1,-2.176547050E0,2.317567998E0
1.106175691E0,-5.355294943E-1,-7.211818695E-1,-2.293226719E0,2.462881222E0
1.116162670E0,-4.872706532E-1,-6.894950867E-1,-2.340940475E0,2.488541435E0
1.126164233E0,1.155164957E0,-6.583375931E-1,-2.381941795E0,2.727904174E0
1.136162410E0,1.857309818E0,-6.326379776E-1,-2.421515703E0,3.116659890E0
1.146166316E0,1.998013258E0,-7.063312531E-1,-2.409564018E0,3.208887592E0
1.156168920E0,2.960763454E0,1.158766747E0,-2.348092079E0,3.952517807E0
1.166167879E0,2.993761778E0,1.283788681E0,-2.238881588E0,3.952633771E0
1.176160847E0,2.965858459E0,2.259534836E0,-1.560691833E0,4.041976382E0
1.186164233E0,2.846259594E0,2.390738487E0,-1.440142751E0,3.986331062E0
1.196256004E0,1.923797727E0,3.434430122E0,-7.361900806E-1,4.004782615E0
1.206165327E0,1.015052676E0,3.545362473E0,-6.399559975E-1,3.742922745E0
1.216149024E0,-6.636787057E-1,4.389975548E0,2.970933914E-2,4.439959164E0
1.226168087E0,-6.185243130E-1,4.434869766E0,1.225271225E-1,4.479470400E0
1.236163712E0,-1.904713154E0,4.459819794E0,1.554965496E0,5.092724466E0
1.246166577E0,-2.626276731E0,4.423676491E0,1.383624196E0,5.327350099E0
1.256175431E0,-2.755630970E0,4.319972992E0,1.412143469E0,5.315055773E0
1.266166577E0,-3.642037868E0,3.633152008E0,1.440526247E0,5.342223247E0
1.276168920E0,-3.689707041E0,3.465712547E0,1.468775988E0,5.270901669E0
1.286163191E0,-3.809647560E0,2.482089043E0,3.164185047E0,5.539516907E0
1.296161889E0,-3.867476940E0,2.417309761E0,3.169341564E0,5.553871651E0
1.306174129E0,-4.488563538E0,2.397811890E0,3.151465416E0,5.985686156E0
1.316162410E0,-4.512681007E0,2.432271004E0,3.128230810E0,6.005502486E0
1.326163972E0,-4.573399544E0,2.508703232E0,3.095514059E0,6.065623017E0
1.336162670E0,-4.641536236E0,2.592323303E0,3.035133839E0,6.121767405E0
1.346165014E0,-5.212627411E0,2.652915955E0,2.921582699E0,6.537973161E0
1.356167618E0,-5.129577637E0,2.698345184E0,1.252668977E0,5.929824030E0
1.366163712E0,-4.975057602E0,2.725713730E0,1.283164024E0,5.816117553E0
1.376232149E0,-3.775910854E0,2.756868362E0,1.313506007E0,4.856245873E0
1.386172097E0,-2.674322367E0,2.781561852E0,1.145147204E0,4.024978084E0
1.396148608E0,-1.221742392E0,2.781157494E0,1.176621079E0,3.257595530E0
1.406162149E0,-1.684937179E-1,2.778449059E0,-3.497563601E-1,2.805440931E0
1.416163972E0,2.074742317E0,2.807854652E0,-1.030710459E0,3.640187836E0
1.426163452E0,3.471788406E0,2.865155220E0,-1.147856712E0,4.645428312E0
1.436163972E0,4.543104172E0,2.907691002E0,-1.229202628E0,5.532214889E0
1.446168139E0,5.293228626E0,2.903276443E0,-1.293999791E0,6.174278813E0
1.456170222E0,5.344693184E0,2.833722115E0,-1.354117632E0,6.199141942E0
1.466164806E0,5.146311283E0,1.795256615E0,-1.254149795E0,5.592884573E0
1.476163712E0,3.774516821E0,1.105820656E0,-3.075454235E-1,3.945174361E0
1.486167358E0,2.799014568E0,2.529363632E-1,1.224160194E0,3.065457150E0
1.496164493E0,1.934882402E0,-1.395124435E0,1.255732417E0,2.695738490E0
1.506172045E0,1.226400614E0,-1.366018295E0,1.287151337E0,2.242057763E0
1.516165274E0,1.111875176E0,-2.580554008E0,2.258366585E0,3.604961169E0
1.526166316E0,9.968324900E-1,-3.432911873E0,2.349875212E0,4.277905147E0
1.536161368E0,9.252964258E-1,-4.274169922E0,2.972395897E0,5.287706437E0
1.546165014E0,9.208856821E-1,-5.087828159E0,2.961612701E0,5.958621956E0
1.556219181E0,9.748404622E-1,-5.807313442E0,2.954846859E0,6.588347540E0
1.566168712E0,1.079505444E0,-6.438870907E0,2.936969042E0,7.158922943E0
1.576150691E0,1.781746149E0,-6.554813862E0,2.875331402E0,7.376159893E0
1.586162722E0,1.832551241E0,-7.648101807E0,2.824453354E0,8.356389295E0
1.596175170E0,1.855858445E0,-7.756484032E0,2.831732273E0,8.463212320E0
1.606162202E0,1.879623413E0,-8.762282372E0,2.874963760E0,9.411481985E0
1.616172827E0,1.884275913E0,-8.835005760E0,2.925063610E0,9.495463107E0
1.626180639E0,1.852808475E0,-9.492894173E0,2.966486454E0,1.011671789E1
1.636171264E0,1.780207157E0,-9.500846863E0,3.000346899E0,1.012113186E1
1.646178816E0,8.672055006E-1,-1.053730011E1,3.107128143E0,1.102002651E1
1.656175691E0,7.797343731E-1,-1.043444252E1,3.755702972E0,1.111714357E1
1.666173868E0,6.835901141E-1,-1.053138065E1,3.796842575E0,1.121576067E1
1.676175691E0,-5.852111578E-1,-1.042930126E1,3.878705263E0,1.114258280E1
1.686173347E0,-5.420039892E-1,-1.032818794E1,4.600753784E0,1.131954813E1
1.696172566E0,-4.990682900E-1,-1.022802353E1,4.625681877E0,1.123647931E1
1.706173868E0,-4.563993216E-1,-1.012879086E1,4.644143581E0,1.115207488E1
1.716164910E0,-6.128363013E-1,-1.022931767E1,4.681374073E0,1.126631135E1
1.726171785E0,-5.695441961E-1,-1.013075829E1,4.695904255E0,1.118070484E1
1.736195952E0,-5.265182257E-1,-1.003309727E1,4.671181202E0,1.107972003E1
1.746169233E0,-4.837539494E-1,-8.719686508E0,4.626975536E0,9.883109495E0
1.756150118E0,-4.412468672E-1,-8.650691986E0,4.595133305E0,9.805326141E0
1.766162410E0,-5.978690386E-1,-8.594583511E0,4.588721275E0,9.761182104E0
1.776177514E0,1.021690607E0,-8.539999008E0,4.643485546E0,9.774323136E0
1.786177514E0,1.082397938E0,-8.442897797E0,4.736826897E0,9.741233882E0
1.796175691E0,1.158899426E0,-8.304012299E0,5.529583931E0,1.004370283E1
1.806165014E0,1.253979206E0,-7.578562260E0,5.593785763E0,9.502500141E0
1.816165274E0,1.977755666E0,-7.453590870E0,6.367935181E0,1.000090660E1
1.826164806E0,2.133655548E0,-5.682306290E0,8.197838783E0,1.020027703E1
1.836163712E0,3.064850330E0,-4.292490959E0,1.025562668E1,1.153241799E1
1.846167358E0,4.006042957E0,-2.965281487E0,1.022067738E1,1.137117059E1
1.856175691E0,5.224794388E0,-2.180247307E0,1.182195377E1,1.310765218E1
1.866162670E0,6.441835880E0,-2.165270805E0,1.279051208E1,1.448388230E1
1.876163972E0,7.615906239E0,-2.258226395E0,1.368773270E1,1.582579036E1
1.886162149E0,9.066192627E0,-3.234100342E0,1.375616074E1,1.678949707E1
1.896165274E0,9.038868904E0,-4.201374054E0,1.368996811E1,1.693422339E1
1.906168920E0,8.912449837E0,-5.511127472E0,1.343346882E1,1.703708815E1
1.916179233E0,8.886405945E0,-7.007493019E0,1.177065277E1,1.632854665E1
1.926165066E0,7.222138405E0,-8.143949509E0,1.074475765E1,1.529486887E1
1.936168347E0,6.077288151E0,-8.209904671E0,9.617266655E0,1.402953256E1
1.946167931E0,5.082417011E0,-8.120750427E0,9.588347435E0,1.355411217E1
1.956172306E0,4.106132030E0,-7.083402634E0,9.460325241E0,1.251130156E1
1.966164233E0,3.278251171E0,-5.681110382E0,9.432684898E0,1.148901607E1
1.976167097E0,3.097493172E0,-4.129735947E0,9.405422211E0,1.072898643E1
1.986164806E0,2.143071175E0,-2.840006828E0,9.378529549E0,1.003071330E1
1.996166056E0,2.052315235E0,-1.937494278E0,9.352002144E0,9.768614334E0
2.006168920E0,1.289493918E0,-1.725857735E0,6.924885750E0,7.252270137E0
2.016164233E0,4.214192629E-1,-1.660934448E0,5.782023430E0,6.030596354E0
2.026168660E0,3.167214394E-1,-1.686425209E0,4.574488640E0,4.885722953E0
2.036165014E0,2.204862833E-1,-1.780871391E0,3.513476372E0,3.945203839E0
2.046160847E0,1.658515930E-1,-2.575158119E0,2.684174776E0,3.723404399E0
2.056172306E0,1.816511154E-1,-2.649900913E0,2.516070843E0,3.658631501E0
2.066164233E0,2.630572319E-1,-2.726991653E0,1.514559984E0,3.130427212E0
2.076164806E0,3.248376846E-1,-2.789840698E0,1.464009523E0,3.167341871E0
2.086161889E0,3.962440491E-1,-2.817561150E0,1.432265520E0,3.185442622E0
2.096178399E0,4.184690118E-1,-2.796996117E0,8.817799091E-1,2.962404327E0
2.106162774E0,3.998361230E-1,-2.699420929E0,9.621353149E-1,2.893518039E0
2.116167618E0,3.548776507E-1,-1.985682487E0,1.029261112E0,2.264564312E0
2.126169129E0,3.083055615E-1,-1.838075638E0,1.072071910E0,2.150095940E0
2.136163972E0,2.615912557E-1,-7.246646881E-1,1.139718056E0,1.375691151E0
2.146168139E0,2.655550241E-1,6.354551315E-1,1.748114675E-1,7.105503108E-1
2.156180639E0,3.297535777E-1,6.518926620E-1,3.580041826E-1,8.135529851E-1
2.166168139E0,4.695172310E-1,6.718454361E-1,5.559459925E-1,9.904032849E-1
2.176167879E0,1.219187975E0,1.793915749E0,7.544440627E-1,2.296462252E0
2.186163452E0,2.731028318E0,1.951033592E0,8.148661256E-1,3.453846342E0
2.196163191E0,3.560657978E0,2.018139839E0,1.064929247E0,4.229095405E0
2.206174649E0,4.343760490E0,2.058314323E0,1.336034179E0,4.988977889E0
2.216163972E0,4.620828629E0,2.071849823E0,1.140737534E-1,5.065336289E0
2.226165274E0,5.685097694E0,2.072584152E0,2.726520300E-1,6.057250201E0
2.236162670E0,5.845623016E0,2.073757172E0,4.024089575E-1,6.215602161E0
2.246164493E0,5.953495502E0,2.088945389E0,5.393083096E-1,6.332349879E0
2.256168399E0,5.977646828E0,2.105540276E0,6.952497959E-1,6.375651632E0
2.266165014E0,5.909782887E0,2.117817879E0,8.761425018E-1,6.338636448E0
2.276170118E0,5.766079903E0,2.107211113E0,1.108586788E0,6.238347601E0
2.286175795E0,4.749262810E0,2.094224930E0,1.426168323E0,5.382864607E0
2.296154754E0,4.570562363E0,1.116308212E0,1.746683955E0,5.018674046E0
2.306172045E0,3.495326757E0,1.215443611E0,3.485348225E0,5.083528751E0
2.316165535E0,3.304881096E0,1.316206932E0,3.715427637E0,5.143835366E0
2.326163712E0,2.168928862E0,1.418504715E0,3.936939716E0,4.713374838E0
2.336165535E0,1.990928173E0,1.422618866E0,3.951291084E0,4.647616665E0
2.346168399E0,1.090922832E0,1.527012825E0,4.156119347E0,4.560176402E0
2.356172827E0,-6.439289451E-2,2.286090851E-1,4.329194546E0,4.335704553E0
2.366165014E0,-2.897822857E-2,1.910943985E-1,4.451550007E0,4.455743964E0
2.376168139E0,-1.922059208E-1,-5.094280243E-1,4.369275570E0,4.403070410E0
2.386162931E0,-1.120975614E-1,-5.630750656E-1,4.475136280E0,4.511813839E0
2.396164806E0,-3.062307462E-2,-1.201653481E0,4.576595306E0,4.731821368E0
2.406168660E0,8.280138671E-2,-1.252078533E0,4.668646336E0,4.834337114E0
2.416166056E0,1.807166040E-1,-1.829870701E0,4.749448776E0,5.092970543E0
2.426163452E0,1.186176091E-1,-1.861842155E0,4.620148659E0,4.982599721E0
2.436161889E0,2.522956133E-1,-1.859637737E0,4.689647675E0,5.051207866E0
2.446178035E0,3.783839643E-1,-1.812022686E0,4.751900196E0,5.099721180E0
2.456163243E0,5.027505159E-1,-1.698132038E0,4.811323166E0,5.126913409E0
2.466296733E0,6.168194413E-1,-1.018603325E0,4.866132736E0,5.009717234E0
2.476161160E0,5.343209505E-1,-8.594398499E-1,4.719272614E0,4.826558788E0
2.486164285E0,6.528664827E-1,3.247122765E-1,3.799343109E0,3.868679460E0
2.496161941E0,7.700108886E-1,2.151315689E0,3.774228096E0,4.412014697E0
2.506171524E0,8.860488534E-1,2.189384937E0,3.738379717E0,4.421987323E0
2.516166577E0,1.000132442E0,2.227505684E0,3.668976784E0,4.407202867E0
2.526170483E0,9.158280492E-1,3.936679840E0,3.595213890E0,5.409413286E0
2.536163972E0,1.084703684E0,4.772727966E0,2.831253529E0,5.654335581E0
2.546161368E0,1.219728589E0,4.812416077E0,2.780941486E0,5.690406126E0
2.556175691E0,1.348465681E0,4.764191628E0,1.974892855E0,5.330673817E0
2.566165014E0,1.278726459E0,4.016807556E0,1.949779034E0,4.644515322E0
2.576163972E0,1.419744134E0,3.939119816E0,1.926489592E0,4.609088899E0
2.586163712E0,1.552132010E0,2.449811459E0,1.946359158E0,3.492707250E0
2.596163191E0,1.672882915E0,2.540211201E0,2.055351496E0,3.670923584E0
2.606167931E0,1.788229108E0,2.628810406E0,2.263562679E0,3.902835315E0
2.616163972E0,1.698624611E0,2.616421700E0,3.346586943E0,4.575000792E0
2.626188452E0,1.806402087E0,2.700539112E0,3.558682442E0,4.818736423E0
2.636161264E0,1.909541249E0,2.781071663E0,5.504028797E0,6.455620836E0
2.646170587E0,2.007040977E0,2.857986927E0,5.585741520E0,6.587625603E0
2.656163452E0,2.091791630E0,2.929961681E0,5.664130211E0,6.711381283E0
2.666163712E0,1.973941207E0,2.899932384E0,5.540159225E0,6.557393992E0
2.676162931E0,2.054890156E0,2.964987755E0,5.609440327E0,6.669298818E0
2.686162670E0,2.136411428E0,3.023684978E0,5.669868946E0,6.771583161E0
2.696163972E0,2.221276760E0,3.059981823E0,4.571391582E0,5.932552587E0
2.706173347E0,2.301314592E0,3.094948292E0,3.901265383E0,5.485856849E0
2.716169962E0,2.220525742E0,3.049091339E0,3.908715963E0,5.431919831E0
2.726163191E0,2.302124500E0,3.082222939E0,3.959982157E0,5.520990322E0
2.736171785E0,2.383027554E0,4.569029808E0,4.046545506E0,6.552051910E0
2.746163972E0,2.460535765E0,4.632983208E0,5.714841843E0,7.757460083E0
2.756168139E0,2.346564770E0,4.682448387E0,5.506841660E0,7.599802246E0
2.766163712E0,2.433091402E0,4.728658199E0,5.498782635E0,7.649624344E0
2.776165795E0,2.517181873E0,4.791391850E0,5.491662025E0,7.710511801E0
2.786162931E0,2.597691774E0,5.388510227E0,5.486188412E0,8.116791750E0
2.796163191E0,2.683879852E0,5.449948311E0,5.476982117E0,8.179393667E0
2.806194910E0,2.563248158E0,5.550063610E0,6.401796341E0,8.851917509E0
2.816181941E0,3.937609673E0,6.374289036E0,7.096846581E0,1.031995940E1
2.826153920E0,4.122292995E0,6.423002720E0,7.161537170E0,1.046593895E1
2.836165483E0,5.271353722E0,6.476790428E0,7.896650314E0,1.149317495E1
2.846172306E0,5.431566238E0,6.554234982E0,7.904154778E0,1.161617711E1
2.856175691E0,6.163289547E0,7.250528812E0,7.859495163E0,1.234212179E1
2.866174389E0,6.149731636E0,7.275811672E0,7.730638981E0,1.226863537E1
2.876172306E0,6.010507584E0,7.291963577E0,7.537262917E0,1.208756661E1
2.886175431E0,5.095885277E0,7.829580784E0,6.790418625E0,1.154903317E1
2.896173868E0,4.931058884E0,7.839038372E0,5.817519188E0,1.093660797E1
2.906174910E0,4.886178493E0,7.803135872E0,4.580598831E0,1.028326579E1
2.916172827E0,4.922368050E0,7.736477375E0,4.524333477E0,1.022508596E1
2.926173087E0,5.062809944E0,7.634162426E0,4.474027157E0,1.019457696E1
2.936175691E0,6.345713139E0,7.476783752E0,4.430131435E0,1.076087520E1
2.946209024E0,7.162101746E0,6.535237789E0,4.194152355E0,1.056389835E1
2.956172827E0,7.250093460E0,5.638478756E0,4.170846939E0,1.008723263E1
2.966173608E0,7.272799492E0,4.568736076E0,5.344949722E0,1.011609852E1
2.976174389E0,7.218300819E0,3.432049751E0,5.369081497E0,9.628596385E0
2.986161941E0,7.080320358E0,2.085334778E0,5.426033974E0,9.160862525E0
2.996155952E0,6.859369278E0,1.978590965E0,6.052243233E0,9.359242344E0
3.006172931E0,5.882719040E0,3.293857574E-1,6.117787361E0,8.493656484E0
3.016161420E0,5.694638252E0,-4.874925613E-1,6.179255009E0,8.417229133E0
3.026163504E0,5.491794109E0,-6.466183662E-1,6.212349415E0,8.316922694E0
3.036176472E0,4.777849197E0,-1.498693466E0,6.205868721E0,7.974128895E0
3.046185587E0,4.619456291E0,-1.580696106E0,6.198064804E0,7.890119386E0
3.056165274E0,4.401524067E0,-1.697333336E0,6.196541786E0,7.787906309E0
3.066164233E0,3.461346626E0,-2.485731602E0,6.166480064E0,7.495682654E0
3.076167879E0,1.474151850E0,-3.733308315E0,5.984552383E0,7.205940735E0
3.086161108E0,1.193218350E0,-4.510970116E0,5.875421047E0,7.502879041E0
3.096177774E0,1.122066140E0,-5.350366592E0,5.810733795E0,7.978100171E0
3.106164493E0,1.051530600E0,-6.141086578E0,5.775111675E0,8.495326705E0
3.116162931E0,9.874112010E-1,-6.886672497E0,5.732875824E0,9.014826907E0
3.126163191E0,9.300852418E-1,-7.829711914E0,5.671529293E0,9.712656266E0
3.136163191E0,6.765706539E-1,-7.978895664E0,5.608623505E0,9.776358294E0
3.146208243E0,6.673914790E-1,-7.924903393E0,5.561916351E0,9.704865721E0
3.156168399E0,6.535828114E-1,-7.871927261E0,5.555106640E0,9.656791345E0
3.166272670E0,6.343905926E-1,-8.937622070E0,5.557025909E0,1.054343761E1
3.176159858E0,6.148508787E-1,-9.544311523E0,5.542543888E0,1.105403622E1
3.186148660E0,3.954311013E-1,-9.613752365E0,5.527642727E0,1.109664068E1
3.196180899E0,3.736245036E-1,-9.705994606E0,5.538804054E0,1.118142553E1
3.206165535E0,3.538116217E-1,-1.033636951E1,5.590486526E0,1.175666862E1
3.216163712E0,1.574428916E0,-1.036138153E1,6.398594379E0,1.227921266E1
3.226164233E0,1.623178720E0,-1.035894394E1,6.447610855E0,1.230910697E1
3.236165014E0,2.257654428E0,-1.033627510E1,7.206913471E0,1.280137447E1
3.246204077E0,2.245155811E0,-1.030628300E1,7.213388920E0,1.277862174E1
3.256168399E0,2.255251884E0,-1.018744850E1,8.136982918E0,1.323180861E1
3.266161889E0,2.151567936E0,-9.522584915E0,9.125098228E0,1.336324383E1
3.276162670E0,2.081057549E0,-9.437460899E0,9.074073792E0,1.325651854E1
3.286164233E0,2.011636257E0,-7.950507164E0,9.695837021E0,1.269907477E1
3.296166837E0,2.484836817E0,-7.947426319E0,9.493797302E0,1.262807136E1
3.306165795E0,2.315174103E0,-7.945077896E0,1.000148106E1,1.298129105E1
3.316164233E0,2.198107004E0,-5.691080570E0,1.226615715E1,1.369958699E1
3.326162410E0,4.791203022E0,-2.172034264E0,1.532339859E1,1.620123155E1
3.336163712E0,8.462646484E0,1.709861755E0,1.481603146E1,1.714802615E1
3.346271889E0,8.329323769E0,3.017696381E0,1.319429588E1,1.589256335E1
3.356168191E0,9.728864670E0,3.081945419E0,1.289370060E1,1.644374381E1
3.366150431E0,1.025411129E1,1.836340904E0,1.365259266E1,1.717300884E1
3.376164285E0,1.029711628E1,1.817672253E0,1.326581573E1,1.689131147E1
3.386165014E0,1.027742767E1,8.907098770E-1,1.296938419E1,1.657177752E1
3.396168660E0,1.062166405E1,-8.439631462E-1,1.122024536E1,1.547339416E1
3.406165274E0,7.382608414E0,-3.424410343E0,7.765443802E0,1.124862706E1
3.416167879E0,5.117938042E0,-5.840738297E0,7.633327961E0,1.088922446E1
3.426167097E0,3.389535427E0,-7.526027679E0,8.993915558E0,1.220739776E1
3.436165535E0,8.941149712E-1,-4.798475266E0,7.350285530E0,8.823349921E0
3.446204597E0,-1.885890961E-1,-3.055852890E0,7.276742935E0,7.894605150E0
3.456168139E0,-3.779692650E-1,-1.568576813E0,5.941784859E0,6.156955521E0
3.466165795E0,-1.198449612E0,-8.092913628E-1,4.474432945E0,4.702316893E0
3.476164806E0,-1.350303173E0,-6.978483200E-1,3.115093946E0,3.466139240E0
3.486164233E0,-1.415696502E0,-6.042356491E-1,1.994160891E0,2.519121863E0
3.496170743E0,-1.375413775E0,-5.052523613E-1,9.754250050E-1,1.760254795E0
3.506164233E0,-1.244203806E0,-4.181532860E-1,-1.781201363E-2,1.312711906E0
3.516163712E0,-1.059619188E0,-3.489995003E-1,-8.998258114E-1,1.433275956E0
3.526175222E0,-3.806419373E-1,-3.158898354E-1,-1.597448826E0,1.672279111E0
3.536166108E0,-3.423376083E-1,-2.976264954E-1,-1.680724382E0,1.740865020E0
3.546231108E0,-3.682143688E-1,-2.687344551E-1,-1.736588717E0,1.795422067E0
3.556163504E0,-1.016383767E0,2.871880531E-1,-2.721243620E0,2.919020346E0
3.566160639E0,-1.095989704E0,3.296523094E-1,-2.784071922E0,3.010136300E0
3.576165274E0,-2.757724285E0,1.067087173E0,-2.625445366E0,3.954324422E0
3.586162931E0,-2.661583900E0,1.163629055E0,-2.450075865E0,3.800122785E0
3.596173087E0,-2.564545155E0,2.340157509E0,-2.257387877E0,4.141138617E0
3.606170483E0,-2.456848621E0,2.284611702E0,-2.047450542E0,3.930344705E0
3.616165795E0,-2.507899523E0,3.455705166E0,-1.969727278E0,4.702263684E0
3.626162149E0,-2.374948978E0,4.005318642E0,-1.718958735E0,4.963645757E0
3.636167618E0,-2.179014921E0,3.941501617E0,-1.482646465E0,4.741495710E0
3.646171524E0,-9.016828537E-1,3.853112698E0,-2.647638321E0,4.761249637E0
3.656165014E0,-5.620471239E-1,3.735160828E0,-2.503092766E0,4.531312919E0
3.666167618E0,7.923357487E-1,3.591777802E0,-2.370652199E0,4.375917682E0
3.676162670E0,1.152365923E0,3.439431190E0,-2.745744705E0,4.549367881E0
3.686163712E0,2.400270462E0,2.751053810E0,-2.558485985E0,4.458188633E0
3.696171004E0,2.708025932E0,2.645297050E0,-2.397594452E0,4.481011057E0
3.706170587E0,3.504426241E0,2.528927803E0,-2.264739275E0,4.879090396E0
3.716326785E0,3.675071478E0,1.493680954E0,-2.067438126E0,4.473425261E0
3.726169493E0,3.770462990E0,1.514234543E0,-1.825783730E0,4.454523952E0
3.736165274E0,3.808106899E0,1.542598724E0,-1.544228435E0,4.389297260E0
3.746171264E0,3.752273560E0,1.582697868E0,-1.198631406E0,4.245139180E0
3.756166837E0,3.110751152E0,-3.637447357E-1,-3.034547567E-1,3.146612107E0
3.766163452E0,3.000114441E0,-4.767622948E-1,-3.149855137E-2,3.037923815E0
3.776164806E0,2.140908480E0,-1.469784737E0,2.169591188E-1,2.605921632E0
3.786167358E0,1.114823937E0,-2.200586319E0,5.001544952E-1,2.517055239E0
3.796181420E0,9.608568549E-1,-2.192628384E0,7.043131590E-1,2.495380161E0
3.806165014E0,-7.013898492E-1,-2.178089142E0,8.615487814E-1,2.445053442E0
3.816163452E0,-6.964209676E-1,-2.151546955E0,9.943263531E-1,2.470392957E0
3.826161889E0,-6.890458465E-1,-2.108336449E0,1.133213162E0,2.490790804E0
3.836165274E0,-6.641467810E-1,-2.049825668E0,1.298537612E0,2.515765519E0
3.846168660E0,-1.980844498E0,-1.950287819E0,2.510925293E0,3.745946253E0
3.856163712E0,-2.076298237E0,-1.823863029E0,2.633561850E0,3.817478059E0
3.866164233E0,-2.788077831E0,-1.004161835E0,2.753727436E0,4.045334816E0
3.876184806E0,-2.773245811E0,-8.445305824E-1,2.867357492E0,4.077482462E0
3.886170587E0,-2.756234884E0,3.417000771E-1,2.976729393E0,4.071180119E0
3.896201837E0,-2.733566046E0,2.038752079E0,2.881477594E0,4.464505179E0
3.906193868E0,-2.699914932E0,2.058755398E0,2.939225435E0,4.490775054E0
3.916166368E0,-2.578003645E0,3.215867519E0,2.991384745E0,5.092768342E0
3.926165795E0,-2.410050392E0,3.351806641E0,1.276230097E0,4.321077864E0
3.936164493E0,-2.155968666E0,4.025709629E0,1.945877075E-1,4.570820854E0
3.946171264E0,-1.827515125E0,4.068192482E0,-7.987837791E-1,4.530789901E0
3.956165535E0,-6.883108020E-1,4.124406338E0,-9.292304516E-1,4.283452887E0
3.966167618E0,7.805284858E-1,4.296598911E0,-7.829129696E-1,4.436545913E0
3.976163712E0,2.068767548E0,4.922022343E0,4.291038513E-1,5.356326467E0
3.986164493E0,3.069695950E0,5.036493301E0,1.515260935E0,6.089771235E0
3.996168920E0,4.054166794E0,5.717376709E0,3.220135450E0,7.713231304E0
4.006166316E0,4.890241146E0,5.883255482E0,3.324624300E0,8.341479501E0
4.016166837E0,5.093709469E0,6.665233612E0,3.425934076E0,9.061359697E0
4.026162670E0,5.946101665E0,6.711845875E0,4.498408794E0,1.003198294E1
4.036165535E0,5.963370800E0,6.668619633E0,4.540418625E0,1.003233175E1
4.046172827E0,5.937588215E0,5.947666645E0,3.501619577E0,9.104451219E0
4.056209493E0,5.883651257E0,5.144106388E0,3.533245087E0,8.576887750E0
4.066172149E0,5.762108326E0,4.338960648E0,3.566977262E0,8.046850232E0
4.076182254E0,5.575586796E0,4.156999588E0,3.600573301E0,7.831471240E0
4.086163243E0,4.614453793E0,2.203341007E0,3.434494734E0,6.159841676E0
4.096178556E0,4.383797646E0,2.211064339E0,3.470580816E0,6.012604969E0
4.106174389E0,3.124323130E0,3.253974438E0,4.614698410E0,6.453308150E0
4.116177254E0,2.319981098E0,4.026933670E0,4.745103359E0,6.641875712E0
4.126173868E0,1.011390924E0,4.872567654E0,5.336672306E0,7.296910198E0
4.136175952E0,8.074382544E-1,5.683149815E0,5.304979801E0,7.816198503E0
4.146174389E0,8.562660813E-1,6.596947193E0,5.195459366E0,8.440716906E0
4.156172566E0,8.783608675E-1,7.503420353E0,5.018033981E0,9.069371524E0
4.166175431E0,9.419832230E-1,7.548587322E0,3.368478060E0,8.319564135E0
4.176172045E0,2.683668613E0,7.567066669E0,3.156228304E0,8.626954985E0
4.186174649E0,4.169585705E0,7.551609039E0,3.146485567E0,9.182190123E0
4.196173347E0,5.655952454E0,7.526414394E0,3.139656782E0,9.924422225E0
4.206173347E0,6.960847378E0,7.511933327E0,3.135767698E0,1.071053582E1
4.216173087E0,7.941997528E0,7.512329102E0,3.134638309E0,1.137261494E1
4.226172566E0,8.076881409E0,7.515385151E0,2.936985254E0,1.141678193E1
4.236178764E0,8.110610962E0,7.487586975E0,2.976266384E0,1.143259072E1
4.246180222E0,7.965716839E0,7.363603592E0,3.017230749E0,1.125961740E1
4.256175274E0,6.753936768E0,6.289234161E0,3.065701485E0,9.724641576E0
4.266168712E0,5.584183693E0,5.214178562E0,3.116391897E0,8.251221973E0
4.276175170E0,4.395727158E0,3.908820629E0,4.595313549E0,7.464462644E0
4.286173087E0,3.337500811E0,1.783373356E0,4.644022942E0,5.990515944E0
4.296170483E0,2.573393822E0,1.802319050E0,4.678176880E0,5.635250539E0
4.306168660E0,2.396609783E0,-2.519869804E-1,4.727850914E0,5.306581777E0
4.316164493E0,2.225527763E0,-1.597479343E0,4.779442310E0,5.508900333E0
4.326165535E0,1.981887817E0,-4.044992447E0,4.746723652E0,6.543793139E0
4.336163972E0,1.832790375E0,-5.121089935E0,4.685193062E0,7.178838117E0
4.346166577E0,3.650921881E-1,-6.143757820E0,4.622630596E0,7.697257050E0
4.356168139E0,3.726574779E-1,-7.874964237E0,4.557054043E0,9.106079117E0
4.366164233E0,1.708508879E-1,-8.020530701E0,4.515622139E0,9.205919077E0
4.376161368E0,1.616569161E-1,-7.966341496E0,4.505581379E0,9.153632795E0
4.386164806E0,1.488585323E-1,-8.923360825E0,4.520385742E0,1.000411988E1
4.396163712E0,1.335430145E-1,-8.996503830E0,4.536174297E0,1.007629853E1
4.406163452E0,1.097992063E-1,-9.058572769E0,4.520423889E0,1.012442732E1
4.416167774E0,-8.513692766E-2,-9.096485138E0,4.436983109E0,1.012127014E1
4.426155327E0,-8.942266554E-2,-9.105242729E0,4.290052891E0,1.006568405E1
4.436182670E0,-9.417632222E-2,-9.126053810E0,2.754663467E0,9.533199785E0
4.446166108E0,-1.054169163E-1,-9.137168884E0,2.758286476E0,9.545004569E0
4.456162462E0,-1.236420274E-1,-9.156244278E0,2.756378651E0,9.562934690E0
4.466169441E0,-3.425598145E-1,-9.200965881E0,2.552383900E0,9.554568747E0
4.476167097E0,-3.625789881E-1,-9.258449554E0,2.545165300E0,9.608757364E0
4.486165535E0,-3.830408156E-1,-9.332323074E0,4.187494278E0,1.023592119E1
4.496166577E0,-4.042804539E-1,-9.949095726E0,4.285784721E0,1.084047504E1
4.506169702E0,6.720723510E-1,-1.002173519E1,5.523491859E0,1.146280157E1
4.516163712E0,7.410669327E-1,-1.001140022E1,6.444701195E0,1.192943788E1
4.526165795E0,1.666697025E0,-9.952511787E0,6.495901585E0,1.200112942E1
4.536170743E0,1.749435544E0,-9.841304779E0,7.378559113E0,1.242396632E1
4.546163972E0,2.666685343E0,-9.105136871E0,7.410528183E0,1.203871489E1
4.556166056E0,2.677956104E0,-9.021033287E0,8.149366379E0,1.244840001E1
4.566163452E0,2.630243063E0,-8.923679352E0,8.108280182E0,1.234076332E1
4.576162670E0,2.455832481E0,-7.737300873E0,1.118992233E1,1.382430106E1
4.586163191E0,3.965927124E0,-3.558864594E0,1.503025818E1,1.594687292E1
4.596295952E0,8.253674507E0,3.554210663E-1,1.473787498E1,1.689539659E1
4.606156889E0,9.411611557E0,3.842615604E0,1.364477444E1,1.701540467E1
4.616148660E0,1.079944229E1,6.439154148E0,1.332427692E1,1.832012597E1
4.626162202E0,1.187449646E1,7.410281181E0,1.382270336E1,1.967188505E1
4.636164754E0,1.178471565E1,7.365741730E0,1.328105450E1,1.922290516E1
4.646161160E0,1.167999840E1,5.743427753E0,1.282776451E1,1.827459623E1
4.656176993E0,1.152599144E1,3.852795601E0,1.093139648E1,1.634588455E1
4.666166056E0,9.754082680E0,1.869273186E-1,7.639678478E0,1.239119679E1
4.676164754E0,6.227721214E0,-3.023203373E0,6.515407562E0,9.506566460E0
4.686168660E0,4.162230492E-1,-6.681630135E0,7.443462372E0,1.001112156E1
4.696166316E0,-1.893238306E0,-6.704475880E0,6.013286591E0,9.202932344E0
4.706166837E0,-4.094289780E0,-4.794459343E0,5.843957901E0,8.596621030E0
4.716167045E0,-4.170847893E0,-2.171729088E0,4.418849945E0,6.452798944E0
4.726167879E0,-4.266949177E0,1.327362061E-1,3.452571869E0,5.490421358E0
4.736165014E0,-4.292151928E0,1.533177376E0,2.445236683E0,5.172270630E0
4.746162149E0,-4.439985752E0,1.677514076E0,1.407852650E0,4.950714700E0
4.756163191E0,-4.347800255E0,1.704050064E0,5.134935379E-1,4.697960120E0
4.766163712E0,-2.747632027E0,1.649716854E0,-2.661631107E-1,3.215880945E0
4.776255639E0,-2.492741108E0,1.545743942E0,-4.864866734E-1,2.973172018E0
4.786178087E0,-1.320213318E0,1.385660648E0,-1.497131109E0,2.429901273E0
4.796151108E0,-1.151469231E0,5.926346779E-1,-1.547518253E0,2.017897419E0
4.806165066E0,-1.044717312E0,4.749417305E-1,-1.571299195E0,1.945760795E0
4.816166316E0,-1.023084879E0,3.706579208E-1,-1.563914180E0,1.905234244E0
4.826162670E0,-1.079341412E0,3.174333572E-1,-1.529937506E0,1.899065715E0
4.836165795E0,-1.871994257E0,3.446564674E-1,-1.481378555E0,2.411976991E0
4.846162670E0,-1.917790890E0,1.154033184E0,-2.500144243E0,3.355657271E0
4.856168920E0,-3.603637457E0,1.880730629E0,-2.311878681E0,4.676337633E0
4.866163191E0,-3.456936121E0,2.881144047E0,-2.084030867E0,4.959292592E0
4.876165014E0,-3.348360300E0,4.205173969E0,-1.897428155E0,5.700459491E0
4.886166316E0,-3.437037945E0,4.259742737E0,-1.911987543E0,5.797787025E0
4.896163452E0,-3.323302269E0,4.276355743E0,-1.728313327E0,5.684947086E0
4.906166056E0,-3.197962999E0,4.217511177E0,-1.502845407E0,5.502082532E0
4.916162670E0,-1.160529256E0,4.059371471E0,-1.274746776E0,4.410249907E0
4.926162149E0,-8.735024929E-1,3.839655399E0,-1.049739480E0,4.075280747E0
4.936163191E0,2.719359398E-1,2.198694229E0,-1.004355192E0,2.432475040E0
4.946163712E0,5.443830490E-1,2.134322166E0,-1.790462017E0,2.838562708E0
4.956202879E0,1.366688013E0,2.080613613E0,-1.665427446E0,2.995068899E0
4.966169493E0,1.587816000E0,2.037347794E0,-1.549542665E0,3.012146768E0
4.976153347E0,1.747406483E0,2.017775536E0,-1.431097984E0,3.028677759E0
4.986159858E0,1.877231121E0,1.905910015E0,-1.312704921E0,2.979879843E0
4.996163452E0,1.954912424E0,1.907112122E0,-1.182886124E0,2.976235678E0
5.006162931E0,1.977564812E0,1.916958809E0,-1.050779581E0,2.947818072E0
5.016165014E0,1.947650433E0,1.936122894E0,-8.547976017E-1,2.876211572E0
5.026164233E0,1.876436114E0,1.959191799E0,-6.383664608E-1,2.786926037E0
5.036166837E0,1.252023220E0,1.885914326E0,-4.134606123E-1,2.301126825E0
5.046165795E0,4.833294153E-1,5.374398232E-1,-1.649791002E-1,7.413952999E-1
5.056167358E0,3.890726566E-1,4.456243515E-1,1.860344410E-2,5.918654264E-1
5.066163452E0,-3.460862637E-1,-1.947398186E-1,1.754667759E-1,4.341519184E-1
5.076162410E0,-4.286819696E-1,-2.098345757E-1,2.936373949E-1,5.603763913E-1
5.086163712E0,-1.928917766E0,-2.289319038E-1,3.918669224E-1,1.981588567E0
5.096163972E0,-1.858513594E0,-2.616734505E-1,4.793263674E-1,1.937085321E0
5.106162931E0,-1.802332163E0,-2.910795212E-1,5.501474142E-1,1.906774945E0
5.116163712E0,-1.726474881E0,-3.041925430E-1,6.237918139E-1,1.860743090E0
5.126162931E0,-1.848665953E0,-3.041110039E-1,7.099925280E-1,2.003531556E0
5.136186629E0,-1.755818129E0,-2.965912819E-1,7.982738018E-1,1.951436587E0
5.146170327E0,-1.662733197E0,-2.686719894E-1,9.122756720E-1,1.915492946E0
5.156158347E0,-1.525556564E0,-2.228899002E-1,1.041221976E0,1.860415530E0
5.166166108E0,-1.390798926E0,-1.322946548E-1,1.169891357E0,1.822215497E0
5.176163972E0,-1.455838442E0,5.579576492E-1,2.195139170E0,2.692474379E0
5.186168660E0,-1.322765827E0,6.695055962E-1,2.297081709E0,2.733958953E0
5.196165014E0,-1.189888239E0,2.114058018E0,1.380378604E0,2.791150375E0
5.206163712E0,-1.058448911E0,2.135659695E0,1.332452059E0,2.730711431E0
5.216167618E0,-9.281883836E-1,2.158036709E0,7.052152157E-1,2.452750418E0
5.226162670E0,4.782492518E-1,2.101628304E0,6.571006775E-1,2.253296513E0
5.236163452E0,6.583291888E-1,2.125742912E0,7.034317255E-1,2.333880126E0
5.246168399E0,8.718207479E-1,2.150149345E0,7.652853727E-1,2.443128184E0
5.256164754E0,1.640189409E0,3.154884338E0,8.668267727E-1,3.659905073E0
5.266165535E0,1.738097191E0,3.170885563E0,1.003331780E0,3.752621985E0
5.276164493E0,1.792797089E0,3.155431271E0,1.694693089E0,4.005352989E0
5.286165274E0,1.751888037E0,2.168038368E0,1.786909938E0,3.310974054E0
5.296172566E0,1.661019444E0,2.206055164E0,1.832703829E0,3.314282472E0
5.306177774E0,7.059023976E-1,2.243513107E0,1.803259373E0,2.963679069E0
5.316174285E0,-4.221037626E-1,2.180354118E0,1.169569373E0,2.509981710E0
5.326172827E0,-3.563566506E-1,2.216917992E0,1.095943213E0,2.498560980E0
5.336171316E0,-2.908987105E-1,2.253402710E0,2.599053383E-1,2.286918586E0
5.346169754E0,-2.268645167E-1,2.289110184E0,2.036142349E-1,2.309318449E0
5.356177774E0,-1.633308679E-1,2.323871613E0,-3.835923672E-1,2.360974237E0
5.366168139E0,-3.010563850E-1,2.258221149E0,-3.654911518E-1,2.307332115E0
5.376175431E0,-2.224726081E-1,2.291375160E0,-3.216881752E-1,2.324516610E0
5.386176212E0,-1.117932126E-1,3.909912109E0,-2.303402424E-1,3.918286239E0
5.396175691E0,3.799775243E-2,4.044983387E0,5.858752728E-1,4.087368868E0
5.406172827E0,1.717023849E0,4.104163647E0,7.665908337E-1,4.514420411E0
5.416182202E0,1.795772672E0,4.158627033E0,1.565560102E0,4.792698272E0
5.426173087E0,1.835627913E0,4.223752975E0,1.711753607E0,4.913218848E0
5.436173608E0,1.832151413E0,4.295751095E0,1.869769573E0,5.030536207E0
5.446172566E0,1.766966939E0,4.384407997E0,2.596423864E0,5.393201510E0
5.456209545E0,1.818249971E-1,4.487250805E0,2.676671505E0,5.228101994E0
5.466175431E0,2.639038861E-1,4.571290016E0,2.755496502E0,5.344071355E0
5.476170222E0,3.411653340E-1,4.614049435E0,2.848835945E0,5.433388649E0
5.486186629E0,4.165330827E-1,4.629931450E0,3.965050459E0,6.109941913E0
5.496164337E0,-8.481184244E-1,4.592552662E0,4.007585049E0,6.153989173E0
5.506199129E0,-8.667815924E-1,4.519016266E0,3.829597712E0,5.986537979E0
5.516152097E0,-8.551585078E-1,4.408646107E0,3.850558996E0,5.915594742E0
5.526167149E0,-7.863192558E-1,3.772037506E0,3.870319128E0,5.461312578E0
5.536179337E0,-6.183551550E-1,3.732391357E0,3.887710571E0,5.424702925E0
5.546165274E0,6.614958644E-1,3.735308170E0,5.279160500E0,6.500741457E0
5.556190274E0,1.667810678E0,3.817961216E0,5.298164368E0,6.740101333E0
5.566164754E0,2.892441273E0,4.767577648E0,5.341986656E0,7.722229897E0
5.576166577E0,5.048614502E0,6.170836926E0,5.447778702E0,9.656398373E0
5.586164493E0,5.217908382E0,6.945075512E0,5.424921513E0,1.024160218E1
5.596176212E0,6.011390686E0,7.648277283E0,5.329426765E0,1.109214826E1
5.606161941E0,6.023972988E0,7.712078571E0,5.157077312E0,1.106163880E1
5.616164754E0,5.983152390E0,7.748796463E0,4.293128967E0,1.068985105E1
5.626165535E0,5.891952991E0,7.695161819E0,3.244370222E0,1.022039939E1
5.636163972E0,5.765009880E0,7.539348602E0,3.197162390E0,1.001493702E1
5.646169962E0,5.661509991E0,6.640471935E0,2.953082800E0,9.212451407E0
5.656186629E0,5.584106445E0,5.846997261E0,2.915244341E0,8.594665283E0
5.666190274E0,5.550622463E0,4.864993572E0,2.882611036E0,7.923826006E0
5.676161264E0,5.524488926E0,3.713780880E0,4.269453049E0,7.908247319E0
5.686277879E0,5.472098351E0,1.844117641E0,4.360982895E0,7.236214621E0
5.696181212E0,5.356157780E0,1.744949341E0,5.317409515E0,7.746490710E0
5.706165795E0,5.160973549E0,4.416809082E-1,5.374431610E0,7.464264540E0
5.716167254E0,4.253538609E0,-4.607839584E-1,5.942956924E0,7.322817051E0
5.726166837E0,3.391913176E0,-1.206387997E0,5.913392067E0,6.923052270E0
5.736165535E0,2.401570320E0,-1.368923664E0,5.835798264E0,6.457401441E0
5.746174910E0,1.432278395E0,-2.375885963E0,5.692492485E0,6.332513419E0
5.756186889E0,-7.478228211E-1,-3.157514572E0,4.893370628E0,5.871474547E0
5.766164493E0,-8.205792308E-1,-3.253630161E0,4.790253639E0,5.848588670E0
5.776167879E0,-8.824689388E-1,-3.980679512E0,4.678559303E0,6.205922813E0
5.786166837E0,-1.130079031E0,-4.096741199E0,4.563654900E0,6.235969300E0
5.796168399E0,-1.158593059E0,-5.056573391E0,4.437155724E0,6.826391671E0
5.806165014E0,-1.174909711E0,-5.758973122E0,4.332844734E0,7.302035862E0
5.816164233E0,-1.190742612E0,-6.475665092E0,4.234343529E0,7.828267463E0
5.826163712E0,-1.167648554E0,-6.632242203E0,4.139997959E0,7.905037817E0
5.836162670E0,-1.349521875E0,-8.057501793E0,4.051338673E0,9.119094773E0
5.846182514E0,-1.337454677E0,-8.003528595E0,3.950248003E0,9.024949544E0
5.856195327E0,-1.327671051E0,-7.948914528E0,3.859263182E0,8.935427516E0
5.866206524E0,-1.324614048E0,-7.893558025E0,3.768885136E0,8.846883962E0
5.876173608E0,-1.327426076E0,-7.837478638E0,3.688166142E0,8.763030347E0
5.886165274E0,-1.534332395E0,-7.980453014E0,3.604418278E0,8.890086464E0
5.896171785E0,-1.541810632E0,-7.923092842E0,3.558994770E0,8.821509167E0
5.906174649E0,-1.556403518E0,-7.865268707E0,3.568906546E0,8.776214314E0
5.916164493E0,-1.571717620E0,-7.806973934E0,4.208320618E0,9.007169406E0
5.926164233E0,-1.585390806E0,-7.748547077E0,4.232326031E0,8.970285918E0
5.936165014E0,-1.755806088E0,-7.849722862E0,5.035955429E0,9.490092261E0
5.946168399E0,-2.005602121E-1,-7.791042805E0,5.655465126E0,9.629374755E0
5.956188452E0,-1.495139599E-1,-7.732128620E0,5.634908199E0,9.568717669E0
5.966163712E0,6.063938141E-1,-7.674892902E0,5.585421562E0,9.511499805E0
5.976166316E0,6.715570688E-1,-7.815952301E0,6.027995586E0,9.893271959E0
5.986163712E0,1.305712461E0,-7.756305218E0,5.860501766E0,9.808702086E0
5.996169181E0,1.364933491E0,-7.693297386E0,5.707017422E0,9.675738523E0
6.006162410E0,2.017064333E0,-7.611318111E0,5.541685104E0,9.628654408E0
6.016163972E0,2.013682365E0,-7.520412445E0,5.379379272E0,9.463046094E0
6.026181577E0,1.992095232E0,-7.611759186E0,5.890542507E0,9.828825583E0
6.036174493E0,1.941310644E0,-7.488493919E0,5.741122246E0,9.633624076E0
6.046176524E0,1.818361521E0,-7.345083237E0,6.966559410E0,1.028540891E1
6.056188764E0,1.696696520E0,-5.617442608E0,8.341959953E0,1.019915371E1
6.066164493E0,2.873475790E0,-3.170711994E0,1.185109520E1,1.259994981E1
6.076165014E0,4.774456024E0,-6.780824661E-1,1.270074558E1,1.358543943E1
6.086162931E0,6.528475761E0,1.143954277E0,1.169330502E1,1.344109405E1
6.096170483E0,6.387085915E0,1.431887150E0,1.133746433E1,1.309134312E1
6.106164493E0,6.295937538E0,1.611563206E0,1.168616104E1,1.337169867E1
6.116163712E0,6.154814720E0,1.647836208E0,1.120425606E1,1.288923823E1
6.126162670E0,7.755719662E0,4.025945663E-1,8.885934830E0,1.180140278E1
6.136162410E0,5.929512501E0,-1.245326042E0,6.043758869E0,8.557860522E0
6.146169962E0,4.618725777E0,-2.805478573E0,5.944650650E0,8.033816601E0
6.156187931E0,3.244555950E0,-3.602825642E0,5.864807129E0,7.609432211E0
6.166163452E0,3.013850212E0,-3.391227007E0,5.700021267E0,7.285187448E0
6.176162931E0,1.615043163E0,-2.132617950E0,5.646785259E0,6.248408398E0
6.186162149E0,3.129673004E-1,-8.912196159E-1,5.602676392E0,5.681743015E0
6.196168920E0,-6.295232773E-1,1.821708679E-1,5.596968651E0,5.635205751E0
6.206162097E0,-1.395880938E0,9.806332588E-1,4.059473038E0,4.403344925E0
6.216184858E0,-1.598849535E0,1.128244877E0,2.949989319E0,3.540013181E0
6.226194233E0,-2.437326908E0,1.253978729E0,1.793403149E0,3.275564068E0
6.236161681E0,-2.532143354E0,1.360570431E0,7.600617409E-1,2.973313928E0
6.246161889E0,-2.578454018E0,1.444749355E0,-2.076621056E-1,2.962912312E0
6.256186681E0,-2.567340612E0,1.528517246E0,-1.167104244E0,3.207761698E0
6.266164233E0,-2.509443998E0,1.569182873E0,-2.111926079E0,3.635914717E0
6.276164754E0,-2.466930389E0,1.578442097E0,-2.282709122E0,3.713217733E0
6.286163712E0,-2.454745531E0,1.540401459E0,-3.171500206E0,4.296164084E0
6.296174129E0,-3.323155880E0,1.582394123E0,-3.202574492E0,4.878915816E0
6.306161889E0,-4.367311954E0,2.220190048E0,-3.158979893E0,5.829392037E0
6.316169962E0,-4.281395435E0,2.278703213E0,-4.149620533E0,6.382960581E0
6.326164754E0,-4.201220036E0,3.277753353E0,-4.007068157E0,6.667121721E0
6.336165274E0,-4.120047092E0,4.217893600E0,-3.860962391E0,7.047868121E0
6.346169962E0,-4.042846203E0,4.128241539E0,-3.694849014E0,6.858490567E0
6.356184806E0,-4.159111500E0,3.938083172E0,-3.726797104E0,6.833426973E0
6.366163712E0,-4.042937756E0,5.311651230E0,-3.555238247E0,7.562982446E0
6.376163452E0,-3.897822142E0,5.253625393E0,-3.391102314E0,7.368390063E0
6.386162618E0,-2.595539093E0,5.149726391E0,-3.181632757E0,6.586295779E0
6.396186577E0,-2.327843189E0,4.985191345E0,-2.951462030E0,6.243565870E0
6.406192358E0,-1.180916548E0,4.784838676E0,-3.841208220E0,6.248529878E0
6.416161160E0,-8.973340988E-1,4.559840679E0,-3.726493835E0,5.956854187E0
6.426164233E0,2.770063877E-1,4.287560463E0,-3.587860107E0,5.597557272E0
6.436163972E0,5.492126942E-1,2.748076916E0,-3.436640739E0,4.434417762E0
6.446171264E0,1.442789316E0,2.649575710E0,-3.269346476E0,4.448653598E0
6.456190014E0,1.595283270E0,2.473816395E0,-3.089408398E0,4.267216952E0
6.466164233E0,1.721021891E0,2.405048847E0,-2.863461018E0,4.116501586E0
6.476161629E0,1.765899658E0,2.377174377E0,-2.630690098E0,3.961046581E0
6.486164493E0,1.742935896E0,2.340133190E0,-2.363940001E0,3.755297753E0
6.496172306E0,1.637702942E0,2.226632595E0,-2.097350597E0,3.469703614E0
6.506168660E0,7.867369652E-1,1.236522198E0,-1.812977791E0,2.331272328E0
6.516163452E0,6.616480350E-1,5.595474243E-1,-1.529857635E0,1.758219505E0
6.526163452E0,-2.356455326E-1,4.540295601E-1,-2.473759055E-1,5.682134257E-1
6.536165014E0,-3.376657963E-1,3.356056213E-1,-4.146875441E-2,4.778796717E-1
6.546171264E0,-1.049626470E0,-4.091348648E-1,-4.377583042E-2,1.127396730E0
6.556206160E0,-1.146027803E0,-4.556498528E-1,1.455206275E-1,1.241842489E0
6.566170014E0,-1.253172398E0,-5.035285950E-1,3.238443732E-1,1.388833065E0
6.576186785E0,-2.621011019E0,-5.476064682E-1,-5.754086971E-1,2.738734520E0
6.586168816E0,-2.563418150E0,-5.583887100E-1,-5.633518696E-1,2.683332982E0
6.596163191E0,-2.680387497E0,-5.356917381E-1,-1.077146053E0,2.937973178E0
6.606161420E0,-2.597339153E0,-4.662008286E-1,-9.949826598E-1,2.820195806E0
6.616175952E0,-2.500984430E0,-3.559842110E-1,-9.052708149E-1,2.683498300E0
6.626173868E0,-2.403499842E0,5.072102547E-1,-7.738339901E-1,2.575440307E0
6.636178295E0,-2.302324533E0,6.098170280E-1,-6.116311550E-1,2.458997303E0
6.646174910E0,-2.359903097E0,2.125457764E0,-4.274067879E-1,3.204588881E0
6.656215274E0,-2.179156542E0,2.144254684E0,1.185859799E0,3.279148495E0
6.666177254E0,-2.039259434E0,2.144974709E0,1.300586939E0,3.232804034E0
6.676171785E0,-1.891967893E0,2.146093845E0,1.417180777E0,3.192751580E0
6.686174649E0,-1.946550131E0,2.049821377E0,1.331933975E0,3.124879710E0
6.696170743E0,-1.786484361E0,2.052854538E0,1.449441314E0,3.083280436E0
6.706171524E0,-1.634434223E0,2.051601410E0,1.524120450E0,3.033708411E0
6.716166941E0,-1.485318303E0,2.051870346E0,1.594871402E0,2.993318755E0
6.726172045E0,-1.340250731E0,2.054068089E0,-9.298980236E-2,2.454407227E0
6.736174389E0,-1.398675084E0,1.958236217E0,-1.414291859E-1,2.410598119E0
6.746164077E0,-1.260031462E0,1.963862896E0,-2.353144884E-1,2.345167300E0
6.756222618E0,-1.125040412E0,1.970913410E0,-1.020396352E0,2.488257284E0
6.766162149E0,-9.935770631E-1,1.979242802E0,-1.062011600E0,2.456107914E0
6.776169754E0,-8.675727844E-1,1.989026546E0,-1.105858564E0,2.435535322E0
6.786177045E0,-9.450809956E-1,1.900489807E0,-1.145446658E0,2.411863935E0
6.796173868E0,-8.223310113E-1,1.925725460E0,-1.105913043E0,2.368056270E0
6.806163712E0,-7.034534812E-1,1.952645779E0,-1.027902722E0,2.316086428E0
6.816164233E0,-5.886201262E-1,1.981554508E0,-8.903067112E-1,2.250706103E0
6.826170483E0,-4.774801135E-1,2.019531727E0,-6.739337444E-1,2.181898794E0
6.836165535E0,-5.298155546E-1,1.978506565E0,2.240537405E-1,2.060435107E0
6.846163972E0,-4.245795310E-1,3.225771427E0,4.173185825E-1,3.280247533E0
6.856174129E0,7.955130935E-1,3.329157352E0,1.212149858E0,3.631175710E0
6.866166056E0,9.463269114E-1,3.455935955E0,1.366827965E0,3.835002821E0
6.876164233E0,1.648148775E0,4.146222115E0,1.537389636E0,4.719228655E0
6.886163972E0,1.773434281E0,4.199380875E0,2.579022884E0,5.237482975E0
6.896163191E0,1.895045042E0,4.269979954E0,2.662901402E0,5.377264025E0
6.906170483E0,2.007075548E0,4.329988003E0,2.738523722E0,5.502423151E0
6.916165014E0,2.069887161E0,4.335417747E0,2.788016558E0,5.554576152E0
6.926162462E0,2.107193232E0,4.299173355E0,2.634334326E0,5.464693239E0
6.936182774E0,2.091409683E0,4.211351395E0,2.675108671E0,5.409776468E0
6.946195170E0,2.033088446E0,4.069105625E0,4.165527344E0,6.167875426E0
6.956163920E0,1.944051504E0,3.313705921E0,4.224811554E0,5.710430443E0
6.966165535E0,1.820533872E0,3.296354771E0,4.834450722E0,6.127985977E0
6.976165795E0,1.712464333E0,3.333002090E0,4.848344803E0,6.127632851E0
6.986163191E0,1.613585830E0,3.446055412E0,4.845506668E0,6.160997647E0
6.996164493E0,1.533144712E0,4.570998669E0,4.786417484E0,6.793699572E0
7.006169441E0,1.521457672E0,5.295048714E0,4.715233326E0,7.251606694E0
7.016166316E0,2.439636230E0,6.890832901E0,4.526690960E0,8.598042455E0
7.026163972E0,3.303108931E0,7.567081928E0,3.706086636E0,9.050211913E0
7.036164754E0,4.252943993E0,7.661375046E0,3.489454031E0,9.431886854E0
7.046162410E0,5.207844734E0,8.350107193E0,2.067045689E0,1.005577520E1
7.056170222E0,6.224098682E0,8.328778267E0,2.033115387E0,1.059440937E1
7.066163972E0,7.192138672E0,8.263241768E0,1.804909825E0,1.110250975E1
7.076162931E0,7.313640118E0,8.125724792E0,1.781522274E0,1.107657694E1
7.086163712E0,7.964530468E0,7.068398476E0,1.763388872E0,1.079377334E1
7.096166577E0,7.831569672E0,6.140969276E0,2.772955894E0,1.033122798E1
7.106171368E0,7.578248501E0,5.067434311E0,3.380665779E0,9.723046948E0
7.116168399E0,6.196070671E0,3.865708351E0,3.383579731E0,8.048826288E0
7.126172462E0,5.201607227E0,1.570477486E0,3.336040497E0,6.375914325E0
7.136161160E0,3.981484652E0,1.597109795E0,3.230523348E0,5.370219812E0
7.146161056E0,2.770566463E0,5.017375946E-2,1.659592628E0,3.229985082E0
7.156172306E0,1.648096204E0,-1.079606056E0,1.718211412E0,2.614196012E0
7.166165535E0,6.810923815E-1,-2.080466747E0,1.576192260E0,2.697519371E0
7.176165274E0,-1.492255926E-1,-3.015127182E0,1.632211089E0,3.431817775E0
7.186164754E0,-3.942536116E-1,-3.933927536E0,1.684477925E0,4.297521105E0
7.196165274E0,-1.613018394E0,-5.566073418E0,1.776497245E0,6.061265882E0
7.206171524E0,-1.837746620E0,-6.216007233E0,1.626277208E0,6.682876335E0
7.216162670E0,-1.847721338E0,-6.349114418E0,1.674747825E0,6.821298140E0
7.226163712E0,-1.845460534E0,-7.944598198E0,1.722858310E0,8.336102558E0
7.236163452E0,-1.800946951E0,-7.884836674E0,1.758451104E0,8.276847804E0
7.246165274E0,-1.790250659E0,-7.814895153E0,1.805079937E0,8.218022710E0
7.256169181E0,-1.983065128E0,-7.943842888E0,1.650495410E0,8.352324361E0
7.266163972E0,-1.958161354E0,-7.877419472E0,1.694458961E0,8.292124251E0
7.276165014E0,-1.938204646E0,-7.810006142E0,1.737775445E0,8.232417426E0
7.286288295E0,-1.893459201E0,-7.750581264E0,1.773330927E0,8.173212359E0
7.296153347E0,-1.879678369E0,-7.682195663E0,1.815015197E0,8.114407011E0
7.306151160E0,-2.067472935E0,-7.813062668E0,1.656001568E0,8.249892956E0
7.316173399E0,-2.066404343E0,-7.741936684E0,3.477219582E0,8.734910792E0
7.326164754E0,-2.064580202E0,-7.671177387E0,3.573195457E0,8.710750811E0
7.336164493E0,-2.063147783E0,-7.600463867E0,4.478100777E0,9.059636656E0
7.346167097E0,-9.829207659E-1,-7.530069828E0,5.156690121E0,9.179299420E0
7.356170743E0,-9.434330463E-1,-7.659583092E0,5.294074059E0,9.358765901E0
7.366166316E0,-3.354413509E-1,-7.601792336E0,6.217220783E0,9.826169237E0
7.376166056E0,6.133360863E-1,-7.505226612E0,7.125571251E0,1.036717769E1
7.386167358E0,6.562316418E-1,-7.455242634E0,7.090407848E0,1.030946973E1
7.396162410E0,1.204167604E0,-7.598954678E0,7.023860455E0,1.041771316E1
7.406171004E0,1.204055548E0,-7.540307522E0,7.466442585E0,1.067959513E1
7.416163972E0,1.196578503E0,-7.476075172E0,7.296982765E0,1.051520126E1
7.426164233E0,1.731036186E0,-7.403796196E0,7.870913029E0,1.094367197E1
7.436165014E0,1.657626867E0,-7.313656807E0,8.760344505E0,1.153173615E1
7.446165274E0,1.591449499E0,-7.409046173E0,1.157167816E1,1.383222369E1
7.456168920E0,4.190371513E0,-4.239276409E0,1.449727440E1,1.567487298E1
7.466243295E0,6.555591583E0,-9.576096535E-1,1.412610722E1,1.560255435E1
7.476172358E0,8.529433250E0,1.742527008E0,1.306976891E1,1.570370947E1
7.486159858E0,9.487172127E0,2.923399448E0,1.282430935E1,1.621775600E1
7.496162722E0,1.037810516E1,4.588246822E0,1.328312874E1,1.746993374E1
7.506172045E0,1.038031101E1,4.730078697E0,1.265387726E1,1.703658155E1
7.516164233E0,1.029067230E1,3.538307667E0,1.131580544E1,1.569920413E1
7.526164493E0,1.011797047E1,2.417621613E0,8.613186836E0,1.350574722E1
7.536164493E0,7.285333633E0,-9.351825714E-2,6.301903248E0,9.633214228E0
7.546164754E0,3.644359589E0,-2.527042866E0,6.043611526E0,7.496168537E0
7.556169702E0,-3.062496185E-1,-5.379554749E0,5.935824394E0,8.016695663E0
7.566162931E0,-2.303783894E0,-5.162031651E0,4.745144844E0,7.380405855E0
7.576167879E0,-4.710322857E0,-2.955137968E0,4.566342831E0,7.195239306E0
7.586163972E0,-4.949286938E0,-1.042623043E0,3.664442062E0,6.245849792E0
7.596162670E0,-5.003259182E0,5.742850304E-1,2.710731983E0,5.719307093E0
7.606167931E0,-4.977819920E0,1.584684849E0,1.682084560E0,5.488107660E0
7.616162410E0,-4.908931255E0,1.760074615E0,6.380152702E-1,5.253811208E0
7.626165014E0,-4.803839684E0,2.493898392E0,-3.030984402E-1,5.421095236E0
7.636163712E0,-4.871008396E0,2.508428574E0,-1.240136385E0,5.617550619E0
7.646194181E0,-2.842307806E0,2.512828350E0,-2.239093781E0,4.405287838E0
7.656188243E0,-1.916628599E0,2.514409542E0,-3.173408985E0,4.479536262E0
7.666149754E0,-1.669540405E0,2.476868153E0,-3.368071079E0,4.501793399E0
7.676162462E0,-1.485824823E0,2.403694153E0,-4.464180470E0,5.283401201E0
7.686165535E0,-1.377833366E0,2.305955887E0,-4.595903397E0,5.323362224E0
7.696164493E0,-1.340400219E0,2.204853058E0,-4.507958412E0,5.194202422E0
7.706171264E0,-1.420062780E0,2.140442371E0,-4.378472328E0,5.076326602E0
7.716171264E0,-2.251691341E0,2.121388912E0,-4.228512764E0,5.239343948E0
7.726164493E0,-2.308309078E0,2.739901543E0,-4.055538177E0,5.411352989E0
7.736167618E0,-3.937602758E0,4.023331165E0,-4.016015530E0,6.915221608E0
7.746163191E0,-3.855234861E0,3.910442352E0,-3.815390110E0,6.686673083E0
7.756169702E0,-3.769205093E0,3.800696850E0,-3.612558365E0,6.457769082E0
7.766165274E0,-2.714963436E0,3.694638729E0,-3.408092737E0,5.712834489E0
7.776163452E0,-1.868884206E0,5.099515915E0,-3.391641378E0,6.403204040E0
7.786163972E0,-1.688454986E0,5.007456303E0,-3.173314333E0,6.164042725E0
7.796163191E0,-7.421350479E-1,4.884155750E0,-2.934755802E0,5.746175549E0
7.806174389E0,-5.309462547E-1,4.719597816E0,-2.700062513E0,5.463226615E0
7.816174389E0,3.862149715E-1,4.520098209E0,-2.469858170E0,5.165331471E0
7.826201577E0,5.551784039E-1,4.294967651E0,-3.421640873E0,5.519293111E0
7.836169493E0,7.209506035E-1,2.735055923E0,-3.290241003E0,4.338892317E0
7.846167149E0,8.762881756E-1,2.653437614E0,-3.142552614E0,4.205264448E0
7.856163243E0,9.584524632E-1,2.590889931E0,-2.986868382E0,4.068503962E0
7.866173347E0,9.973826408E-1,2.539277077E0,-2.835418224E0,3.934754975E0
7.876178816E0,9.585978985E-1,2.404730320E0,-2.678774834E0,3.725247972E0
7.886173868E0,8.674809933E-1,2.377261162E0,-2.508142471E0,3.562958400E0
7.896174129E0,2.923226357E-2,2.351001263E0,-2.279534817E0,3.274803879E0
7.906172566E0,-7.529115677E-2,2.338582993E0,-2.071630478E0,3.125106720E0
7.916173608E0,-1.018432617E0,6.150832176E-1,-1.855549812E0,2.204222644E0
7.926174129E0,-1.754641056E0,5.441408157E-1,-1.693883181E0,2.498818659E0
7.936174389E0,-1.843245745E0,4.593706131E-1,-1.530715227E0,2.439603521E0
7.946181420E0,-2.831770182E0,3.720908165E-1,-1.371656775E0,3.168409104E0
7.956172566E0,-2.748753309E0,2.636427879E-1,-1.229122043E0,3.022564023E0
7.966171785E0,-2.864075661E0,1.590533257E-1,-1.123808384E0,3.080774681E0
7.976175170E0,-2.767649889E0,-4.784989357E-1,-1.021208763E0,2.988597410E0
7.986173608E0,-2.677068949E0,-5.008850098E-1,-9.262424111E-1,2.876718435E0
7.996174129E0,-2.565761805E0,-5.178828239E-1,-8.305606842E-1,2.746118589E0
8.006198556E0,-2.453974724E0,-5.041322708E-1,-7.235379219E-1,2.607613548E0
8.016171056E0,-2.513431549E0,-4.871721268E-1,-6.282993555E-1,2.636178088E0
8.026155483E0,-2.376618385E0,-4.233045578E-1,-5.270929337E-1,2.470896327E0
8.036175222E0,-2.240433693E0,1.983780861E-1,-4.255245924E-1,2.289097677E0
8.046163243E0,-2.105207205E0,2.570476532E-1,-3.094163537E-1,2.143294042E0
8.056164754E0,-1.972190261E0,9.006605148E-1,-1.811854243E-1,2.175672757E0
8.066166837E0,-2.041542053E0,9.921383858E-1,8.368652463E-1,2.419209783E0
8.076162670E0,-1.911083221E0,2.001087666E0,9.464543462E-1,2.924442982E0
8.086166316E0,-7.513368130E-1,2.005480766E0,1.053364396E0,2.386637103E0
8.096166837E0,-5.568310022E-1,2.996539116E0,1.196541429E0,3.274296692E0
8.106173608E0,-4.136250019E-1,3.023942947E0,1.097638369E0,3.243474461E0
8.116163712E0,-3.117923737E-1,3.007948399E0,1.160343289E0,3.239037604E0
8.126161889E0,-2.475285530E-1,2.938036442E0,-8.640816212E-1,3.072452695E0
8.136165274E0,-2.647165060E-1,1.944187641E0,-1.535093427E0,2.491275224E0
8.146164493E0,-3.268308640E-1,1.955370903E0,-2.228189468E0,2.982469126E0
8.156171004E0,-1.389893293E0,1.867329121E0,-2.358138084E0,3.313538386E0
8.166166577E0,-1.305391908E0,1.879563808E0,-3.202144146E0,3.935801732E0
8.176165014E0,-1.223085642E0,1.892195225E0,-3.193585396E0,3.908366530E0
8.186197879E0,-1.142935514E0,1.905184746E0,-3.119981527E0,3.830184752E0
8.196163816E0,-1.061447978E0,1.931464195E0,-2.897153378E0,3.640154315E0
8.206153399E0,-1.180304170E0,1.863567352E0,-1.761486411E0,2.822912607E0
8.216164233E0,-1.098197937E0,1.899450302E0,-1.478096247E0,2.645509152E0
8.226163972E0,-9.852437377E-1,3.598114014E0,-2.593495846E-1,3.739571083E0
8.236166577E0,-8.758564591E-1,3.666556358E0,-1.133155823E-2,3.769733209E0
8.246165014E0,-7.701068521E-1,3.738368511E0,9.163069725E-1,3.925313001E0
8.256173608E0,-8.658602238E-1,3.798130512E0,1.074771404E0,4.041119014E0
8.266167358E0,-7.647886276E-1,3.822899818E0,1.215290070E0,4.083674157E0
8.276167618E0,5.100140572E-1,3.796530247E0,2.347758770E0,4.492852935E0
8.286165014E0,1.358640671E0,3.760230064E0,2.422412395E0,4.674753087E0
8.296163712E0,1.493714333E0,3.715263844E0,2.267185688E0,4.601575695E0
8.306170483E0,1.629173040E0,3.689170361E0,2.309188604E0,4.647207200E0
8.316162670E0,1.719653726E0,3.674779415E0,2.348958492E0,4.688157280E0
8.326167618E0,1.724661827E0,3.658412933E0,2.356179476E0,4.680814601E0
8.336164754E0,1.686283112E0,3.661895275E0,2.363432646E0,4.673204640E0
8.346162931E0,1.578801155E0,3.703506470E0,2.170903921E0,4.573991374E0
8.356166837E0,8.550379872E-1,3.807067394E0,2.179796457E0,4.469492667E0
8.366215483E0,7.336808443E-1,4.747345448E0,2.190104008E0,5.279406401E0
8.376170274E0,-5.217506886E-1,4.886279583E0,2.201596022E0,5.384698412E0
8.386157306E0,-4.998086095E-1,6.039681435E0,2.214382410E0,6.452212794E0
8.396163295E0,-6.762909889E-1,6.181385040E0,3.206873417E0,6.996493953E0
8.406168139E0,-6.520539522E-1,7.320525169E0,3.859390736E0,8.301214367E0
8.416163972E0,-6.263111830E-1,7.988109589E0,3.846759796E0,8.888178746E0
8.426164806E0,-5.749015212E-1,8.678788185E0,3.850169182E0,9.511870418E0
8.436163712E0,1.231999159E0,8.779403687E0,3.888073921E0,9.680540782E0
8.446166056E0,2.107092857E0,9.387790680E0,3.892111778E0,1.037877586E1
8.456174910E0,2.956547499E0,9.312530518E0,3.659189224E0,1.043331508E1
8.466165274E0,3.784730196E0,9.172915459E0,1.810014844E0,1.008675936E1
8.476167879E0,3.929654121E0,8.310658455E0,1.783678889E0,9.364333177E0
8.486165795E0,4.974617481E0,8.141534805E0,1.562592864E0,9.668148971E0
8.496164233E0,5.672877312E0,7.057894707E0,1.545998216E0,9.186159435E0
8.506167879E0,5.730280399E0,6.889843941E0,1.533053637E0,9.091551927E0
8.516162410E0,5.755557537E0,5.833652496E0,1.524237037E0,8.335540928E0
8.526163452E0,5.728610516E0,5.125509262E0,1.519395351E0,7.835584590E0
8.536162670E0,5.695298195E0,4.304723740E0,1.364381552E0,7.268328902E0
8.546216108E0,5.616474152E0,3.505955696E0,1.408996582E0,6.769178577E0
8.556180431E0,5.437636852E0,2.603016853E0,1.454072714E0,6.201444891E0
8.566180431E0,4.369157314E0,1.467856407E0,2.491168499E0,5.239280347E0
8.576160639E0,2.931394100E0,3.299121857E-1,2.510756493E0,3.873733546E0
8.586162722E0,1.374739766E0,-1.072302818E0,2.561748981E0,3.098757913E0
8.596163712E0,-4.303038120E-2,-2.444845200E0,2.673439980E0,3.623037536E0
8.606171056E0,-1.656689763E0,-3.760026932E0,3.652997971E0,5.497892112E0
8.616164754E0,-1.725462794E0,-5.008999825E0,3.693961143E0,6.458533117E0
8.626164493E0,-1.784824252E0,-6.144735336E0,3.671301603E0,7.377114980E0
8.636165795E0,-1.982933283E0,-7.130190849E0,3.610731602E0,8.234623771E0
8.646163191E0,-2.001813650E0,-8.122972488E0,3.571277142E0,9.096370725E0
8.656169702E0,-2.005106926E0,-8.059300423E0,3.435845852E0,8.987647846E0
8.666162931E0,-1.988633513E0,-8.000763893E0,2.702353954E0,8.675805612E0
8.676162931E0,-3.136099815E0,-8.138962746E0,2.546347618E0,9.086348156E0
8.686163712E0,-3.775185585E0,-8.074422836E0,2.386808395E0,9.227414841E0
8.696165014E0,-3.834725618E0,-8.008097649E0,2.272232056E0,9.165030662E0
8.706172306E0,-3.927930832E0,-9.566349030E0,2.167253733E0,1.056601453E1
8.716170483E0,-4.035010338E0,-1.024212074E1,2.043084860E0,1.119627355E1
8.726257566E0,-4.117299080E0,-1.089267826E1,1.888710022E0,1.179702577E1
8.736168452E0,-4.157002449E0,-1.158634758E1,1.817319155E0,1.244294051E1
8.746151368E0,-4.116202354E0,-1.165982628E1,1.784671783E0,1.249318711E1
8.756171316E0,-2.459077835E0,-1.223648834E1,1.734331727E0,1.260105620E1
8.766165535E0,-2.461776495E0,-1.226970673E1,1.684534431E0,1.262710192E1
8.776164493E0,-2.666330099E0,-1.233555794E1,1.626914024E0,1.272486366E1
8.786163191E0,-2.666408777E0,-1.234326363E1,1.579081416E0,1.272632668E1
8.796167879E0,-2.661302567E0,-1.230012798E1,1.534899116E0,1.267799649E1
8.806173868E0,-2.685503006E0,-1.219036770E1,2.233181477E0,1.268085528E1
8.816163452E0,-2.870153427E0,-1.125888062E1,3.060209990E0,1.201520115E1
8.826161889E0,-2.890802145E0,-1.108596992E1,3.596837282E0,1.200802668E1
8.836166316E0,-2.908120155E0,-1.012387466E1,4.295950890E0,1.137564043E1
8.846167879E0,-1.432221174E0,-9.928080559E0,5.052956581E0,1.123167001E1
8.856169702E0,-1.389643908E0,-8.878541946E0,5.554912567E0,1.056487912E1
8.866187149E0,-7.631618977E-1,-8.686305046E0,5.458249569E0,1.028721536E1
8.876163191E0,-7.055046558E-1,-8.515621185E0,6.065902233E0,1.047896516E1
8.886163452E0,-2.835536003E-2,-8.350067139E0,5.838586807E0,1.018889205E1
8.896163191E0,3.708863258E-2,-8.177558899E0,6.250734329E0,1.029298425E1
8.906244077E0,-7.429838181E-3,-7.924057007E0,5.839885712E0,9.843525780E0
8.916176004E0,-4.058766365E-2,-7.640999794E0,5.370598793E0,9.339692533E0
8.926178608E0,-1.474552155E-1,-7.324474335E0,4.900582314E0,8.813930697E0
8.936161681E0,-2.265529633E-1,-6.991422653E0,4.458066940E0,8.294918794E0
8.946163764E0,-3.459203243E-1,-6.641121864E0,4.159660339E0,7.843910672E0
8.956168399E0,-4.487049580E-1,-6.243200302E0,5.019847870E0,8.023575187E0
8.966191577E0,-5.456464291E-1,-5.836520672E0,4.616158009E0,7.461341591E0
8.976164806E0,-5.890340805E-1,-5.367389679E0,4.363587379E0,6.942386328E0
8.986163191E0,-5.934617519E-1,-3.778366327E0,5.661952972E0,6.832712523E0
8.996160587E0,2.064498901E0,-1.320343018E-1,9.061040878E0,9.294194455E0
9.006167879E0,3.615228653E0,4.262042046E-2,1.050433254E1,1.110912674E1
9.016165274E0,4.663864136E0,-2.892556190E0,1.047554207E1,1.182605140E1
9.026165274E0,4.794901848E0,-2.589188099E0,1.034770584E1,1.169487045E1
9.036161889E0,4.890913010E0,-4.036721230E0,1.024620819E1,1.204993488E1
9.046165274E0,4.932004929E0,-3.948333263E0,1.016217995E1,1.196594791E1
9.056173608E0,5.912512779E0,-5.068929195E0,1.003832054E1,1.270510645E1
9.066206420E0,5.863989353E0,-6.765308380E0,9.851511955E0,1.331195164E1
9.076174129E0,3.732054710E0,-8.028301239E0,8.288866043E0,1.212794927E1
9.086204806E0,1.692240238E0,-7.738948822E0,7.323648453E0,1.078845830E1
9.096170795E0,-2.115941048E-1,-5.132343292E0,7.290335655E0,8.918223685E0
9.106150274E0,-1.732300282E0,-3.110389471E0,7.373716354E0,8.188228123E0
9.116162202E0,-2.859108925E0,-1.084316850E0,7.388133526E0,7.995921702E0
9.126172306E0,-4.250215054E0,-9.203680754E-1,7.273188114E0,8.474117697E0
9.136177514E0,-4.232637882E0,-7.707863450E-1,6.136466503E0,7.494368297E0
9.146172306E0,-6.375944138E0,-6.347888112E-1,4.510800362E0,7.836002832E0
9.156176993E0,-6.436670780E0,-7.092022896E-1,2.932542324E0,7.108692081E0
9.166209806E0,-6.266051769E0,5.504367948E-1,1.359474659E0,6.435414267E0
9.176175952E0,-3.971124172E0,1.714705944E0,1.566433907E-1,4.328346199E0
9.186175431E0,-3.776607752E0,2.662307739E0,-6.405315399E-1,4.664861119E0
9.196175691E0,-2.310033083E0,2.811793327E0,-7.635345459E-1,3.718254908E0
9.206172306E0,-2.056798935E0,3.682295322E0,-8.655800819E-1,4.305688049E0
9.216173608E0,-1.254815578E0,3.721735954E0,-9.433059692E-1,4.039270578E0
9.226181160E0,-1.167580366E0,3.715761185E0,-1.019534111E0,4.026111635E0
9.236177514E0,-1.125805616E0,3.688562155E0,-1.151938438E0,4.024908846E0
9.246176212E0,-1.112672329E0,3.623218536E0,-2.193729401E0,4.379292290E0
9.256177774E0,-1.142791271E0,3.541723251E0,-2.998040199E0,4.778914156E0
9.266216629E0,-1.165509939E0,3.413383007E0,-3.779403210E0,5.224316758E0
9.276182149E0,-1.193710804E0,3.256923676E0,-3.915747404E0,5.231211623E0
9.286153972E0,-1.227786779E0,3.091767311E0,-4.820815086E0,5.857195880E0
9.296162983E0,-1.276962280E0,2.935470581E0,-4.848606110E0,5.810043150E0
9.306163712E0,-1.349696994E0,2.806668043E0,-4.847592354E0,5.761789575E0
9.316164493E0,-1.460641026E0,2.705957890E0,-4.826166153E0,5.722548387E0
9.326164754E0,-2.234507561E0,2.645542145E0,-4.811229706E0,5.927887361E0
9.336165535E0,-3.234006882E0,2.636234283E0,-4.809491158E0,6.367082291E0
9.346167879E0,-3.378985643E0,4.218722343E0,-4.894512177E0,7.291872985E0
9.356164233E0,-3.361877441E0,4.898599625E0,-5.493044376E0,8.091479144E0
9.366188712E0,-3.341618538E0,5.617507935E0,-5.491926193E0,8.537216359E0
9.376163452E0,-3.316601515E0,6.295123577E0,-5.520049095E0,9.005518779E0
9.386166577E0,-1.841060042E0,7.217638016E0,-6.728622913E0,1.003783676E1
9.396163191E0,-1.682078242E0,7.047848701E0,-6.608665466E0,9.806937227E0
9.406163452E0,-5.872194767E-1,6.851949215E0,-6.474001884E0,9.444931718E0
9.416162670E0,1.087691784E-1,7.919541359E0,-6.321302891E0,1.013359938E1
9.426163452E0,2.651884556E-1,7.692282677E0,-6.139936447E0,9.845829435E0
9.436170483E0,1.120369434E0,7.415484428E0,-6.134267330E0,9.688853010E0
9.446162774E0,1.227850437E0,7.083233356E0,-5.890608788E0,9.294034827E0
9.456185170E0,1.309716940E0,6.722160816E0,-5.616200447E0,8.856890649E0
9.466184858E0,1.318549156E0,6.368191242E0,-5.316153049E0,8.399637779E0
9.476172566E0,1.243192196E0,6.000140190E0,-4.976002216E0,7.893529451E0
9.486167358E0,1.090076685E0,5.653729439E0,-4.833119869E0,7.517444474E0
9.496170222E0,6.905698776E-2,5.317307949E0,-5.674508095E0,7.776797208E0
9.506163972E0,-9.560251236E-2,5.022740364E0,-5.444489479E0,7.408071699E0
9.516163452E0,-1.183928251E0,3.826569557E0,-5.238492489E0,6.594400976E0
9.526166316E0,-2.269510269E0,3.589733124E0,-5.691701412E0,7.101572060E0
9.536163452E0,-3.336007833E0,3.451937675E0,-6.308422089E0,7.927232255E0
9.546162931E0,-3.274866581E0,3.334009171E0,-6.166053772E0,7.736962414E0
9.556167097E0,-3.209288359E0,3.216485023E0,-6.498970032E0,7.929812050E0
9.566190535E0,-3.136609554E0,3.114335060E0,-6.231670380E0,7.640099350E0
9.576163191E0,-3.235445499E0,2.922402859E0,-5.970842361E0,7.393206649E0
9.586166577E0,-3.130536079E0,2.835173130E0,-5.650482178E0,7.054531286E0
9.596164806E0,-2.990581274E0,1.136154652E0,-5.314491749E0,6.203083612E0
9.606165274E0,-2.821084261E0,8.629331589E-1,-4.951018333E0,5.763310905E0
9.616175795E0,-2.653810978E0,-4.392843246E-1,-3.965474606E0,4.791729570E0
9.626168764E0,-2.689191103E0,-1.228342533E0,-3.661701679E0,4.706233457E0
9.636178504E0,-2.528344154E0,-2.018879890E0,-3.350054741E0,4.657388425E0
9.646172879E0,-2.370127678E0,-2.745719433E0,-3.048161983E0,4.737907966E0
9.656164233E0,-2.216234207E0,-2.926723480E0,-2.770712852E0,4.599375403E0
9.666191577E0,-2.082389116E0,-3.784251690E0,-2.561154842E0,5.021595305E0
9.676163712E0,-2.152102947E0,-3.853978872E0,-2.400446177E0,5.024623577E0
9.686162670E0,-2.033050537E0,-3.880012035E0,-2.256222963E0,4.927304531E0
9.696169702E0,-1.928358078E0,-3.813639164E0,-2.120113850E0,4.770460280E0
9.706164233E0,-1.790882468E0,-1.803675652E0,-1.962124825E0,3.210987340E0
9.716167358E0,-1.895443320E0,-1.249861717E-1,-1.812507391E0,2.625549460E0
9.726167097E0,-3.350718498E0,2.254672527E0,-1.642281055E0,4.359810744E0
9.736165014E0,-3.351124763E0,3.654664993E0,-1.464385867E0,5.170206897E0
9.746165535E0,-3.309720993E0,5.043971062E0,-1.294558167E0,6.170233219E0
9.756164493E0,-3.167888641E0,5.950362206E0,-1.151827812E0,6.838789084E0
9.766187410E0,-1.589012384E0,6.051515102E0,-1.037526608E0,6.342101927E0
9.776164493E0,-1.469905496E0,6.084305286E0,-9.652531147E-1,6.333332974E0
9.786163972E0,-1.988568306E-1,6.017239094E0,-9.400019646E-1,6.093464864E0
9.796160066E0,1.067665219E0,5.189504623E0,-9.525250196E-1,5.383137670E0
9.806177514E0,2.334555626E0,4.099637985E0,-1.683658719E0,5.009180398E0
9.816153399E0,3.551614285E0,2.169704437E0,-1.664822102E0,4.482545482E0
9.826168452E0,4.369687557E0,2.190419197E0,-1.650094390E0,5.158964732E0
9.836163712E0,4.464474678E0,2.211794853E0,-1.609704137E0,5.235906610E0
9.846164233E0,4.393156052E0,2.238537312E0,-1.557329893E0,5.170700705E0
9.856168660E0,3.325729370E0,2.269948959E0,-1.503270864E0,4.298019010E0
9.866188452E0,2.118371010E0,2.205224514E0,-1.464375973E0,3.390414117E0
9.876163191E0,6.813145876E-1,8.223700523E-1,-1.416584015E0,1.774032790E0
9.886163972E0,-1.061488748E0,8.444309235E-1,-1.300713539E0,1.879275833E0
9.896165274E0,-3.248680592E0,9.829630852E-1,-1.091665268E0,3.565371659E0
9.906166837E0,-4.002399445E0,2.326744080E0,-2.228546143E-1,4.634932956E0
9.916165535E0,-4.139451504E0,2.373730183E0,-9.066176414E-2,4.772617027E0
9.926163452E0,-4.235793114E0,2.420474052E0,1.515507698E-2,4.878613288E0
9.936160327E0,-4.224482536E0,4.178994656E0,1.231610775E-1,5.943518965E0
9.946161889E0,-4.089554310E0,4.968627453E0,2.285382748E-1,6.439250186E0
9.956165795E0,-3.906512737E0,5.117564201E0,2.937352657E-1,6.444888325E0
9.966186629E0,-2.980441093E0,5.913938999E0,2.285959721E-1,6.626459063E0
9.976289024E0,-2.800911903E0,5.957248211E0,-6.245253086E-1,6.612408457E0
9.986158660E0,-2.667961359E0,6.004294872E0,-7.220687866E-1,6.609913620E0
9.996167254E0,-2.580668688E0,6.045033932E0,-7.717883587E-1,6.618001464E0
1.000616559E1,-2.551016331E0,6.097229004E0,-7.505457401E-1,6.651857241E0
1.001616684E1,-3.056864023E0,6.159959793E0,-6.784036160E-1,6.910119664E0
1.002616345E1,-3.021590471E0,6.746499538E0,-5.612759590E-1,7.413521140E0
1.003616710E1,-3.018865108E0,6.757357597E0,2.121465206E-1,7.404082279E0
1.004616606E1,-3.626577854E0,6.770346165E0,3.357822895E-1,7.687808782E0
1.005616632E1,-3.546602964E0,6.761001110E0,1.292552948E0,7.743398590E0
1.006618741E1,-3.429638147E0,6.716004848E0,2.929008961E0,8.089884575E0
1.007616345E1,-3.299926043E0,6.627023220E0,2.954907894E0,7.971099630E0
1.008616449E1,-3.183048964E0,5.963463783E0,2.980571985E0,7.387727009E0
1.009616481E1,-3.093226910E0,5.806866646E0,2.806131601E0,7.152770618E0
1.010616527E1,-3.021561146E0,4.735243797E0,2.805104494E0,6.278612649E0
1.011616371E1,-2.991590023E0,4.036290169E0,2.801535606E0,5.752377851E0
1.012616189E1,-2.968828678E0,3.276467323E0,2.760114908E0,5.212237154E0
1.013616241E1,-2.924138784E0,2.148258209E0,2.720825672E0,4.535250082E0
1.014616371E1,-2.843131065E0,2.050728798E0,2.484817266E0,4.296882557E0
1.015624012E1,-2.717339993E0,9.463720322E-1,2.454184771E0,3.781875136E0
1.016620517E1,-2.529373646E0,8.022837639E-1,2.426423311E0,3.595680793E0
1.017614840E1,-1.622608185E0,2.403926849E-2,2.404283524E0,2.900692067E0
1.018616376E1,-1.375500441E0,-8.499622345E-3,2.385265827E0,2.753464503E0
1.019616923E1,-1.124840975E-1,2.881956100E-2,2.170585394E0,2.173689074E0
1.020616606E1,1.500440121E0,1.673536301E-1,2.161671400E0,2.636693201E0
1.021616788E1,1.619630337E0,2.070719242E0,2.153793335E0,3.398515314E0
1.022616632E1,1.717343450E0,2.087387562E0,2.147307396E0,3.452156487E0
1.023616788E1,1.808516145E0,3.088070869E0,2.140724421E0,4.170085537E0
1.024616397E1,1.705410600E0,4.612306118E0,1.976056814E0,5.299678629E0
1.025616215E1,1.720812082E0,4.680051804E0,1.973575950E0,5.362749401E0
1.026619184E1,3.351605654E0,4.687313080E0,1.972332239E0,6.090505630E0
1.027617074E1,3.407975674E0,4.602931023E0,1.972070217E0,6.057254587E0
1.028616423E1,3.483099222E0,4.427015305E0,2.894187212E0,6.332990156E0
1.029617777E1,4.196837425E0,3.245727062E0,2.917977333E0,6.054979790E0
1.030617361E1,4.218551636E0,1.899383068E0,2.929556608E0,5.475959812E0
1.031617335E1,4.242654800E0,1.901148796E0,2.925578117E0,5.493040490E0
1.032617387E1,4.226085186E0,1.895394802E0,2.911426544E0,5.470714942E0
1.033622184E1,4.212228298E0,6.590175629E-1,2.884676456E0,5.147672255E0
1.034616871E1,4.199188232E0,5.232443810E-1,2.815133572E0,5.082513504E0
1.035615204E1,4.184370041E0,-2.305250168E-1,2.715988636E0,4.993865106E0
1.036623330E1,4.171510220E0,-3.514285088E-1,2.588225365E0,4.921779155E0
1.037617804E1,4.160288334E0,-1.078808784E0,2.457813263E0,4.951027515E0
1.038617439E1,4.134383678E0,-1.214832783E0,2.362012625E0,4.914066618E0
1.039617804E1,4.099695206E0,-2.142243385E0,2.302163124E0,5.166881318E0
1.040617751E1,4.045823097E0,-2.299739838E0,2.264891624E0,5.175637345E0
1.041617361E1,3.950598001E0,-3.358296394E0,2.242624998E0,5.649313775E0
1.042617491E1,3.757427692E0,-4.454545975E0,2.250440121E0,6.247057183E0
1.043617465E1,3.588113308E0,-4.569939137E0,2.229230165E0,6.223212029E0
1.044617465E1,3.419061661E0,-5.381033897E0,2.224700451E0,6.752392209E0
1.045617387E1,3.257086754E0,-5.472800732E0,2.221622229E0,6.745055026E0
1.046621658E1,3.098246574E0,-6.109172821E0,2.223545313E0,7.201755213E0
1.047617673E1,2.934177637E0,-6.167129040E0,2.240228176E0,7.187593567E0
1.048617465E1,2.791853905E0,-6.214913368E0,2.288570404E0,7.187290929E0
1.049617387E1,2.660114288E0,-6.238883018E0,2.986950159E0,7.410920361E0
1.050617309E1,2.552392006E0,-6.246917248E0,3.044025183E0,7.403024339E0
1.051618116E1,2.462496042E0,-6.216253281E0,3.818011761E0,7.699539299E0
1.052616220E1,2.385722399E0,-6.122323990E0,3.869727612E0,7.625569762E0
1.053614934E1,2.314352989E0,-5.463724613E0,4.466100216E0,7.426612118E0
1.054616100E1,2.242617369E0,-5.306144238E0,4.478485584E0,7.296665845E0
1.055616429E1,2.179242134E0,-4.302062511E0,4.471570015E0,6.576608285E0
1.056619080E1,2.099601746E0,-4.152649879E0,5.016672134E0,6.842501576E0
1.057616371E1,1.980462193E0,-3.266316414E0,4.971332550E0,6.269385994E0
1.058616814E1,1.818588972E0,-3.125658035E0,5.459656239E0,6.548652552E0
1.059617413E1,1.611878157E0,-2.273438931E0,5.407834053E0,6.083695005E0
1.060616142E1,-2.208431959E-1,-1.070537567E0,7.022352219E0,7.106915863E0
1.061616527E1,-1.571170211E0,-9.523124695E-1,7.601271629E0,7.820153787E0
1.062616397E1,-3.719614983E0,-8.330807686E-1,9.017099380E0,9.789670088E0
1.063616215E1,-5.996954918E0,1.367702484E-1,8.822636604E0,1.066869678E1
1.064616866E1,-7.091016769E0,2.121057987E0,1.078895473E1,1.308369023E1
1.065616423E1,-6.972126484E0,4.055938244E0,1.061546230E1,1.333226247E1
1.066619027E1,-5.385514259E0,6.550868034E0,9.548190117E0,1.277049609E1
1.067616241E1,-3.991721630E0,8.752241135E0,7.840472221E0,1.241001898E1
1.068616632E1,-1.524702668E0,1.020752621E1,6.217421055E0,1.204884368E1
1.069618762E1,4.237111807E-1,1.093138885E1,4.070478439E0,1.167234287E1
1.070617418E1,2.929452419E0,1.096670341E1,1.783353329E0,1.149045797E1
1.071616642E1,5.120562077E0,1.023739910E1,-6.832721233E-1,1.146696809E1
1.072616330E1,5.333457470E0,8.099689484E0,-3.007718563E0,1.015367467E1
1.073616632E1,4.181423664E0,5.545049191E0,-4.202625275E0,8.117507843E0
1.074617080E1,2.282967091E0,2.329854012E0,-4.210666656E0,5.326337592E0
1.075616684E1,4.634278417E-1,1.413402557E-1,-4.167528629E0,4.195597372E0
1.076619418E1,-8.938791156E-1,-1.680237770E0,-3.108319521E0,3.644704252E0
1.077616475E1,-3.007158518E0,-1.899326324E0,-2.915787458E0,4.599158547E0
1.078616762E1,-3.961896420E0,-8.779950142E-1,-2.631415129E0,4.836511559E0
1.079616866E1,-3.885961771E0,7.446246147E-1,-2.412900448E0,4.634355756E0
1.080616788E1,-3.044032574E0,2.008877277E0,-4.373008728E0,5.694289030E0
1.081616684E1,-2.095701218E0,3.860253334E0,-4.958119869E0,6.623931766E0
1.082616449E1,-6.732671261E-1,4.993170738E0,-4.972238541E0,7.078714484E0
1.083616241E1,-5.873011947E-1,5.771780968E0,-5.524184704E0,8.010929713E0
1.084616892E1,-5.011922121E-1,5.803974628E0,-5.352789879E0,7.911363638E0
1.085616293E1,-6.139616370E-1,5.736766815E0,-5.120175362E0,7.713860131E0
1.086618533E1,-5.276081562E-1,5.524287224E0,-4.307021141E0,7.024710016E0
1.087618804E1,-4.345702231E-1,3.844379425E0,-4.018679619E0,5.578341180E0
1.088616455E1,-3.404270113E-1,1.704891205E0,-3.188296795E0,3.631498454E0
1.089615486E1,-2.488647252E-1,1.695095062E0,-2.924866915E0,3.389709042E0
1.090616194E1,-3.576758504E-1,-7.252597809E-2,-2.656180859E0,2.681135727E0
1.091616580E1,-2.672774792E-1,-9.673233032E-1,-2.433043480E0,2.631891373E0
1.092616397E1,-1.796275377E-1,-1.129911423E0,-2.230845690E0,2.507117542E0
1.093616736E1,-9.185420722E-2,-1.943702698E0,-2.087699652E0,2.853928382E0
1.094617022E1,-5.933716893E-3,-1.986083031E0,-2.009126902E0,2.825093259E0
1.095616267E1,-1.264813095E-1,-2.006174564E0,-1.986440778E0,2.826071632E0
1.096619080E1,-1.168002654E-2,-1.955347061E0,-2.906799078E0,3.503284092E0
1.097616241E1,5.995899439E-2,-1.873181343E0,-2.922991276E0,3.472215636E0
1.098616736E1,1.302120686E-1,-1.750912666E0,-3.535154104E0,3.947146424E0
1.099617465E1,-1.698315144E-3,-8.604421616E-1,-3.561949730E0,3.664403018E0
1.100616710E1,6.598250568E-2,-1.862282753E-1,-4.193541050E0,4.198192611E0
1.101616449E1,1.327463686E-1,6.225252151E-1,-4.141935825E0,4.190559822E0
1.102616371E1,1.997933090E-1,1.663881302E0,-4.039877415E0,4.373674414E0
1.103616241E1,2.670267224E-1,1.688095093E0,-3.841012001E0,4.204086287E0
1.104616866E1,1.331485063E-1,3.233819962E0,-3.059753418E0,4.453920862E0
1.105620074E1,2.024035752E-1,3.392884254E0,-2.818746567E0,4.415649780E0
1.106619527E1,2.730610669E-1,4.203104973E0,-1.982075691E0,4.655027154E0
1.107615043E1,1.380653262E0,4.233699799E0,-1.758060575E0,4.787608422E0
1.108616324E1,1.515443683E0,4.198495865E0,-9.509985447E-1,4.563807108E0
1.109617100E1,2.209269285E0,4.086194038E0,-8.217920065E-1,4.717329180E0
1.110616241E1,2.255095959E0,3.075252533E0,-7.552653551E-1,3.887552145E0
1.111616892E1,2.263588428E0,2.941301346E0,-7.707306147E-1,3.790661138E0
1.112616866E1,2.203691959E0,1.736045837E0,-1.526665926E0,3.193872610E0
1.113616762E1,2.128072262E0,1.763277054E0,-1.573095918E0,3.180010737E0
1.114617048E1,1.397733331E0,1.709396362E0,-2.172007084E0,3.097306759E0
1.115616345E1,1.343422294E0,1.735027313E0,-2.115596056E0,3.048089551E0
1.116619340E1,3.622398973E-1,1.760185242E0,-1.985042572E0,2.677660143E0
1.117616423E1,3.843538165E-1,1.784968376E0,-1.267378449E0,2.222630895E0
1.118616580E1,2.055937797E-1,1.710747719E0,-1.106120348E0,2.047542132E0
1.119616840E1,2.272232771E-1,1.736269951E0,-2.964725494E-1,1.775995420E0
1.120616449E1,2.493420541E-1,1.761496544E0,-1.732597351E-1,1.787473208E0
1.121616423E1,2.923425734E-1,1.787159920E0,-5.719876289E-2,1.811815790E0
1.122616345E1,3.359147310E-1,1.812478065E0,7.925510406E-3,1.843360588E0
1.123620809E1,2.104108781E-1,1.738801956E0,1.403069496E-2,1.751542703E0
1.124618408E1,2.835153937E-1,1.763749123E0,-7.006072998E-2,1.787764093E0
1.125616757E1,3.562304080E-1,1.788455009E0,-9.321043491E-1,2.047996568E0
1.126621246E1,4.275188148E-1,1.812781334E0,-1.028689623E0,2.127710234E0
1.127616762E1,4.970554113E-1,1.836833954E0,-1.705326080E0,2.555222123E0
1.128616788E1,3.657796383E-1,1.760764122E0,-1.713819504E0,2.484202554E0
1.129616996E1,4.350584149E-1,1.784244061E0,-1.710121155E0,2.509445567E0
1.130616371E1,1.580864072E0,1.807634354E0,-1.704023838E0,2.944549271E0
1.131616527E1,1.693183184E0,1.831339836E0,-1.689410210E0,3.012437841E0
1.132616501E1,1.786649704E0,1.776115894E0,-1.595185518E0,2.981831932E0
1.133616423E1,1.747736335E0,1.807258606E0,-1.495318413E0,2.925191125E0
1.134617543E1,1.616811275E0,1.838113308E0,-1.408334970E0,2.824207256E0
1.135616606E1,6.054218411E-1,3.610359669E0,-1.313580036E0,3.889309072E0
1.136618845E1,6.326908469E-1,4.504189014E0,-1.187492609E0,4.700867482E0
1.137616449E1,-1.047649980E0,5.282990932E0,-2.803452015E-1,5.393158361E0
1.138616189E1,-1.219267964E0,5.964289188E0,4.337437153E-1,6.103072464E0
1.139616840E1,-2.299368382E0,6.065574646E0,1.236442447E0,6.603565754E0
1.140616397E1,-2.425077438E0,6.152592182E0,2.780568123E0,7.174046991E0
1.141628350E1,-3.131683826E0,6.188101292E0,2.828765631E0,7.490123909E0
1.142615366E1,-3.144646406E0,6.147653580E0,2.666188955E0,7.402094913E0
1.143614819E1,-3.160929680E0,6.046029091E0,2.671002150E0,7.326677057E0
1.144617418E1,-3.144122601E0,5.896926880E0,2.651333332E0,7.189493862E0
1.145616324E1,-3.152720690E0,5.068453789E0,2.611253500E0,6.515175853E0
1.146619106E1,-3.651844501E0,4.960658073E0,2.532573223E0,6.660181973E0
1.147616371E1,-3.534090757E0,4.846564293E0,2.258246422E0,6.409263595E0
1.148616866E1,-3.371543884E0,4.719808578E0,2.187370539E0,6.199071790E0
1.149617283E1,-3.177829027E0,4.006728172E0,2.118706226E0,5.535466019E0
1.150616606E1,-2.012445927E0,3.897221565E0,2.093034029E0,4.859945060E0
1.151616319E1,-1.755084872E0,3.814986229E0,1.833450556E0,4.582137468E0
1.152616736E1,-4.975699186E-1,3.724126816E0,1.776410580E0,4.155999388E0
1.153616319E1,4.698064327E-1,3.640779495E0,1.723702908E0,4.055507999E0
1.154617413E1,1.823002100E0,3.563709259E0,1.673756719E0,4.338758105E0
1.155617100E1,1.949011087E0,3.487616539E0,1.626268864E0,4.313567405E0
1.156621632E1,3.144943714E0,3.394259453E0,1.381349564E0,4.829057342E0
1.157617152E1,3.871591330E0,2.749821663E0,1.338316441E0,4.933743963E0
1.158617387E1,4.048768520E0,2.707252502E0,1.297730207E0,5.040421246E0
1.159616262E1,5.061859131E0,2.648427010E0,1.258202553E0,5.849757016E0
1.160617762E1,5.123585701E0,2.577385902E0,1.221275806E0,5.863920457E0
1.161618267E1,5.694012642E0,2.484051704E0,-3.167456388E-1,6.220339270E0
1.162616220E1,5.645967484E0,1.417363167E0,-4.429855347E-1,5.837987954E0
1.163616892E1,5.581411362E0,1.408572197E0,-5.661806464E-1,5.784184380E0
1.164617543E1,5.516821861E0,1.401595116E0,-6.772153974E-1,5.732225834E0
1.165617335E1,5.410612106E0,1.391389847E0,-7.339625955E-1,5.634659720E0
1.166621892E1,5.264334679E0,1.280979156E0,-7.420374155E-1,5.468523268E0
1.167617413E1,5.097329617E0,1.277180672E0,-6.660657525E-1,5.296942823E0
1.168617465E1,4.841599464E0,-5.118837357E-1,7.945683002E-1,4.932995957E0
1.169617413E1,4.612726212E0,-6.273250580E-1,8.261004090E-1,4.727919386E0
1.170617543E1,3.710054159E0,-1.323079109E0,6.591780186E-1,3.993689504E0
1.171616840E1,3.486762524E0,-1.402314186E0,6.930944324E-1,3.821567462E0
1.172617491E1,2.690485239E0,-1.480178833E0,7.279776335E-1,3.155882069E0
1.173617647E1,2.505214214E0,-1.571570873E0,1.724634409E0,3.423491947E0
1.174617335E1,2.342581034E0,-2.195750713E0,1.741669416E0,3.652727673E0
1.175617699E1,2.222743273E0,-2.249915600E0,1.757726669E0,3.618329851E0
1.176621449E1,2.188041449E0,-2.339744568E0,1.767814636E0,3.658838424E0
1.177617678E1,2.247793436E0,-3.007153034E0,1.759367704E0,4.146193365E0
1.178617517E1,3.205284357E0,-3.105226040E0,1.723099470E0,4.783863329E0
1.179621621E1,3.278261423E0,-3.852144718E0,1.639739513E0,5.317401862E0
1.180616194E1,4.179534435E0,-3.953690052E0,1.534674287E0,5.954443575E0
1.181616501E1,4.202171803E0,-4.607369423E0,1.418316603E0,6.395132746E0
1.182616501E1,4.217990875E0,-4.657336712E0,1.305925369E0,6.417762331E0
1.183616710E1,4.193555355E0,-4.713193893E0,2.809058130E-1,6.314983077E0
1.184616996E1,4.096433163E0,-4.738588333E0,2.700801492E-1,6.269603443E0
1.185616319E1,3.907823563E0,-4.740176678E0,6.306603551E-2,6.143642019E0
1.186618819E1,3.574979544E0,-4.682043076E0,1.902640820E0,6.190480449E0
1.187616527E1,2.758995056E0,-4.616722107E0,1.972335458E0,5.728549894E0
1.188616554E1,2.589013100E0,-4.544386864E0,2.742558718E0,5.905596424E0
1.189617100E1,2.419072390E0,-4.460800171E0,2.795010805E0,5.793335377E0
1.190616501E1,2.274366856E0,-4.377022743E0,3.370887995E0,5.974442113E0
1.191616267E1,2.127740860E0,-4.302718639E0,3.386003017E0,5.874154006E0
1.192616345E1,1.995017529E0,-4.235875130E0,3.391293287E0,5.781315007E0
1.193616345E1,1.883117914E0,-4.166407585E0,3.396590471E0,5.695780199E0
1.194617074E1,1.803367376E0,-4.093226910E0,3.338113308E0,5.581186333E0
1.195619288E1,1.730167866E0,-4.013044834E0,3.259306908E0,5.451705348E0
1.196618564E1,1.668079734E0,-3.909946918E0,3.145883083E0,5.288360358E0
1.197618423E1,1.630141735E0,-3.802219391E0,3.028077364E0,5.126742328E0
1.198616949E1,1.613648415E0,-3.685169220E0,2.930249691E0,4.977016841E0
1.199616382E1,1.631126642E0,-3.554807186E0,2.874312878E0,4.853751412E0
1.200616293E1,2.216245174E0,-2.843460083E0,3.499021530E0,5.023958557E0
1.201616527E1,2.109740496E0,-2.666026115E0,3.463014603E0,4.852954806E0
1.202616580E1,1.291352272E0,-6.519103050E-1,4.319958210E0,4.555723507E0
1.203616554E1,2.335729599E-1,2.057333946E0,5.351215363E0,5.737829306E0
1.204617439E1,6.850481033E-3,1.188956451E1,7.876924515E0,1.426210823E1
1.205616632E1,-6.463861465E-2,1.458797455E1,7.717165947E0,1.650357021E1
1.206618637E1,-2.147281170E-1,1.582712364E1,7.560315609E0,1.754144587E1
1.207616762E1,-1.131211042E0,1.584475517E1,4.956841469E0,1.664049826E1
1.208616215E1,-1.109889388E0,1.497450256E1,3.002634525E0,1.531285067E1
1.209616814E1,-8.616694212E-1,1.261399460E1,7.152743340E-1,1.266360736E1
1.210616345E1,-5.579771996E-1,8.330881119E0,-2.797936678E0,8.805871247E0
1.211616501E1,-5.004618168E-1,1.953983307E0,-4.680996895E0,5.097081981E0
1.212616371E1,-1.760468602E0,-1.282547951E0,-6.483690262E0,6.839767420E0
1.213616866E1,-3.955448151E0,-3.456185341E0,-7.700553894E0,9.321443958E0
1.214616038E1,-5.126106739E0,-3.561818123E0,-7.805741310E0,9.994654373E0
1.215618928E1,-5.959356308E0,-3.396041870E0,-7.789955616E0,1.037932736E1
1.216619585E1,-6.534786701E0,-1.370971203E0,-7.630220413E0,1.013919439E1
1.217616220E1,-6.514485836E0,6.098642349E-1,-7.326606750E0,9.822913344E0
1.218615986E1,-6.355970383E0,1.676047325E0,-6.173169136E0,9.017511371E0
1.219616996E1,-4.454057693E0,4.288633347E0,-5.886229515E0,8.536902472E0
1.220616501E1,-2.151579142E0,5.302871704E0,-5.608782768E0,8.013001014E0
1.221616449E1,-7.938795090E-1,5.320765495E0,-4.780030251E0,7.196490765E0
1.222616527E1,2.875571251E0,5.142463684E0,-4.449144840E0,7.383002951E0
1.223616241E1,3.663325071E0,4.076590538E0,-3.468685627E0,6.486163810E0
1.224617673E1,3.805934429E0,3.139721870E0,-3.178432465E0,5.869022341E0
1.225616501E1,3.830684423E0,1.349379539E0,-2.241026640E0,4.638660226E0
1.226616580E1,2.801424503E0,1.345959663E0,-1.014863014E0,3.269485220E0
1.227616345E1,1.444791675E0,1.399097443E-1,-1.055882454E0,1.794961135E0
1.228616481E1,-4.946574867E-1,-5.578470230E-1,-9.068987370E-1,1.174029237E0
1.229616632E1,-4.723379910E-1,-7.023506165E-1,-7.904795408E-1,1.158126708E0
1.230616371E1,-4.493298829E-1,-1.462669373E0,-6.821284294E-1,1.675290492E0
1.231618116E1,-4.297453165E-1,-1.483602524E0,-6.022244096E-1,1.657839475E0
1.232616319E1,-1.557464600E0,-1.464049339E0,-7.555397749E-1,2.267151693E0
1.233630215E1,-1.612401009E0,-1.392241955E0,-2.438704491E0,3.238125116E0
1.234616382E1,-1.620739698E0,-7.401123047E-1,-2.553448200E0,3.113625075E0
1.235616507E1,-4.952727854E-1,-5.921754837E-1,-3.450405598E0,3.535712902E0
1.236616554E1,-4.185109138E-1,1.326301575E0,-3.583248138E0,3.843682411E0
1.237616423E1,-5.411412120E-1,1.241269112E0,-4.454816818E0,4.656068696E0
1.238616397E1,-4.647568464E-1,1.256398201E0,-4.507241249E0,4.702101556E0
1.239617152E1,1.138275146E0,1.267827988E0,-4.472116947E0,4.785696199E0
1.240616580E1,2.537383795E0,2.419213295E0,-4.228225708E0,5.492613415E0
1.241616554E1,2.704479933E0,2.465270996E0,-3.239649773E0,4.887443446E0
1.242616267E1,3.436141014E0,2.514979362E0,-3.025709629E0,5.223706062E0
1.243616788E1,3.493395090E0,2.577736855E0,-2.102387428E0,4.823750558E0
1.244616892E1,3.452539206E0,2.624037743E0,-1.934267640E0,4.748367335E0
1.245616397E1,3.327613354E0,2.645581245E0,-1.784492016E0,4.610479640E0
1.246616267E1,2.547658920E0,2.630952835E0,-1.657973170E0,4.020118634E0
1.247616449E1,2.329603434E0,2.559772491E0,-1.576408625E0,3.803229091E0
1.248616501E1,1.096730709E0,2.439086914E0,-1.537460089E0,3.084760404E0
1.249617231E1,-5.060313344E-1,1.218738556E0,-1.560134530E0,2.043382277E0
1.250616876E1,-5.082432032E-1,1.239142418E0,-1.595129967E0,2.082840535E0
1.251618064E1,-7.081850767E-1,1.159863472E0,-1.648242235E0,2.136237778E0
1.252615059E1,-7.062563300E-1,1.180615425E0,-1.697288036E0,2.184819778E0
1.253616220E1,-7.028284669E-1,1.201377869E0,-1.733621955E0,2.223223273E0
1.254619392E1,-1.815692544E0,1.221688271E0,-1.755084395E0,2.805277683E0
1.255616371E1,-1.796368837E0,1.238718987E0,-1.761454344E0,2.804297975E0
1.256616501E1,-1.715621591E0,1.152706146E0,-1.756143570E0,2.712218490E0
1.257616788E1,-6.545088291E-1,1.167183876E0,-1.731836796E0,2.188597426E0
1.258616632E1,-5.656937957E-1,1.182184219E0,-1.729744196E0,2.170157594E0
1.259617543E1,-4.389986992E-1,1.217602730E0,-1.834052324E0,2.244777092E0
1.260616350E1,-5.535150766E-1,1.133694649E0,-2.501799107E0,2.801899582E0
1.261616840E1,-4.688655436E-1,1.150080681E0,-2.575125217E0,2.858984148E0
1.262616481E1,-3.866616189E-1,1.166754723E0,-3.267472029E0,3.491016650E0
1.263616345E1,-3.072562814E-1,1.183602333E0,-3.322593927E0,3.540473317E0
1.264616814E1,-2.307862788E-1,1.200768471E0,-3.410873652E0,3.623419144E0
1.265616293E1,-3.553037047E-1,1.118454933E0,-4.094900131E0,4.259740514E0
1.266616481E1,1.331926346E0,1.136537552E0,-4.079070091E0,4.438981663E0
1.267616397E1,1.404357910E0,1.156731606E0,-3.998963118E0,4.393399044E0
1.268617668E1,1.473692775E0,1.177515030E0,-3.861386299E0,4.297512791E0
1.269616251E1,1.522208929E0,1.200935364E0,-3.662765980E0,4.144299747E0
1.270616267E1,1.536129832E0,1.125047684E0,-2.757906675E0,3.351339491E0
1.271616871E1,1.495627642E0,2.411259651E0,-2.598570347E0,3.847550259E0
1.272616501E1,1.345628977E0,3.114299774E0,-1.839058757E0,3.858978821E0
1.273616580E1,-1.263670921E-1,3.817602158E0,-1.648251057E0,4.160142596E0
1.274616918E1,-1.071123928E-1,3.967887878E0,-6.775738001E-1,4.026749748E0
1.275616632E1,-2.868591547E-1,4.899389267E0,-5.248173475E-1,4.935760996E0
1.276616762E1,-2.624154389E-1,4.987237930E0,-3.841689825E-1,5.008891079E0
1.277616371E1,-2.162171125E0,5.717218399E0,1.360947847E0,6.262088249E0
1.278616554E1,-2.265766621E0,5.668083191E0,1.394495487E0,6.261428200E0
1.279617335E1,-2.305702448E0,5.539486885E0,1.198853135E0,6.118776640E0
1.280617361E1,-2.338310003E0,4.558144569E0,1.195641041E0,5.260601970E0
1.281617335E1,-2.371026278E0,4.374623299E0,1.191539764E0,5.116528278E0
1.282617361E1,-2.397055626E0,3.169946671E0,1.138004184E0,4.133943770E0
1.283617361E1,-2.365045309E0,2.437513351E0,1.089567304E0,3.566800746E0
1.284617309E1,-2.336775064E0,9.823970795E-1,8.451175690E-1,2.672048920E0
1.285617205E1,-2.331374407E0,9.935941696E-1,8.052630424E-1,2.659132296E0
1.286618272E1,-2.848582745E0,1.006590843E0,7.690939307E-1,3.117555814E0
1.287616147E1,-2.799580097E0,1.021349907E0,7.381216884E-1,3.070118561E0
1.288615205E1,-2.757538080E0,1.037636757E0,7.114912868E-1,3.030994252E0
1.289618106E1,-2.708392620E0,9.556741714E-1,4.928475618E-1,2.914035419E0
1.290617699E1,-2.652468204E0,9.748668671E-1,4.787565768E-1,2.866210188E0
1.291617595E1,-2.579946280E0,9.952955246E-1,4.716537595E-1,2.805208237E0
1.292617569E1,-2.466866016E0,1.016715050E0,4.661600888E-1,2.708586839E0
1.293617309E1,-2.277465582E0,1.040741920E0,4.622051120E-1,2.546296681E0
1.294617413E1,-1.492362618E0,2.071478844E0,2.596708536E-1,2.566242338E0
1.295617283E1,-4.176869392E-1,2.212120056E0,2.980767488E-1,2.270856066E0
1.296617387E1,1.182904840E0,2.292955399E0,2.977744043E-1,2.597225041E0
1.297618064E1,1.298730016E0,2.374276161E0,2.986557484E-1,2.722697596E0
1.298617413E1,1.212241888E0,2.470689774E0,1.013737917E-1,2.753927195E0
1.299617413E1,3.107461929E0,3.235523224E0,1.022392586E-1,4.487246710E0
1.300618246E1,3.863573074E0,3.292237282E0,1.044162139E-1,5.077098184E0
1.301617335E1,4.020943642E0,3.366377831E0,1.078525335E-1,5.245199676E0
1.302617595E1,4.922873497E0,3.433105469E0,1.125835702E-1,6.002796989E0
1.303617569E1,4.955618858E0,3.484673500E0,-8.191709220E-2,6.058697722E0
1.304620361E1,4.968427658E0,3.513567924E0,-7.382680476E-2,6.085711409E0
1.305617054E1,4.884186268E0,3.520301819E0,-6.657016277E-2,6.020982643E0
1.306614986E1,4.724430084E0,3.463774681E0,-5.814106762E-2,5.858443056E0
1.307616392E1,4.505734444E0,3.339932442E0,-4.988227785E-2,5.608857266E0
1.308616840E1,3.717317104E0,2.435257912E0,-2.398100495E-1,4.450442271E0
1.309616606E1,3.527652025E0,8.560419083E-1,-2.269620299E-1,3.637120884E0
1.310616371E1,3.347423077E0,8.675251007E-1,-2.128193080E-1,3.464553811E0
1.311616632E1,3.209300756E0,8.807125092E-1,-1.947003007E-1,3.333642764E0
1.312616736E1,3.115089178E0,-7.287406921E-1,-1.764089614E-1,3.204054261E0
1.313616371E1,3.170797586E0,-2.285043716E0,-3.156678081E-1,3.921100392E0
1.314616319E1,3.780246973E0,-2.438360214E0,-2.912022471E-1,4.507844991E0
1.315616554E1,3.771111488E0,-3.339250565E0,-2.632119954E-1,5.043922754E0
1.316616319E1,3.769475937E0,-3.414087296E0,-2.347535640E-1,5.091173748E0
1.317616423E1,3.750085115E0,-3.487335205E0,-4.067037702E-1,5.137124990E0
1.318616371E1,3.689667225E0,-3.574027538E0,-3.734747469E-1,5.150417504E0
1.319616345E1,3.581640720E0,-4.160691261E0,-3.393433392E-1,5.500423249E0
1.320616423E1,3.395142555E0,-4.181036949E0,-3.041712046E-1,5.394495626E0
1.321616423E1,3.163503170E0,-4.220221996E0,-2.688785195E-1,5.281128825E0
1.322626152E1,2.183178902E0,-4.280543804E0,-4.327713847E-1,4.824584588E0
1.323616715E1,1.985728741E0,-4.878827095E0,7.818448544E-1,5.325162329E0
1.324618543E1,1.776395082E0,-4.921992302E0,8.840832710E-1,5.306900314E0
1.325618012E1,1.057362676E0,-4.985419273E0,1.688719630E0,5.368816923E0
1.326615095E1,9.414284229E-1,-5.031932831E0,1.797827244E0,5.425755089E0
1.327616710E1,8.584394455E-1,-5.073493004E0,2.620048761E0,5.774244977E0
1.328616606E1,8.250998259E-1,-5.115714073E0,2.696413279E0,5.841400925E0
1.329616684E1,8.582174778E-1,-5.151407242E0,2.708944321E0,5.883189028E0
1.330616736E1,1.508839011E0,-5.171356201E0,2.662359238E0,6.008966370E0
1.331616371E1,1.606157064E0,-5.181991100E0,2.652583361E0,6.038954443E0
1.332616371E1,1.624340415E0,-5.140555382E0,2.541630030E0,5.960174043E0
1.333616527E1,1.640068412E0,-5.092396736E0,2.400691509E0,5.863927748E0
1.334616371E1,1.634663701E0,-5.033184052E0,2.224696398E0,5.740587180E0
1.335616449E1,1.598145604E0,-4.963367939E0,2.028487921E0,5.594984711E0
1.336616345E1,1.543778658E0,-4.874155521E0,1.845767021E0,5.435761261E0
1.337616501E1,1.468204260E0,-4.767449379E0,1.699622750E0,5.270001406E0
1.338616658E1,1.388709545E0,-4.659739017E0,1.566253901E0,5.108310209E0
1.339616423E1,1.315380096E0,-4.545811176E0,1.468870163E0,4.955018023E0
1.340629840E1,1.252804041E0,-4.455517769E0,1.442273021E0,4.847814767E0
1.341615194E1,1.206137657E0,-4.375901222E0,2.120192051E0,5.009839707E0
1.342615319E1,1.160192490E0,-4.301081657E0,2.157166719E0,4.949617995E0
1.343616168E1,1.101664543E0,-4.206341743E0,3.476303339E0,5.567015406E0
1.344616168E1,9.837677479E-1,-4.040442944E0,4.768137932E0,6.326777813E0
1.345616554E1,7.509315014E-1,-2.247951984E0,6.193345070E0,6.631342956E0
1.346616632E1,-6.566126347E-1,1.929399014E0,7.215478897E0,7.497790102E0
1.347616710E1,-7.706058025E-1,7.311319828E0,9.613306046E0,1.210226772E1
1.348616007E1,1.197676659E-1,1.277452374E1,9.454182625E0,1.589290313E1
1.349616580E1,1.345608473E0,1.869725800E1,8.001934052E0,2.038207711E1
1.350616371E1,1.398544550E0,1.894447327E1,6.181025982E0,1.997633791E1
1.351617179E1,2.094222784E0,1.881614304E1,4.300736904E0,1.941466831E1
1.352616371E1,2.357381582E0,1.570745659E1,1.821583748E0,1.598748285E1
1.353616527E1,3.387681961E0,1.029844093E1,-1.294414043E0,1.091832324E1
1.354616345E1,3.363429546E0,2.273593903E0,-4.033715725E0,5.723001843E0
1.355616371E1,7.513718605E-1,-3.282774448E0,-5.541532516E0,6.484577888E0
1.356616371E1,-2.093952179E0,-7.605257511E0,-6.267644882E0,1.007511538E1
1.357616580E1,-3.213620424E0,-9.130691528E0,-6.410472870E0,1.160995463E1
1.358616637E1,-4.468344212E0,-9.100152969E0,-7.487808228E0,1.260341843E1
1.359618064E1,-5.697841167E0,-7.512838840E0,-7.520686150E0,1.206104728E1
1.360618507E1,-6.762242317E0,-3.488632202E0,-8.220396996E0,1.120149109E1
1.361616220E1,-6.941890717E0,3.593320847E-1,-8.177134514E0,1.073240398E1
1.362616684E1,-6.909497261E0,3.802936077E0,-8.085888863E0,1.129535630E1
1.363616684E1,-5.850492477E0,6.325689316E0,-7.976057053E0,1.174138380E1
1.364616762E1,-4.206286430E0,7.845510960E0,-7.819813728E0,1.184881321E1
1.365616481E1,-1.591703653E0,8.565484047E0,-7.563450813E0,1.153719315E1
1.366616527E1,-1.452800035E0,8.458382607E0,-7.196664333E0,1.120030543E1
1.367616580E1,1.970408916E0,6.034296036E0,-5.022699356E0,8.094612330E0
1.368616710E1,2.250335693E0,4.115259171E0,-4.074675560E0,6.213078922E0
1.369616970E1,2.435212612E0,1.291002274E0,-3.695908070E0,4.610497131E0
1.370616918E1,2.444574594E0,1.249248505E0,-1.984561205E0,3.387484310E0
1.371616741E1,1.691171646E0,-2.872343063E-1,-1.745090842E0,2.447020051E0
1.372616397E1,6.968287826E-1,-1.060034752E0,-1.551591277E0,2.004165542E0
1.373616293E1,-8.795663118E-1,-1.214953423E0,-1.391288519E0,2.045832950E0
1.374616371E1,-1.039874315E0,-1.911886215E0,-1.459555149E0,2.620486353E0
1.375616267E1,-1.009672403E0,-1.922019482E0,-1.342920184E0,2.552847796E0
1.376619548E1,-2.347270250E0,-1.862453938E0,-1.281731606E0,3.259025653E0
1.377616137E1,-2.467039347E0,-1.741165161E0,-1.221938252E0,3.257464098E0
1.378618350E1,-2.585667849E0,-8.804020882E-1,-2.881206036E0,3.970155448E0
1.379616298E1,-2.668380260E0,-7.606143951E-1,-2.936581612E0,4.040086513E0
1.380616241E1,-2.678432465E0,1.348543167E-1,-3.036821365E0,4.051477528E0
1.381616527E1,-2.635021210E0,1.164146423E0,-3.826467752E0,4.789616804E0
1.382616554E1,-2.503355742E0,1.175816536E0,-3.882284164E0,4.766703770E0
1.383616449E1,-8.116211295E-1,1.187668800E0,-3.952086926E0,4.205743347E0
1.384616475E1,-9.369537830E-1,1.093560219E0,-3.944411993E0,4.199064457E0
1.385616449E1,-8.181785941E-1,1.119278908E0,-3.889166594E0,4.128900371E0
1.386616241E1,3.691179752E-1,2.102774620E0,-3.731990099E0,4.299495236E0
1.387617152E1,4.736089706E-1,1.127053261E0,-3.501546144E0,3.708824600E0
1.388616632E1,5.727949739E-1,1.033303261E0,-2.544896126E0,2.805762998E0
1.389616423E1,6.125023961E-1,1.041145325E0,-2.371321440E0,2.661260630E0
1.390616215E1,6.093223095E-1,1.050497055E0,-2.220882177E0,2.531231990E0
1.391616215E1,5.572194457E-1,1.061308861E0,-2.120433092E0,2.435796894E0
1.392616345E1,4.486439824E-1,1.075722694E0,-2.063948631E0,2.370304767E0
1.393616475E1,-7.164429426E-1,9.913034439E-1,-2.051586866E0,2.388510347E0
1.394617986E1,-6.852207184E-1,1.008333206E0,-2.092380524E0,2.421635717E0
1.395616330E1,-6.553593874E-1,1.025727272E0,-2.129236460E0,2.452602753E0
1.396629147E1,-6.266410351E-1,1.043429375E0,-2.138243675E0,2.460388153E0
1.397616142E1,-5.972628593E-1,1.061260223E0,-2.117249727E0,2.442486969E0
1.398617158E1,-7.688536644E-1,9.796218872E-1,-2.046855927E0,2.395916147E0
1.399616580E1,4.482764602E-1,9.980726242E-1,-1.917588711E0,2.207769737E0
1.400616580E1,5.200750232E-1,1.016691208E0,-1.191218972E0,1.650194438E0
1.401616345E1,6.104202867E-1,1.035380363E0,-1.073830128E0,1.611749536E0
1.402616580E1,1.205223083E0,1.054080009E0,-9.940594435E-1,1.884622382E0
1.403616554E1,1.125404835E0,9.930276871E-1,-1.072591305E0,1.844747174E0
1.404617335E1,1.036459327E0,1.011970520E0,-1.796555400E0,2.307800592E0
1.405617621E1,9.202435017E-1,-6.774559021E-1,-1.916958809E0,2.231709138E0
1.406617100E1,2.113327384E-1,-7.924957275E-1,-2.918465137E0,3.031525979E0
1.407617413E1,-9.092128277E-1,-8.725237846E-1,-3.002895594E0,3.256585277E0
1.408617257E1,-8.843846917E-1,-8.830304146E-1,-3.670952559E0,3.877856584E0
1.409617413E1,-8.587501645E-1,-8.132691383E-1,-3.661812782E0,3.848081521E0
1.410617283E1,1.506201625E-1,-6.587476730E-1,-3.630757332E0,3.693106244E0
1.411617413E1,2.372819781E-1,1.078408241E0,-3.539829731E0,3.708053613E0
1.412617335E1,3.210400343E-1,9.989719391E-1,-3.402787447E0,3.560895119E0
1.413617996E1,3.874692917E-1,1.021138191E0,-2.517218828E0,2.743947209E0
1.414617095E1,3.994310498E-1,1.043688774E0,-2.332035303E0,2.585965985E0
1.415615246E1,3.205165267E-1,2.894982338E0,-1.453514338E0,3.255204680E0
1.416617569E1,-8.638089895E-1,3.031733513E0,-1.239984989E0,3.387497135E0
1.417617699E1,-1.023841143E0,4.153084755E0,7.005644441E-1,4.334415094E0
1.418617543E1,-2.747057915E0,5.010921478E0,7.926818132E-1,5.769229212E0
1.419617152E1,-3.904682875E0,5.900925636E0,8.755211830E-1,7.129797266E0
1.420617309E1,-4.810044289E0,6.666604042E0,9.179542065E-1,8.271806057E0
1.421617777E1,-4.910012245E0,6.783859253E0,9.536997676E-1,8.428434603E0
1.422617960E1,-5.440260887E0,7.474514961E0,1.898531437E0,9.437649816E0
1.423617361E1,-4.735826492E0,7.374016762E0,1.897475481E0,8.966860597E0
1.424617413E1,-3.862758875E0,6.539526939E0,1.896495581E0,7.828346837E0
1.425617517E1,-2.736352682E0,5.601423264E0,1.910838962E0,6.520343098E0
1.426617387E1,-1.689722896E0,4.653566360E0,2.545333147E0,5.566827118E0
1.427616658E1,-3.025687337E-1,3.917017937E0,2.489800930E0,4.651202643E0
1.428616397E1,-1.657767296E-1,3.777669907E0,2.451864481E0,4.506651893E0
1.429616319E1,-3.800329566E-2,3.671025276E0,2.410242319E0,4.391712521E0
1.430616241E1,8.323557675E-2,3.617317200E0,2.341300011E0,4.309709691E0
1.431618637E1,-1.273535252E0,3.643866539E0,2.203858614E0,4.444845125E0
1.432616533E1,-1.933829904E0,3.725498199E0,1.980048656E0,4.641080436E0
1.433616012E1,-2.605989456E0,4.385203362E0,1.029997587E0,5.204045023E0
1.434616142E1,-2.695877075E0,4.455183983E0,8.261128664E-1,5.272464319E0
1.435616397E1,-2.748779774E0,4.535369873E0,-2.676083446E-1,5.310083272E0
1.436616423E1,-2.656032801E0,5.145915031E0,-5.021119118E-1,5.812664460E0
1.437617335E1,-1.569371819E0,5.180897713E0,-5.322138667E-1,5.439474296E0
1.438616397E1,1.926897317E-1,5.210574150E0,-5.582910180E-1,5.243939470E0
1.439616527E1,1.769033909E0,5.218505859E0,-5.559700131E-1,5.538175424E0
1.440617022E1,4.943174839E0,5.210378647E0,-7.073759437E-1,7.216883251E0
1.441616397E1,6.077663422E0,5.169384003E0,-6.669250131E-1,8.006579332E0
1.442617387E1,6.819441795E0,5.063531876E0,-6.258318424E-1,8.516795580E0
1.443616163E1,6.851060390E0,4.178984642E0,-5.828959942E-1,8.046161125E0
1.444616710E1,6.726254940E0,3.340327263E0,-5.403963327E-1,7.529430253E0
1.445616449E1,5.870033741E0,2.391101837E0,-6.978339553E-1,6.376647736E0
1.446616814E1,4.815873623E0,6.230592728E-1,-6.542572379E-1,4.899887156E0
1.447616710E1,3.754983902E0,6.492156982E-1,6.087657809E-1,3.859012944E0
1.448616215E1,2.916692019E0,-8.672304153E-1,7.016908526E-1,3.122747344E0
1.449618064E1,2.656851768E0,-1.959512711E0,1.415236592E0,3.591858293E0
1.450617267E1,2.414261341E0,-2.925141811E0,1.510593057E0,4.082524197E0
1.451616496E1,1.669148803E0,-3.825530052E0,1.602482796E0,4.470871170E0
1.452617126E1,1.515743852E0,-4.495870590E0,2.251233578E0,5.251512583E0
1.453616606E1,1.375062346E0,-4.629484653E0,2.254296064E0,5.329613059E0
1.454616892E1,1.280491233E0,-5.661664486E0,2.254919529E0,6.227259801E0
1.455616293E1,1.189922333E0,-5.739606380E0,2.226101875E0,6.270129673E0
1.456616449E1,1.061941266E0,-6.333566666E0,2.174991131E0,6.780292942E0
1.457617205E1,8.900053501E-1,-6.344913960E0,2.073420048E0,6.734175033E0
1.458616736E1,-1.231937408E-1,-6.459381104E0,2.105973244E0,6.795138280E0
1.459616371E1,-2.787719965E-1,-6.510548592E0,2.103805065E0,6.847696879E0
1.460616293E1,-1.930579662E0,-6.552152634E0,2.057544231E0,7.133815966E0
1.461616371E1,-1.953585267E0,-7.123373985E0,1.954339504E0,7.640575582E0
1.462616918E1,-1.981111050E0,-7.085932255E0,1.830952406E0,7.582059326E0
1.463616481E1,-2.007369041E0,-7.079745770E0,1.690564156E0,7.550519041E0
1.464616345E1,-2.200310230E0,-7.131650925E0,1.557681203E0,7.624183940E0
1.465616449E1,-2.189299107E0,-8.560012817E0,1.410165429E0,8.947369253E0
1.466616481E1,-2.175335884E0,-8.468295097E0,1.241475821E0,8.830932583E0
1.467619632E1,-2.106777191E0,-8.388256073E0,1.081136107E0,8.716088880E0
1.468618324E1,-2.040030003E0,-8.304844856E0,9.698462486E-1,8.606554028E0
1.469616340E1,-2.169009686E0,-8.419511795E0,9.184951782E-1,8.742792190E0
1.470618100E1,-5.524072647E-1,-9.422427177E0,8.733673096E-1,9.478927057E0
1.471616663E1,-4.338608980E-1,-9.491496086E0,8.395607471E-1,9.538427306E0
1.472616918E1,-3.065797091E-1,-1.011710167E1,1.318898439E0,1.020731259E1
1.473616606E1,3.827744722E-1,-1.009949780E1,1.196008682E0,1.017726922E1
1.474616606E1,4.227578640E-1,-1.004216957E1,1.051710367E0,1.010593828E1
1.475616501E1,3.507542610E-1,-9.928302765E0,9.152765274E-1,9.976570326E0
1.476616501E1,9.670948982E-2,-9.704779625E0,7.811059952E-1,9.736643511E0
1.477616892E1,-8.845732212E-1,-9.468241692E0,6.088848114E-1,9.528945966E0
1.478616814E1,-1.065293193E0,-7.644036293E0,4.300158024E-1,7.729880596E0
1.479616371E1,-1.244242907E0,-7.451543331E0,2.617554665E-1,7.559242975E0
1.480616293E1,-2.381990194E0,-7.246430874E0,1.418290138E-1,7.629203967E0
1.481616501E1,-2.417605400E0,-7.028252602E0,9.261651039E-1,7.489922049E0
1.482617205E1,-1.462362170E0,-6.796492577E0,8.540778160E-1,7.004303204E0
1.483616371E1,-1.420201540E0,-6.749106407E0,1.578245163E0,7.075186747E0
1.484616267E1,-6.317942142E-1,-6.538393021E0,1.487867832E0,6.735242973E0
1.485617199E1,-5.510311127E-1,-6.320103645E0,2.284054279E0,6.742718245E0
1.486616944E1,3.138389587E-1,-6.093926907E0,3.144421577E0,6.864534004E0
1.487615428E1,1.071108341E0,-5.827237606E0,4.226935387E0,7.278114726E0
1.488616116E1,1.884538651E0,-4.222258568E0,6.465101242E0,7.948363820E0
1.489616840E1,2.686303377E0,-2.364318371E0,8.291555405E0,9.030842609E0
1.490616944E1,3.823297024E0,2.607035637E-1,9.623846054E0,1.035876341E1
1.491616918E1,5.664903641E0,2.772195816E0,9.486082077E0,1.139131055E1
1.492617361E1,7.009664536E0,4.303747177E0,1.006589222E1,1.299922393E1
1.493616762E1,8.266333580E0,4.747399330E0,9.874204636E0,1.372479466E1
1.494616423E1,8.093862534E0,3.988357544E0,8.984777451E0,1.273357108E1
1.495616397E1,6.838286877E0,3.333211422E0,7.235642433E0,1.049890410E1
1.496616580E1,6.731602669E0,2.258821726E0,5.046687603E0,8.711245941E0
1.497617309E1,3.976576805E0,6.898181438E-1,3.278669834E0,5.199873848E0
1.498616554E1,1.364772081E0,-5.135447979E-1,2.232111931E0,2.666206062E0
1.499616267E1,-1.133837938E0,-4.951164722E-1,2.251934528E0,2.569423654E0
1.500616371E1,-3.530245304E0,-3.141980171E-1,2.272272110E0,4.210056157E0
1.501616267E1,-3.551791668E0,1.009904385E0,6.270642281E-1,3.745442626E0
1.502616892E1,-3.781532288E0,2.414154053E0,-3.767843246E-1,4.502231964E0
1.503617481E1,-3.832953453E0,3.553150177E0,-1.463327885E0,5.427498213E0
1.504617496E1,-3.823491573E0,4.277318001E0,-2.413729191E0,6.224196791E0
1.505616986E1,-3.756934643E0,4.364798546E0,-3.365516663E0,6.670286850E0
1.506616095E1,-3.624835730E0,4.428817749E0,-4.296003342E0,7.156081709E0
1.507617022E1,-3.633124113E0,5.046579361E0,-5.145508289E0,8.071171515E0
1.508616762E1,-1.716002226E0,4.997425079E0,-5.881726265E0,7.906555819E0
1.509616481E1,-1.453545094E0,4.863887310E0,-6.021925926E0,7.876152929E0
1.510616449E1,-6.086392403E-1,4.665251732E0,-7.452078342E0,8.812972658E0
1.511616710E1,-5.258028507E-1,4.435254097E0,-7.359342575E0,8.608592840E0
1.512617074E1,-6.148686409E-1,4.210549831E0,-7.406758308E0,8.542064269E0
1.513616319E1,-1.413888574E0,4.122300148E0,-7.264748573E0,8.471659297E0
1.514616710E1,-1.520544887E0,4.805564880E0,-7.109752178E0,8.715164176E0
1.515616632E1,-3.005668163E0,5.809866905E0,-6.949160576E0,9.543554226E0
1.516616554E1,-3.174966097E0,5.510796547E0,-6.962241650E0,9.429851382E0
1.517620356E1,-3.140100718E0,6.702228546E0,-6.770888329E0,1.003120276E1
1.518616423E1,-3.106080770E0,7.167247295E0,-6.572972775E0,1.020887568E1
1.519616481E1,-3.068065643E0,7.058154106E0,-6.371906281E0,9.991584250E0
1.520616580E1,-3.021145105E0,6.888136387E0,-6.153932095E0,9.718262234E0
1.521617007E1,-3.156183958E0,6.629635811E0,-6.116273880E0,9.556274082E0
1.522617861E1,-1.245477319E0,6.290912151E0,-5.874338627E0,8.696818024E0
1.523616616E1,-1.087207198E0,5.104939461E0,-5.614984512E0,7.666190544E0
1.524616975E1,-2.833104134E-1,3.780362606E0,-5.357288361E0,6.562921971E0
1.525616319E1,-1.610810757E-1,3.599293232E0,-6.522097588E0,7.451081520E0
1.526616163E1,-3.474593163E-2,3.333895206E0,-6.379958153E0,7.198606154E0
1.527622595E1,6.178555489E-1,2.062786102E0,-6.256156921E0,6.616368446E0
1.528617647E1,6.858150959E-1,1.905777454E0,-6.139633656E0,6.465093308E0
1.529617569E1,7.125663757E-1,1.898535728E0,-6.004641533E0,6.337815767E0
1.530617100E1,6.347372532E-1,2.782258987E0,-5.798649311E0,6.462831445E0
1.531617595E1,5.134193897E-1,2.685028553E0,-5.515387058E0,6.155686168E0
1.532617491E1,-2.163784504E-1,2.603632927E0,-5.207989693E0,5.826566801E0
1.533617283E1,-3.179271221E-1,2.530579090E0,-3.466291666E0,4.303496962E0
1.534617361E1,-4.509792328E-1,2.466335773E0,-3.224721670E0,4.084730623E0
1.535617335E1,-1.245996714E0,2.310387611E0,-3.190247774E0,4.131353239E0
1.536617465E1,-1.339857459E0,2.262003422E0,-2.963923216E0,3.961908419E0
1.537621580E1,-1.441220760E0,7.187261581E-1,-2.745388031E0,3.182898052E0
1.538618767E1,-1.539572001E0,5.587124825E-1,-2.534167290E0,3.017357360E0
1.539617361E1,-1.611930013E0,-1.987166405E-1,-2.383133888E0,2.883944139E0
1.540619293E1,-3.107646465E0,-3.133482933E-1,-2.437008142E0,3.961648949E0
1.541616439E1,-3.042857409E0,-4.207339287E-1,-2.297589779E0,3.836002742E0
1.542616923E1,-2.952616930E0,-5.352621078E-1,-2.164196968E0,3.699756854E0
1.543617231E1,-2.861389160E0,-6.474533081E-1,-2.036735296E0,3.571419099E0
1.544616944E1,-2.784700394E0,-7.399339676E-1,-1.923275352E0,3.464252681E0
1.545617517E1,-2.906680584E0,-8.129520416E-1,-2.012737751E0,3.627781180E0
1.546617491E1,-2.787277460E0,-8.814644814E-1,-1.912614942E0,3.493421129E0
1.547621762E1,-2.628891945E0,-8.078875542E-1,-1.774572492E0,3.273050975E0
1.548617309E1,-2.512735844E0,-3.106117249E-2,-1.678546906E0,3.021973847E0
1.549617179E1,-2.597703218E0,7.170991898E-1,-1.783292770E0,3.231474333E0
1.550617387E1,-2.482715607E0,1.736707687E0,-1.689575672E0,3.469105984E0
1.551617804E1,-2.369348764E0,1.722486496E0,-1.597249150E0,3.336461920E0
1.552616606E1,-2.257754087E0,3.218758583E0,-1.506145120E0,4.210265248E0
1.553616345E1,-2.147918463E0,3.308884621E0,-3.595783234E0,5.337783081E0
1.554616632E1,-2.235000134E0,3.353466988E0,-4.289256573E0,5.885464160E0
1.555616319E1,-2.116123915E0,3.318512917E0,-4.935205936E0,6.312429488E0
1.556617074E1,-1.991823912E0,3.165072441E0,-5.003231049E0,6.246388315E0
1.557624496E1,-1.871692538E0,1.532499313E0,-5.662061214E0,6.157168529E0
1.558617231E1,-1.755087495E0,1.524646759E0,-5.599686623E0,6.063115546E0
1.559615444E1,-1.841669083E0,1.419054031E0,-5.439721107E0,5.915743832E0
1.560616324E1,-1.732467890E0,1.406206131E0,-4.285468102E0,4.831572986E0
1.561617100E1,-1.626216412E0,1.395967484E0,-3.259908199E0,3.901321122E0
1.562616449E1,-1.522732854E0,1.389663696E0,-2.212717533E0,3.024235344E0
1.563616319E1,-1.415090442E0,2.609360695E0,-4.635639787E-1,3.004352802E0
1.564615981E1,-1.509211898E0,3.666997910E0,-5.023126602E-1,3.997112987E0
1.565616944E1,-1.406559348E0,4.634327888E0,-3.485076129E-1,4.855601068E0
1.566617335E1,-1.267526627E0,5.405629158E0,-1.618791521E-1,5.554606665E0
1.567617126E1,-1.761085987E-1,5.392782211E0,-5.591955781E-2,5.395946739E0
1.568616371E1,1.807916164E-2,5.312203407E0,-2.078439593E-1,5.316298619E0
1.569616397E1,8.270612955E-1,5.161518097E0,-1.599807143E-1,5.229808149E0
1.570616345E1,8.901197910E-1,4.130349159E0,-1.140463725E-1,4.226713143E0
1.571617861E1,9.182968140E-1,3.964840889E0,-6.862690300E-2,4.070373689E0
1.572616345E1,8.997592926E-1,3.007246017E0,-2.495360374E-2,3.139063248E0
1.573616267E1,8.166320324E-1,2.898328781E0,-1.812977493E-1,3.016631644E0
1.574616554E1,7.047685385E-1,2.793142319E0,-1.378928423E-1,2.883982861E0
1.575616783E1,-1.049793005E0,2.722163200E0,-9.474617988E-2,2.919111968E0
1.576617882E1,-1.025393605E0,2.698687553E0,-5.171409249E-2,2.887389981E0
1.577617001E1,-1.001227856E0,2.755996704E0,-1.025716960E-2,2.932248329E0
1.578616116E1,-1.176111460E0,2.903276443E0,1.842885733E0,3.634347272E0
1.579616606E1,-1.150099039E0,4.140602112E0,1.935851932E0,4.713261753E0
1.580616449E1,-1.123418331E0,4.904180527E0,2.046410084E0,5.431468459E0
1.581617335E1,-1.096011519E0,5.671335220E0,2.126548529E0,6.155281722E0
1.582616449E1,6.424868107E-1,6.360974312E0,2.166710138E0,6.750512301E0
1.583616501E1,1.429709077E0,7.520303726E0,-2.067210674E-1,7.657791443E0
1.584616007E1,2.370635509E0,7.563094139E0,-2.213522345E-1,7.929016489E0
1.585616371E1,3.045921087E0,7.559082031E0,-2.323994637E-1,8.152997359E0
1.586617283E1,3.808115005E0,7.484770775E0,-2.396090180E-1,8.401246689E0
1.587616267E1,3.929605484E0,7.349322319E0,-4.423172474E-1,8.345656496E0
1.588616345E1,4.536860466E0,6.438553810E0,-4.421009421E-1,7.888823188E0
1.589616345E1,4.454427719E0,6.289325714E0,-4.390074313E-1,7.719473542E0
1.590616345E1,4.302178383E0,5.214522362E0,-3.782313168E-1,6.770748941E0
1.591616762E1,4.124956608E0,4.358448982E0,1.552474618E0,6.198509659E0
1.592617934E1,3.306159496E0,3.367363930E0,2.372798443E0,5.282045333E0
1.593617090E1,3.123307943E0,2.269110680E0,2.426555395E0,4.559834084E0
1.594632054E1,2.186346054E0,9.956722260E-1,2.341594219E0,3.354778046E0
1.595615330E1,1.429093122E0,-7.571220398E-2,1.572944522E0,2.126545076E0
1.596616871E1,1.203466892E0,-1.271414757E0,1.493389606E0,2.301095513E0
1.597616293E1,2.463892698E-1,-2.482891560E0,1.371781588E0,2.847322056E0
1.598616319E1,9.333539009E-2,-3.720840931E0,1.266602635E0,3.931621925E0
1.599616371E1,-9.027767181E-2,-4.794616699E0,1.224333763E0,4.949292123E0
1.600616554E1,-9.021725655E-1,-5.670641899E0,1.219983339E0,5.870132386E0
1.601617100E1,-1.118401051E0,-6.433818817E0,1.277498960E0,6.654085142E0
1.602616371E1,-2.242684603E0,-7.115196228E0,1.272530913E0,7.568023951E0
1.603616554E1,-2.220086575E0,-7.175494671E0,1.270390034E0,7.617768637E0
1.604617257E1,-2.202737808E0,-7.257187366E0,1.255524039E0,7.687337832E0
1.605616475E1,-2.189389467E0,-8.437397003E0,1.225047588E0,8.802490331E0
1.606616788E1,-3.474618673E0,-8.567382812E0,1.165066004E0,9.318283210E0
1.607616345E1,-3.550260544E0,-8.496289253E0,1.079133034E0,9.271235576E0
1.608616554E1,-3.625104904E0,-8.425381660E0,9.759807587E-1,9.223935176E0
1.609616580E1,-3.680598021E0,-8.360774994E0,8.655986190E-1,9.175980670E0
1.610618428E1,-3.686523438E0,-8.295955658E0,7.648737431E-1,9.110343966E0
1.611616257E1,-3.639436007E0,-8.430321693E0,6.722985506E-1,9.206943230E0
1.612618923E1,-3.510460377E0,-8.361329079E0,6.008813381E-1,9.088245947E0
1.613616272E1,-2.213092804E0,-8.291623116E0,5.618515015E-1,8.600259924E0
1.614616298E1,-2.163796902E0,-8.221007347E0,5.451055765E-1,8.518457544E0
1.615616918E1,-2.115696192E0,-8.148859978E0,5.902112722E-1,8.439694228E0
1.616617257E1,-2.263346195E0,-8.275964737E0,1.666284084E0,8.740184836E0
1.617616554E1,-7.619154453E-1,-8.201774597E0,2.352477551E0,8.566432882E0
1.618616163E1,-6.497615576E-1,-8.126297951E0,2.394641638E0,8.496659169E0
1.619616449E1,9.134864807E-2,-8.008564949E0,3.055773258E0,8.572234675E0
1.620616397E1,1.810748577E-1,-8.127999306E0,3.005640507E0,8.667816084E0
1.621617387E1,8.040108681E-1,-8.031761169E0,2.915192604E0,8.582189049E0
1.622616449E1,8.317074776E-1,-7.903496742E0,2.799524307E0,8.425813577E0
1.623616345E1,1.435775518E0,-7.764821529E0,3.201900005E0,8.520919455E0
1.624616397E1,1.435690641E0,-7.596783161E0,3.071718931E0,8.319121300E0
1.625616371E1,2.029998302E0,-7.616696835E0,4.046960831E0,8.860748035E0
1.626616762E1,2.024991274E0,-7.423466206E0,5.037775993E0,9.197153208E0
1.627616241E1,1.981692076E0,-7.207735062E0,6.333245277E0,9.797374339E0
1.628618376E1,2.517731667E0,-5.345338821E0,9.930046082E0,1.155497447E1
1.629616423E1,4.134696007E0,-2.645113945E0,1.239789581E1,1.333417262E1
1.630624845E1,6.601701736E0,-3.953647614E-2,1.203613091E1,1.372779939E1
1.631617027E1,6.446331978E0,1.604959488E0,1.163359451E1,1.339670154E1
1.632616246E1,6.320764542E0,2.606326103E0,1.143549919E1,1.332349961E1
1.633616684E1,8.220519066E0,2.935661793E0,1.111540699E1,1.413319909E1
1.634616580E1,8.309743881E0,2.637953281E0,1.059065533E1,1.371760260E1
1.635616632E1,8.218595505E0,2.136091232E0,9.252657890E0,1.255865741E1
1.636616996E1,8.098928452E0,6.822009087E-1,6.571790218E0,1.045210346E1
1.637616632E1,4.165572166E0,-3.138512373E0,5.076255798E0,7.278092080E0
1.638616554E1,2.772686958E0,-3.082478762E0,5.013119221E0,6.505446380E0
1.639616397E1,1.017526150E0,-2.941992521E0,3.256088257E0,4.504751957E0
1.640616554E1,-1.109886885E0,-2.584443808E0,3.206072807E0,4.264985526E0
1.641616970E1,-2.594228745E0,-4.064230919E-1,3.165938377E0,4.113194418E0
1.642616371E1,-4.189865112E0,1.471857548E0,8.960142136E-1,4.530361550E0
1.643616710E1,-4.223378658E0,2.951910019E0,-3.635835648E-1,5.165548670E0
1.644616527E1,-4.404069424E0,4.004457474E0,-1.655932903E0,6.178480471E0
1.645616449E1,-4.367648125E0,4.699838161E0,-2.846726418E0,7.019165205E0
1.646617710E1,-4.285164833E0,4.795751572E0,-3.854409218E0,7.497889116E0
1.647618642E1,-2.617079735E0,4.862864494E0,-4.822099686E0,7.331384781E0
1.648620397E1,-2.363449812E0,4.866431236E0,-5.651478291E0,7.823506558E0
1.649617288E1,-1.451351881E0,4.742192268E0,-6.859525204E0,8.464508008E0
1.650616423E1,-1.323217869E0,4.499353886E0,-6.789146423E0,8.251521076E0
1.651617673E1,-1.252184629E0,3.567627668E0,-6.698972702E0,7.692344817E0
1.652617569E1,-1.250322819E0,3.329020977E0,-6.590071201E0,7.488305967E0
1.653617439E1,-1.307028294E0,3.087579250E0,-6.464903355E0,7.282612441E0
1.654617595E1,-1.926112056E0,2.885471821E0,-6.508903503E0,7.375749460E0
1.655617725E1,-2.025817871E0,3.546312809E0,-7.987931728E0,8.971472894E0
1.656617465E1,-2.042685509E0,5.138516903E0,-7.921481133E0,9.660578833E0
1.657617751E1,-2.031981468E0,4.955022812E0,-7.818678379E0,9.476968468E0
1.658617178E1,-1.998054981E0,4.677032948E0,-7.674705505E0,9.206952020E0
1.659617465E1,-1.909412503E0,6.105798244E0,-7.495495796E0,9.854394225E0
1.660616397E1,-1.762742758E0,6.046105862E0,-7.296235085E0,9.638345529E0
1.661617465E1,-9.235007763E-1,6.440294266E0,-7.075322151E0,9.611993938E0
1.662617387E1,-7.760276794E-1,6.179423809E0,-6.839900017E0,9.250498895E0
1.663617361E1,1.067399979E-3,5.869888783E0,-6.594503403E0,8.828537285E0
1.664617163E1,1.258966923E-1,4.952010155E0,-6.328929901E0,8.037014884E0
1.665618465E1,2.706675529E-1,4.640831470E0,-6.045351982E0,7.626064401E0
1.666615611E1,3.960683346E-1,3.072735310E0,-5.754301548E0,6.535331569E0
1.667617522E1,4.319789410E-1,2.928288460E0,-5.458350182E0,6.209272567E0
1.668617100E1,3.823728561E-1,2.701874733E0,-5.140758514E0,5.820114619E0
1.669616423E1,2.505493164E-1,2.600114822E0,-4.778355598E0,5.445737257E0
1.670617465E1,-8.085701466E-1,2.511768818E0,-3.022086382E0,4.011953935E0
1.671616866E1,-9.285886288E-1,2.435794353E0,-2.764223576E0,3.799513515E0
